"rt","url","trial_role","trial_type","trial_index","time_elapsed","internal_node_id","participantId","condition","view_history","stimulus","key_press","button_pressed","correct_answer","correct_response","success","vowel","wordStim","speaker","sentNum","order","step","speakerIdentity","raised_answer","key_response","raised_response"
"44817","micr.con.consent.html","consent","external-html","0","44853","0.0-0.0","LSPC001","condA","","","","","","","","","","","","","","","","",""
"8941","","instructions","instructions","1","53794","0.0-1.0","LSPC001","condA","[{""page_index"":0,""viewing_time"":1281},{""page_index"":1,""viewing_time"":2946},{""page_index"":2,""viewing_time"":4714}]","","","","","","","","","","","","","","","",""
"null","","fixation","html-keyboard-response","2","54295","0.0-2.0-0.0","LSPC001","condA","","<div class=""vertical-center"" style=""font-size:60px;"">+</div>","null","","","","","","","","","","","","","",""
"4240","","tonetest","audio-button-response","3","58539","0.0-2.0-1.0","LSPC001","condA","","../../src/audio/toneTest_6.wav","","0","0","true","","","","","","","","","","",""
"null","","fixation","html-keyboard-response","4","59040","0.0-2.0-0.1","LSPC001","condA","","<div class=""vertical-center"" style=""font-size:60px;"">+</div>","null","","","","","","","","","","","","","",""
"4227","","tonetest","audio-button-response","5","63269","0.0-2.0-1.1","LSPC001","condA","","../../src/audio/toneTest_6.wav","","0","0","true","","","","","","","","","","",""
"null","","fixation","html-keyboard-response","6","63770","0.0-2.0-0.2","LSPC001","condA","","<div class=""vertical-center"" style=""font-size:60px;"">+</div>","null","","","","","","","","","","","","","",""
"3929","","tonetest","audio-button-response","7","67701","0.0-2.0-1.2","LSPC001","condA","","../../src/audio/toneTest_3.wav","","2","2","true","","","","","","","","","","",""
"null","","fixation","html-keyboard-response","8","68203","0.0-2.0-0.3","LSPC001","condA","","<div class=""vertical-center"" style=""font-size:60px;"">+</div>","null","","","","","","","","","","","","","",""
"4281","","tonetest","audio-button-response","9","72485","0.0-2.0-1.3","LSPC001","condA","","../../src/audio/toneTest_6.wav","","0","0","true","","","","","","","","","","",""
"null","","fixation","html-keyboard-response","10","72987","0.0-2.0-0.4","LSPC001","condA","","<div class=""vertical-center"" style=""font-size:60px;"">+</div>","null","","","","","","","","","","","","","",""
"4276","","tonetest","audio-button-response","11","77263","0.0-2.0-1.4","LSPC001","condA","","../../src/audio/toneTest_6.wav","","0","0","true","","","","","","","","","","",""
"null","","fixation","html-keyboard-response","12","77765","0.0-2.0-0.5","LSPC001","condA","","<div class=""vertical-center"" style=""font-size:60px;"">+</div>","null","","","","","","","","","","","","","",""
"4168","","tonetest","audio-button-response","13","81934","0.0-2.0-1.5","LSPC001","condA","","../../src/audio/toneTest_1.wav","","2","2","true","","","","","","","","","","",""
"872","","instructions","html-keyboard-response","14","82805","0.0-3.0","LSPC001","condA","","<div class=""vertical-center""><p><b>Your score was 6/6.</b></p><p>If you scored below 6, please ensure that you are wearing headphones and in a quiet location free of distractions.</p><p><i>To continue to the main experiment, press SPACE.</i></p></div>","32","","","","","","","","","","","","","",""
"","","","fullscreen","15","84964","0.0-4.0","LSPC001","condA","","","","","","","true","","","","","","","","","",""
"18806","","instructions","instructions","16","103771","0.0-5.0","LSPC001","condA","[{""page_index"":0,""viewing_time"":18806}]","","","","","","","","","","","","","","","",""
"null","","fixation","html-keyboard-response","17","104274","0.0-6.0-0.0","LSPC001","condA","","<div class=""vertical-center"" style='width:60%;'><p style='font-weight:bold;'>Does the middle word sound more like the first word (A) or the last word (B)?</p> <br> <div class=""container""> <div id=""a-box""> <p class=""title-text"">A</h3></p> </div> <div id=""x-box""> <p class=""title-text"">X<p> </div> <div id=""b-box""> <p class=""title-text"">B</p></div> <br> <div style='float: left;padding-left:30px;'><p>Press '1' for A</p></div><div style='float: right;padding-right:30px;'><p>Press '0' for B</p> </div> </div></div>","null","","","","","","","","","","","","","",""
"2291","","practice","audio-keyboard-response","18","106563","0.0-6.0-1.0","LSPC001","condA","","resources/audio/practiceStim/S1_AU_14_bxa_Step-6.wav","48","","","","","","","","","","","","","",""
"null","","fixation","html-keyboard-response","19","107367","0.0-6.0-0.1","LSPC001","condA","","<div class=""vertical-center"" style='width:60%;'><p style='font-weight:bold;'>Does the middle word sound more like the first word (A) or the last word (B)?</p> <br> <div class=""container""> <div id=""a-box""> <p class=""title-text"">A</h3></p> </div> <div id=""x-box""> <p class=""title-text"">X<p> </div> <div id=""b-box""> <p class=""title-text"">B</p></div> <br> <div style='float: left;padding-left:30px;'><p>Press '1' for A</p></div><div style='float: right;padding-right:30px;'><p>Press '0' for B</p> </div> </div></div>","null","","","","","","","","","","","","","",""
"2541","","practice","audio-keyboard-response","20","109907","0.0-6.0-1.1","LSPC001","condA","","resources/audio/practiceStim/S1_AI_21_axb_Step-6.wav","49","","","","","","","","","","","","","",""
"null","","fixation","html-keyboard-response","21","110711","0.0-6.0-0.2","LSPC001","condA","","<div class=""vertical-center"" style='width:60%;'><p style='font-weight:bold;'>Does the middle word sound more like the first word (A) or the last word (B)?</p> <br> <div class=""container""> <div id=""a-box""> <p class=""title-text"">A</h3></p> </div> <div id=""x-box""> <p class=""title-text"">X<p> </div> <div id=""b-box""> <p class=""title-text"">B</p></div> <br> <div style='float: left;padding-left:30px;'><p>Press '1' for A</p></div><div style='float: right;padding-right:30px;'><p>Press '0' for B</p> </div> </div></div>","null","","","","","","","","","","","","","",""
"2381","","practice","audio-keyboard-response","22","113091","0.0-6.0-1.2","LSPC001","condA","","resources/audio/practiceStim/S1_AI_21_bxa_Step-6.wav","48","","","","","","","","","","","","","",""
"null","","fixation","html-keyboard-response","23","113895","0.0-6.0-0.3","LSPC001","condA","","<div class=""vertical-center"" style='width:60%;'><p style='font-weight:bold;'>Does the middle word sound more like the first word (A) or the last word (B)?</p> <br> <div class=""container""> <div id=""a-box""> <p class=""title-text"">A</h3></p> </div> <div id=""x-box""> <p class=""title-text"">X<p> </div> <div id=""b-box""> <p class=""title-text"">B</p></div> <br> <div style='float: left;padding-left:30px;'><p>Press '1' for A</p></div><div style='float: right;padding-right:30px;'><p>Press '0' for B</p> </div> </div></div>","null","","","","","","","","","","","","","",""
"2632","","practice","audio-keyboard-response","24","116526","0.0-6.0-1.3","LSPC001","condA","","resources/audio/practiceStim/S1_AU_14_axb_Step-6.wav","48","","","","","","","","","","","","","",""
"1104","","instructions","instructions","25","117931","0.0-7.0","LSPC001","condA","[{""page_index"":0,""viewing_time"":1104}]","","","","","","","","","","","","","","","",""
"null","","fixation","html-keyboard-response","26","118232","0.0-8.0-0.0","LSPC001","condA","","<div class=""vertical-center"" style='width:60%;'><p style='font-weight:bold;'>Does the middle word sound more like the first word (A) or the last word (B)?</p> <br> <div class=""container""> <div id=""a-box""> <p class=""title-text"">A</h3></p> </div> <div id=""x-box""> <p class=""title-text"">X<p> </div> <div id=""b-box""> <p class=""title-text"">B</p></div> <br> <div style='float: left;padding-left:30px;'><p>Press '1' for A</p></div><div style='float: right;padding-right:30px;'><p>Press '0' for B</p> </div> </div></div>","null","","","","","","","","","","","","","",""
"3595","","test","audio-keyboard-response","27","121827","0.0-8.0-1.0","LSPC001","condA","","resources/audio/wordStim/S9_AI_27_bxa_Step-6.wav","49","","","","","AI","resources/audio/wordStim/S9_AI_27_bxa_Step-6.wav","S9","27","bxa","6","CN","1","1","true"
"null","","fixation","html-keyboard-response","28","122634","0.0-8.0-0.1","LSPC001","condA","","<div class=""vertical-center"" style='width:60%;'><p style='font-weight:bold;'>Does the middle word sound more like the first word (A) or the last word (B)?</p> <br> <div class=""container""> <div id=""a-box""> <p class=""title-text"">A</h3></p> </div> <div id=""x-box""> <p class=""title-text"">X<p> </div> <div id=""b-box""> <p class=""title-text"">B</p></div> <br> <div style='float: left;padding-left:30px;'><p>Press '1' for A</p></div><div style='float: right;padding-right:30px;'><p>Press '0' for B</p> </div> </div></div>","null","","","","","","","","","","","","","",""
"3675","","test","audio-keyboard-response","29","126308","0.0-8.0-1.1","LSPC001","condA","","resources/audio/wordStim/S3_AU_17_axb_Step-5.wav","48","","","","","AU","resources/audio/wordStim/S3_AU_17_axb_Step-5.wav","S3","17","axb","5","MI","0","0","true"
"null","","fixation","html-keyboard-response","30","127113","0.0-8.0-0.2","LSPC001","condA","","<div class=""vertical-center"" style='width:60%;'><p style='font-weight:bold;'>Does the middle word sound more like the first word (A) or the last word (B)?</p> <br> <div class=""container""> <div id=""a-box""> <p class=""title-text"">A</h3></p> </div> <div id=""x-box""> <p class=""title-text"">X<p> </div> <div id=""b-box""> <p class=""title-text"">B</p></div> <br> <div style='float: left;padding-left:30px;'><p>Press '1' for A</p></div><div style='float: right;padding-right:30px;'><p>Press '0' for B</p> </div> </div></div>","null","","","","","","","","","","","","","",""
"6157","","test","audio-keyboard-response","31","133270","0.0-8.0-1.2","LSPC001","condA","","resources/audio/wordStim/S3_AI_28_axb_Step-7.wav","48","","","","","AI","resources/audio/wordStim/S3_AI_28_axb_Step-7.wav","S3","28","axb","7","MI","0","0","true"
"null","","fixation","html-keyboard-response","32","134079","0.0-8.0-0.3","LSPC001","condA","","<div class=""vertical-center"" style='width:60%;'><p style='font-weight:bold;'>Does the middle word sound more like the first word (A) or the last word (B)?</p> <br> <div class=""container""> <div id=""a-box""> <p class=""title-text"">A</h3></p> </div> <div id=""x-box""> <p class=""title-text"">X<p> </div> <div id=""b-box""> <p class=""title-text"">B</p></div> <br> <div style='float: left;padding-left:30px;'><p>Press '1' for A</p></div><div style='float: right;padding-right:30px;'><p>Press '0' for B</p> </div> </div></div>","null","","","","","","","","","","","","","",""
"3523","","test","audio-keyboard-response","33","137604","0.0-8.0-1.3","LSPC001","condA","","resources/audio/wordStim/S3_AI_25_axb_Step-3.wav","49","","","","","AI","resources/audio/wordStim/S3_AI_25_axb_Step-3.wav","S3","25","axb","3","MI","0","1","false"
"null","","fixation","html-keyboard-response","34","138407","0.0-8.0-0.4","LSPC001","condA","","<div class=""vertical-center"" style='width:60%;'><p style='font-weight:bold;'>Does the middle word sound more like the first word (A) or the last word (B)?</p> <br> <div class=""container""> <div id=""a-box""> <p class=""title-text"">A</h3></p> </div> <div id=""x-box""> <p class=""title-text"">X<p> </div> <div id=""b-box""> <p class=""title-text"">B</p></div> <br> <div style='float: left;padding-left:30px;'><p>Press '1' for A</p></div><div style='float: right;padding-right:30px;'><p>Press '0' for B</p> </div> </div></div>","null","","","","","","","","","","","","","",""
"6221","","test","audio-keyboard-response","35","144630","0.0-8.0-1.4","LSPC001","condA","","resources/audio/wordStim/S9_AI_22_bxa_Step-8.wav","49","","","","","AI","resources/audio/wordStim/S9_AI_22_bxa_Step-8.wav","S9","22","bxa","8","CN","1","1","true"
"null","","fixation","html-keyboard-response","36","145431","0.0-8.0-0.5","LSPC001","condA","","<div class=""vertical-center"" style='width:60%;'><p style='font-weight:bold;'>Does the middle word sound more like the first word (A) or the last word (B)?</p> <br> <div class=""container""> <div id=""a-box""> <p class=""title-text"">A</h3></p> </div> <div id=""x-box""> <p class=""title-text"">X<p> </div> <div id=""b-box""> <p class=""title-text"">B</p></div> <br> <div style='float: left;padding-left:30px;'><p>Press '1' for A</p></div><div style='float: right;padding-right:30px;'><p>Press '0' for B</p> </div> </div></div>","null","","","","","","","","","","","","","",""
"2963","","test","audio-keyboard-response","37","148396","0.0-8.0-1.5","LSPC001","condA","","resources/audio/wordStim/S3_AU_14_bxa_Step-8.wav","49","","","","","AU","resources/audio/wordStim/S3_AU_14_bxa_Step-8.wav","S3","14","bxa","8","MI","1","1","true"
"null","","fixation","html-keyboard-response","38","149204","0.0-8.0-0.6","LSPC001","condA","","<div class=""vertical-center"" style='width:60%;'><p style='font-weight:bold;'>Does the middle word sound more like the first word (A) or the last word (B)?</p> <br> <div class=""container""> <div id=""a-box""> <p class=""title-text"">A</h3></p> </div> <div id=""x-box""> <p class=""title-text"">X<p> </div> <div id=""b-box""> <p class=""title-text"">B</p></div> <br> <div style='float: left;padding-left:30px;'><p>Press '1' for A</p></div><div style='float: right;padding-right:30px;'><p>Press '0' for B</p> </div> </div></div>","null","","","","","","","","","","","","","",""
"3384","","test","audio-keyboard-response","39","152589","0.0-8.0-1.6","LSPC001","condA","","resources/audio/wordStim/S9_AU_11_bxa_Step-4.wav","48","","","","","AU","resources/audio/wordStim/S9_AU_11_bxa_Step-4.wav","S9","11","bxa","4","CN","1","0","false"
"null","","fixation","html-keyboard-response","40","153390","0.0-8.0-0.7","LSPC001","condA","","<div class=""vertical-center"" style='width:60%;'><p style='font-weight:bold;'>Does the middle word sound more like the first word (A) or the last word (B)?</p> <br> <div class=""container""> <div id=""a-box""> <p class=""title-text"">A</h3></p> </div> <div id=""x-box""> <p class=""title-text"">X<p> </div> <div id=""b-box""> <p class=""title-text"">B</p></div> <br> <div style='float: left;padding-left:30px;'><p>Press '1' for A</p></div><div style='float: right;padding-right:30px;'><p>Press '0' for B</p> </div> </div></div>","null","","","","","","","","","","","","","",""
"3400","","test","audio-keyboard-response","41","156790","0.0-8.0-1.7","LSPC001","condA","","resources/audio/wordStim/S3_AU_14_axb_Step-3.wav","48","","","","","AU","resources/audio/wordStim/S3_AU_14_axb_Step-3.wav","S3","14","axb","3","MI","0","0","true"
"null","","fixation","html-keyboard-response","42","157596","0.0-8.0-0.8","LSPC001","condA","","<div class=""vertical-center"" style='width:60%;'><p style='font-weight:bold;'>Does the middle word sound more like the first word (A) or the last word (B)?</p> <br> <div class=""container""> <div id=""a-box""> <p class=""title-text"">A</h3></p> </div> <div id=""x-box""> <p class=""title-text"">X<p> </div> <div id=""b-box""> <p class=""title-text"">B</p></div> <br> <div style='float: left;padding-left:30px;'><p>Press '1' for A</p></div><div style='float: right;padding-right:30px;'><p>Press '0' for B</p> </div> </div></div>","null","","","","","","","","","","","","","",""
"3064","","test","audio-keyboard-response","43","160660","0.0-8.0-1.8","LSPC001","condA","","resources/audio/wordStim/S9_AI_23_axb_Step-10.wav","48","","","","","AI","resources/audio/wordStim/S9_AI_23_axb_Step-10.wav","S9","23","axb","10","CN","0","0","true"
"null","","fixation","html-keyboard-response","44","161463","0.0-8.0-0.9","LSPC001","condA","","<div class=""vertical-center"" style='width:60%;'><p style='font-weight:bold;'>Does the middle word sound more like the first word (A) or the last word (B)?</p> <br> <div class=""container""> <div id=""a-box""> <p class=""title-text"">A</h3></p> </div> <div id=""x-box""> <p class=""title-text"">X<p> </div> <div id=""b-box""> <p class=""title-text"">B</p></div> <br> <div style='float: left;padding-left:30px;'><p>Press '1' for A</p></div><div style='float: right;padding-right:30px;'><p>Press '0' for B</p> </div> </div></div>","null","","","","","","","","","","","","","",""
"3520","","test","audio-keyboard-response","45","164981","0.0-8.0-1.9","LSPC001","condA","","resources/audio/wordStim/S9_AU_13_bxa_Step-4.wav","48","","","","","AU","resources/audio/wordStim/S9_AU_13_bxa_Step-4.wav","S9","13","bxa","4","CN","1","0","false"
"null","","fixation","html-keyboard-response","46","165787","0.0-8.0-0.10","LSPC001","condA","","<div class=""vertical-center"" style='width:60%;'><p style='font-weight:bold;'>Does the middle word sound more like the first word (A) or the last word (B)?</p> <br> <div class=""container""> <div id=""a-box""> <p class=""title-text"">A</h3></p> </div> <div id=""x-box""> <p class=""title-text"">X<p> </div> <div id=""b-box""> <p class=""title-text"">B</p></div> <br> <div style='float: left;padding-left:30px;'><p>Press '1' for A</p></div><div style='float: right;padding-right:30px;'><p>Press '0' for B</p> </div> </div></div>","null","","","","","","","","","","","","","",""
"3336","","test","audio-keyboard-response","47","169124","0.0-8.0-1.10","LSPC001","condA","","resources/audio/wordStim/S9_AU_13_axb_Step-3.wav","49","","","","","AU","resources/audio/wordStim/S9_AU_13_axb_Step-3.wav","S9","13","axb","3","CN","0","1","false"
"null","","fixation","html-keyboard-response","48","169932","0.0-8.0-0.11","LSPC001","condA","","<div class=""vertical-center"" style='width:60%;'><p style='font-weight:bold;'>Does the middle word sound more like the first word (A) or the last word (B)?</p> <br> <div class=""container""> <div id=""a-box""> <p class=""title-text"">A</h3></p> </div> <div id=""x-box""> <p class=""title-text"">X<p> </div> <div id=""b-box""> <p class=""title-text"">B</p></div> <br> <div style='float: left;padding-left:30px;'><p>Press '1' for A</p></div><div style='float: right;padding-right:30px;'><p>Press '0' for B</p> </div> </div></div>","null","","","","","","","","","","","","","",""
"3963","","test","audio-keyboard-response","49","173892","0.0-8.0-1.11","LSPC001","condA","","resources/audio/wordStim/S3_AU_16_axb_Step-5.wav","48","","","","","AU","resources/audio/wordStim/S3_AU_16_axb_Step-5.wav","S3","16","axb","5","MI","0","0","true"
"null","","fixation","html-keyboard-response","50","174695","0.0-8.0-0.12","LSPC001","condA","","<div class=""vertical-center"" style='width:60%;'><p style='font-weight:bold;'>Does the middle word sound more like the first word (A) or the last word (B)?</p> <br> <div class=""container""> <div id=""a-box""> <p class=""title-text"">A</h3></p> </div> <div id=""x-box""> <p class=""title-text"">X<p> </div> <div id=""b-box""> <p class=""title-text"">B</p></div> <br> <div style='float: left;padding-left:30px;'><p>Press '1' for A</p></div><div style='float: right;padding-right:30px;'><p>Press '0' for B</p> </div> </div></div>","null","","","","","","","","","","","","","",""
"3272","","test","audio-keyboard-response","51","177965","0.0-8.0-1.12","LSPC001","condA","","resources/audio/wordStim/S3_AU_15_axb_Step-7.wav","49","","","","","AU","resources/audio/wordStim/S3_AU_15_axb_Step-7.wav","S3","15","axb","7","MI","0","1","false"
"null","","fixation","html-keyboard-response","52","178772","0.0-8.0-0.13","LSPC001","condA","","<div class=""vertical-center"" style='width:60%;'><p style='font-weight:bold;'>Does the middle word sound more like the first word (A) or the last word (B)?</p> <br> <div class=""container""> <div id=""a-box""> <p class=""title-text"">A</h3></p> </div> <div id=""x-box""> <p class=""title-text"">X<p> </div> <div id=""b-box""> <p class=""title-text"">B</p></div> <br> <div style='float: left;padding-left:30px;'><p>Press '1' for A</p></div><div style='float: right;padding-right:30px;'><p>Press '0' for B</p> </div> </div></div>","null","","","","","","","","","","","","","",""
"3299","","test","audio-keyboard-response","53","182069","0.0-8.0-1.13","LSPC001","condA","","resources/audio/wordStim/S3_AI_28_bxa_Step-4.wav","48","","","","","AI","resources/audio/wordStim/S3_AI_28_bxa_Step-4.wav","S3","28","bxa","4","MI","1","0","false"
"null","","fixation","html-keyboard-response","54","182873","0.0-8.0-0.14","LSPC001","condA","","<div class=""vertical-center"" style='width:60%;'><p style='font-weight:bold;'>Does the middle word sound more like the first word (A) or the last word (B)?</p> <br> <div class=""container""> <div id=""a-box""> <p class=""title-text"">A</h3></p> </div> <div id=""x-box""> <p class=""title-text"">X<p> </div> <div id=""b-box""> <p class=""title-text"">B</p></div> <br> <div style='float: left;padding-left:30px;'><p>Press '1' for A</p></div><div style='float: right;padding-right:30px;'><p>Press '0' for B</p> </div> </div></div>","null","","","","","","","","","","","","","",""
"3581","","test","audio-keyboard-response","55","186453","0.0-8.0-1.14","LSPC001","condA","","resources/audio/wordStim/S3_AU_15_axb_Step-3.wav","49","","","","","AU","resources/audio/wordStim/S3_AU_15_axb_Step-3.wav","S3","15","axb","3","MI","0","1","false"
"null","","fixation","html-keyboard-response","56","187254","0.0-8.0-0.15","LSPC001","condA","","<div class=""vertical-center"" style='width:60%;'><p style='font-weight:bold;'>Does the middle word sound more like the first word (A) or the last word (B)?</p> <br> <div class=""container""> <div id=""a-box""> <p class=""title-text"">A</h3></p> </div> <div id=""x-box""> <p class=""title-text"">X<p> </div> <div id=""b-box""> <p class=""title-text"">B</p></div> <br> <div style='float: left;padding-left:30px;'><p>Press '1' for A</p></div><div style='float: right;padding-right:30px;'><p>Press '0' for B</p> </div> </div></div>","null","","","","","","","","","","","","","",""
"4763","","test","audio-keyboard-response","57","192014","0.0-8.0-1.15","LSPC001","condA","","resources/audio/wordStim/S3_AI_23_axb_Step-5.wav","49","","","","","AI","resources/audio/wordStim/S3_AI_23_axb_Step-5.wav","S3","23","axb","5","MI","0","1","false"
"null","","fixation","html-keyboard-response","58","192819","0.0-8.0-0.16","LSPC001","condA","","<div class=""vertical-center"" style='width:60%;'><p style='font-weight:bold;'>Does the middle word sound more like the first word (A) or the last word (B)?</p> <br> <div class=""container""> <div id=""a-box""> <p class=""title-text"">A</h3></p> </div> <div id=""x-box""> <p class=""title-text"">X<p> </div> <div id=""b-box""> <p class=""title-text"">B</p></div> <br> <div style='float: left;padding-left:30px;'><p>Press '1' for A</p></div><div style='float: right;padding-right:30px;'><p>Press '0' for B</p> </div> </div></div>","null","","","","","","","","","","","","","",""
"7795","","test","audio-keyboard-response","59","200613","0.0-8.0-1.16","LSPC001","condA","","resources/audio/wordStim/S3_AI_21_bxa_Step-8.wav","49","","","","","AI","resources/audio/wordStim/S3_AI_21_bxa_Step-8.wav","S3","21","bxa","8","MI","1","1","true"
"null","","fixation","html-keyboard-response","60","201419","0.0-8.0-0.17","LSPC001","condA","","<div class=""vertical-center"" style='width:60%;'><p style='font-weight:bold;'>Does the middle word sound more like the first word (A) or the last word (B)?</p> <br> <div class=""container""> <div id=""a-box""> <p class=""title-text"">A</h3></p> </div> <div id=""x-box""> <p class=""title-text"">X<p> </div> <div id=""b-box""> <p class=""title-text"">B</p></div> <br> <div style='float: left;padding-left:30px;'><p>Press '1' for A</p></div><div style='float: right;padding-right:30px;'><p>Press '0' for B</p> </div> </div></div>","null","","","","","","","","","","","","","",""
"4563","","test","audio-keyboard-response","61","205981","0.0-8.0-1.17","LSPC001","condA","","resources/audio/wordStim/S3_AU_19_axb_Step-9.wav","48","","","","","AU","resources/audio/wordStim/S3_AU_19_axb_Step-9.wav","S3","19","axb","9","MI","0","0","true"
"null","","fixation","html-keyboard-response","62","206784","0.0-8.0-0.18","LSPC001","condA","","<div class=""vertical-center"" style='width:60%;'><p style='font-weight:bold;'>Does the middle word sound more like the first word (A) or the last word (B)?</p> <br> <div class=""container""> <div id=""a-box""> <p class=""title-text"">A</h3></p> </div> <div id=""x-box""> <p class=""title-text"">X<p> </div> <div id=""b-box""> <p class=""title-text"">B</p></div> <br> <div style='float: left;padding-left:30px;'><p>Press '1' for A</p></div><div style='float: right;padding-right:30px;'><p>Press '0' for B</p> </div> </div></div>","null","","","","","","","","","","","","","",""
"4581","","test","audio-keyboard-response","63","211365","0.0-8.0-1.18","LSPC001","condA","","resources/audio/wordStim/S3_AI_30_bxa_Step-8.wav","49","","","","","AI","resources/audio/wordStim/S3_AI_30_bxa_Step-8.wav","S3","30","bxa","8","MI","1","1","true"
"null","","fixation","html-keyboard-response","64","212168","0.0-8.0-0.19","LSPC001","condA","","<div class=""vertical-center"" style='width:60%;'><p style='font-weight:bold;'>Does the middle word sound more like the first word (A) or the last word (B)?</p> <br> <div class=""container""> <div id=""a-box""> <p class=""title-text"">A</h3></p> </div> <div id=""x-box""> <p class=""title-text"">X<p> </div> <div id=""b-box""> <p class=""title-text"">B</p></div> <br> <div style='float: left;padding-left:30px;'><p>Press '1' for A</p></div><div style='float: right;padding-right:30px;'><p>Press '0' for B</p> </div> </div></div>","null","","","","","","","","","","","","","",""
"5909","","test","audio-keyboard-response","65","218077","0.0-8.0-1.19","LSPC001","condA","","resources/audio/wordStim/S9_AU_13_axb_Step-7.wav","48","","","","","AU","resources/audio/wordStim/S9_AU_13_axb_Step-7.wav","S9","13","axb","7","CN","0","0","true"
"null","","fixation","html-keyboard-response","66","218881","0.0-8.0-0.20","LSPC001","condA","","<div class=""vertical-center"" style='width:60%;'><p style='font-weight:bold;'>Does the middle word sound more like the first word (A) or the last word (B)?</p> <br> <div class=""container""> <div id=""a-box""> <p class=""title-text"">A</h3></p> </div> <div id=""x-box""> <p class=""title-text"">X<p> </div> <div id=""b-box""> <p class=""title-text"">B</p></div> <br> <div style='float: left;padding-left:30px;'><p>Press '1' for A</p></div><div style='float: right;padding-right:30px;'><p>Press '0' for B</p> </div> </div></div>","null","","","","","","","","","","","","","",""
"4165","","test","audio-keyboard-response","67","223045","0.0-8.0-1.20","LSPC001","condA","","resources/audio/wordStim/S3_AI_29_axb_Step-5.wav","49","","","","","AI","resources/audio/wordStim/S3_AI_29_axb_Step-5.wav","S3","29","axb","5","MI","0","1","false"
"null","","fixation","html-keyboard-response","68","223851","0.0-8.0-0.21","LSPC001","condA","","<div class=""vertical-center"" style='width:60%;'><p style='font-weight:bold;'>Does the middle word sound more like the first word (A) or the last word (B)?</p> <br> <div class=""container""> <div id=""a-box""> <p class=""title-text"">A</h3></p> </div> <div id=""x-box""> <p class=""title-text"">X<p> </div> <div id=""b-box""> <p class=""title-text"">B</p></div> <br> <div style='float: left;padding-left:30px;'><p>Press '1' for A</p></div><div style='float: right;padding-right:30px;'><p>Press '0' for B</p> </div> </div></div>","null","","","","","","","","","","","","","",""
"3291","","test","audio-keyboard-response","69","227141","0.0-8.0-1.21","LSPC001","condA","","resources/audio/wordStim/S9_AI_29_axb_Step-9.wav","48","","","","","AI","resources/audio/wordStim/S9_AI_29_axb_Step-9.wav","S9","29","axb","9","CN","0","0","true"
"null","","fixation","html-keyboard-response","70","227947","0.0-8.0-0.22","LSPC001","condA","","<div class=""vertical-center"" style='width:60%;'><p style='font-weight:bold;'>Does the middle word sound more like the first word (A) or the last word (B)?</p> <br> <div class=""container""> <div id=""a-box""> <p class=""title-text"">A</h3></p> </div> <div id=""x-box""> <p class=""title-text"">X<p> </div> <div id=""b-box""> <p class=""title-text"">B</p></div> <br> <div style='float: left;padding-left:30px;'><p>Press '1' for A</p></div><div style='float: right;padding-right:30px;'><p>Press '0' for B</p> </div> </div></div>","null","","","","","","","","","","","","","",""
"3653","","test","audio-keyboard-response","71","231600","0.0-8.0-1.22","LSPC001","condA","","resources/audio/wordStim/S3_AU_18_bxa_Step-4.wav","48","","","","","AU","resources/audio/wordStim/S3_AU_18_bxa_Step-4.wav","S3","18","bxa","4","MI","1","0","false"
"null","","fixation","html-keyboard-response","72","232403","0.0-8.0-0.23","LSPC001","condA","","<div class=""vertical-center"" style='width:60%;'><p style='font-weight:bold;'>Does the middle word sound more like the first word (A) or the last word (B)?</p> <br> <div class=""container""> <div id=""a-box""> <p class=""title-text"">A</h3></p> </div> <div id=""x-box""> <p class=""title-text"">X<p> </div> <div id=""b-box""> <p class=""title-text"">B</p></div> <br> <div style='float: left;padding-left:30px;'><p>Press '1' for A</p></div><div style='float: right;padding-right:30px;'><p>Press '0' for B</p> </div> </div></div>","null","","","","","","","","","","","","","",""
"3755","","test","audio-keyboard-response","73","236158","0.0-8.0-1.23","LSPC001","condA","","resources/audio/wordStim/S3_AU_17_bxa_Step-6.wav","49","","","","","AU","resources/audio/wordStim/S3_AU_17_bxa_Step-6.wav","S3","17","bxa","6","MI","1","1","true"
"null","","fixation","html-keyboard-response","74","236963","0.0-8.0-0.24","LSPC001","condA","","<div class=""vertical-center"" style='width:60%;'><p style='font-weight:bold;'>Does the middle word sound more like the first word (A) or the last word (B)?</p> <br> <div class=""container""> <div id=""a-box""> <p class=""title-text"">A</h3></p> </div> <div id=""x-box""> <p class=""title-text"">X<p> </div> <div id=""b-box""> <p class=""title-text"">B</p></div> <br> <div style='float: left;padding-left:30px;'><p>Press '1' for A</p></div><div style='float: right;padding-right:30px;'><p>Press '0' for B</p> </div> </div></div>","null","","","","","","","","","","","","","",""
"3181","","test","audio-keyboard-response","75","240142","0.0-8.0-1.24","LSPC001","condA","","resources/audio/wordStim/S3_AI_30_axb_Step-7.wav","48","","","","","AI","resources/audio/wordStim/S3_AI_30_axb_Step-7.wav","S3","30","axb","7","MI","0","0","true"
"null","","fixation","html-keyboard-response","76","240944","0.0-8.0-0.25","LSPC001","condA","","<div class=""vertical-center"" style='width:60%;'><p style='font-weight:bold;'>Does the middle word sound more like the first word (A) or the last word (B)?</p> <br> <div class=""container""> <div id=""a-box""> <p class=""title-text"">A</h3></p> </div> <div id=""x-box""> <p class=""title-text"">X<p> </div> <div id=""b-box""> <p class=""title-text"">B</p></div> <br> <div style='float: left;padding-left:30px;'><p>Press '1' for A</p></div><div style='float: right;padding-right:30px;'><p>Press '0' for B</p> </div> </div></div>","null","","","","","","","","","","","","","",""
"3267","","test","audio-keyboard-response","77","244208","0.0-8.0-1.25","LSPC001","condA","","resources/audio/wordStim/S9_AI_25_axb_Step-9.wav","48","","","","","AI","resources/audio/wordStim/S9_AI_25_axb_Step-9.wav","S9","25","axb","9","CN","0","0","true"
"null","","fixation","html-keyboard-response","78","245014","0.0-8.0-0.26","LSPC001","condA","","<div class=""vertical-center"" style='width:60%;'><p style='font-weight:bold;'>Does the middle word sound more like the first word (A) or the last word (B)?</p> <br> <div class=""container""> <div id=""a-box""> <p class=""title-text"">A</h3></p> </div> <div id=""x-box""> <p class=""title-text"">X<p> </div> <div id=""b-box""> <p class=""title-text"">B</p></div> <br> <div style='float: left;padding-left:30px;'><p>Press '1' for A</p></div><div style='float: right;padding-right:30px;'><p>Press '0' for B</p> </div> </div></div>","null","","","","","","","","","","","","","",""
"4259","","test","audio-keyboard-response","79","249270","0.0-8.0-1.26","LSPC001","condA","","resources/audio/wordStim/S3_AU_19_axb_Step-3.wav","49","","","","","AU","resources/audio/wordStim/S3_AU_19_axb_Step-3.wav","S3","19","axb","3","MI","0","1","false"
"1624","","break","html-keyboard-response","80","251398","0.0-8.0-2.26-0.26","LSPC001","condA","","<div class=""vertical-center""><p>Feel free to take a break!</p><i>When you're ready to continue, press SPACE to begin the next trial.</i></p></div>","32","","","","","","","","","","","","","",""
"null","","fixation","html-keyboard-response","81","251699","0.0-8.0-0.27","LSPC001","condA","","<div class=""vertical-center"" style='width:60%;'><p style='font-weight:bold;'>Does the middle word sound more like the first word (A) or the last word (B)?</p> <br> <div class=""container""> <div id=""a-box""> <p class=""title-text"">A</h3></p> </div> <div id=""x-box""> <p class=""title-text"">X<p> </div> <div id=""b-box""> <p class=""title-text"">B</p></div> <br> <div style='float: left;padding-left:30px;'><p>Press '1' for A</p></div><div style='float: right;padding-right:30px;'><p>Press '0' for B</p> </div> </div></div>","null","","","","","","","","","","","","","",""
"3133","","test","audio-keyboard-response","82","254830","0.0-8.0-1.27","LSPC001","condA","","resources/audio/wordStim/S3_AI_28_bxa_Step-6.wav","48","","","","","AI","resources/audio/wordStim/S3_AI_28_bxa_Step-6.wav","S3","28","bxa","6","MI","1","0","false"
"null","","fixation","html-keyboard-response","83","255632","0.0-8.0-0.28","LSPC001","condA","","<div class=""vertical-center"" style='width:60%;'><p style='font-weight:bold;'>Does the middle word sound more like the first word (A) or the last word (B)?</p> <br> <div class=""container""> <div id=""a-box""> <p class=""title-text"">A</h3></p> </div> <div id=""x-box""> <p class=""title-text"">X<p> </div> <div id=""b-box""> <p class=""title-text"">B</p></div> <br> <div style='float: left;padding-left:30px;'><p>Press '1' for A</p></div><div style='float: right;padding-right:30px;'><p>Press '0' for B</p> </div> </div></div>","null","","","","","","","","","","","","","",""
"3184","","test","audio-keyboard-response","84","258814","0.0-8.0-1.28","LSPC001","condA","","resources/audio/wordStim/S9_AU_13_bxa_Step-8.wav","49","","","","","AU","resources/audio/wordStim/S9_AU_13_bxa_Step-8.wav","S9","13","bxa","8","CN","1","1","true"
"null","","fixation","html-keyboard-response","85","259618","0.0-8.0-0.29","LSPC001","condA","","<div class=""vertical-center"" style='width:60%;'><p style='font-weight:bold;'>Does the middle word sound more like the first word (A) or the last word (B)?</p> <br> <div class=""container""> <div id=""a-box""> <p class=""title-text"">A</h3></p> </div> <div id=""x-box""> <p class=""title-text"">X<p> </div> <div id=""b-box""> <p class=""title-text"">B</p></div> <br> <div style='float: left;padding-left:30px;'><p>Press '1' for A</p></div><div style='float: right;padding-right:30px;'><p>Press '0' for B</p> </div> </div></div>","null","","","","","","","","","","","","","",""
"3925","","test","audio-keyboard-response","86","263542","0.0-8.0-1.29","LSPC001","condA","","resources/audio/wordStim/S3_AI_30_bxa_Step-4.wav","48","","","","","AI","resources/audio/wordStim/S3_AI_30_bxa_Step-4.wav","S3","30","bxa","4","MI","1","0","false"
"null","","fixation","html-keyboard-response","87","264344","0.0-8.0-0.30","LSPC001","condA","","<div class=""vertical-center"" style='width:60%;'><p style='font-weight:bold;'>Does the middle word sound more like the first word (A) or the last word (B)?</p> <br> <div class=""container""> <div id=""a-box""> <p class=""title-text"">A</h3></p> </div> <div id=""x-box""> <p class=""title-text"">X<p> </div> <div id=""b-box""> <p class=""title-text"">B</p></div> <br> <div style='float: left;padding-left:30px;'><p>Press '1' for A</p></div><div style='float: right;padding-right:30px;'><p>Press '0' for B</p> </div> </div></div>","null","","","","","","","","","","","","","",""
"3448","","test","audio-keyboard-response","88","267793","0.0-8.0-1.30","LSPC001","condA","","resources/audio/wordStim/S3_AI_29_axb_Step-10.wav","48","","","","","AI","resources/audio/wordStim/S3_AI_29_axb_Step-10.wav","S3","29","axb","10","MI","0","0","true"
"null","","fixation","html-keyboard-response","89","268602","0.0-8.0-0.31","LSPC001","condA","","<div class=""vertical-center"" style='width:60%;'><p style='font-weight:bold;'>Does the middle word sound more like the first word (A) or the last word (B)?</p> <br> <div class=""container""> <div id=""a-box""> <p class=""title-text"">A</h3></p> </div> <div id=""x-box""> <p class=""title-text"">X<p> </div> <div id=""b-box""> <p class=""title-text"">B</p></div> <br> <div style='float: left;padding-left:30px;'><p>Press '1' for A</p></div><div style='float: right;padding-right:30px;'><p>Press '0' for B</p> </div> </div></div>","null","","","","","","","","","","","","","",""
"3357","","test","audio-keyboard-response","90","271959","0.0-8.0-1.31","LSPC001","condA","","resources/audio/wordStim/S3_AI_21_bxa_Step-2.wav","48","","","","","AI","resources/audio/wordStim/S3_AI_21_bxa_Step-2.wav","S3","21","bxa","2","MI","1","0","false"
"null","","fixation","html-keyboard-response","91","272765","0.0-8.0-0.32","LSPC001","condA","","<div class=""vertical-center"" style='width:60%;'><p style='font-weight:bold;'>Does the middle word sound more like the first word (A) or the last word (B)?</p> <br> <div class=""container""> <div id=""a-box""> <p class=""title-text"">A</h3></p> </div> <div id=""x-box""> <p class=""title-text"">X<p> </div> <div id=""b-box""> <p class=""title-text"">B</p></div> <br> <div style='float: left;padding-left:30px;'><p>Press '1' for A</p></div><div style='float: right;padding-right:30px;'><p>Press '0' for B</p> </div> </div></div>","null","","","","","","","","","","","","","",""
"4317","","test","audio-keyboard-response","92","277081","0.0-8.0-1.32","LSPC001","condA","","resources/audio/wordStim/S9_AU_11_axb_Step-10.wav","48","","","","","AU","resources/audio/wordStim/S9_AU_11_axb_Step-10.wav","S9","11","axb","10","CN","0","0","true"
"null","","fixation","html-keyboard-response","93","277885","0.0-8.0-0.33","LSPC001","condA","","<div class=""vertical-center"" style='width:60%;'><p style='font-weight:bold;'>Does the middle word sound more like the first word (A) or the last word (B)?</p> <br> <div class=""container""> <div id=""a-box""> <p class=""title-text"">A</h3></p> </div> <div id=""x-box""> <p class=""title-text"">X<p> </div> <div id=""b-box""> <p class=""title-text"">B</p></div> <br> <div style='float: left;padding-left:30px;'><p>Press '1' for A</p></div><div style='float: right;padding-right:30px;'><p>Press '0' for B</p> </div> </div></div>","null","","","","","","","","","","","","","",""
"3208","","test","audio-keyboard-response","94","281094","0.0-8.0-1.33","LSPC001","condA","","resources/audio/wordStim/S9_AI_25_axb_Step-7.wav","48","","","","","AI","resources/audio/wordStim/S9_AI_25_axb_Step-7.wav","S9","25","axb","7","CN","0","0","true"
"null","","fixation","html-keyboard-response","95","281901","0.0-8.0-0.34","LSPC001","condA","","<div class=""vertical-center"" style='width:60%;'><p style='font-weight:bold;'>Does the middle word sound more like the first word (A) or the last word (B)?</p> <br> <div class=""container""> <div id=""a-box""> <p class=""title-text"">A</h3></p> </div> <div id=""x-box""> <p class=""title-text"">X<p> </div> <div id=""b-box""> <p class=""title-text"">B</p></div> <br> <div style='float: left;padding-left:30px;'><p>Press '1' for A</p></div><div style='float: right;padding-right:30px;'><p>Press '0' for B</p> </div> </div></div>","null","","","","","","","","","","","","","",""
"3461","","test","audio-keyboard-response","96","285362","0.0-8.0-1.34","LSPC001","condA","","resources/audio/wordStim/S3_AI_30_bxa_Step-2.wav","48","","","","","AI","resources/audio/wordStim/S3_AI_30_bxa_Step-2.wav","S3","30","bxa","2","MI","1","0","false"
"null","","fixation","html-keyboard-response","97","286165","0.0-8.0-0.35","LSPC001","condA","","<div class=""vertical-center"" style='width:60%;'><p style='font-weight:bold;'>Does the middle word sound more like the first word (A) or the last word (B)?</p> <br> <div class=""container""> <div id=""a-box""> <p class=""title-text"">A</h3></p> </div> <div id=""x-box""> <p class=""title-text"">X<p> </div> <div id=""b-box""> <p class=""title-text"">B</p></div> <br> <div style='float: left;padding-left:30px;'><p>Press '1' for A</p></div><div style='float: right;padding-right:30px;'><p>Press '0' for B</p> </div> </div></div>","null","","","","","","","","","","","","","",""
"3459","","test","audio-keyboard-response","98","289623","0.0-8.0-1.35","LSPC001","condA","","resources/audio/wordStim/S9_AI_22_axb_Step-3.wav","49","","","","","AI","resources/audio/wordStim/S9_AI_22_axb_Step-3.wav","S9","22","axb","3","CN","0","1","false"
"null","","fixation","html-keyboard-response","99","290429","0.0-8.0-0.36","LSPC001","condA","","<div class=""vertical-center"" style='width:60%;'><p style='font-weight:bold;'>Does the middle word sound more like the first word (A) or the last word (B)?</p> <br> <div class=""container""> <div id=""a-box""> <p class=""title-text"">A</h3></p> </div> <div id=""x-box""> <p class=""title-text"">X<p> </div> <div id=""b-box""> <p class=""title-text"">B</p></div> <br> <div style='float: left;padding-left:30px;'><p>Press '1' for A</p></div><div style='float: right;padding-right:30px;'><p>Press '0' for B</p> </div> </div></div>","null","","","","","","","","","","","","","",""
"3051","","test","audio-keyboard-response","100","293479","0.0-8.0-1.36","LSPC001","condA","","resources/audio/wordStim/S3_AU_19_axb_Step-5.wav","48","","","","","AU","resources/audio/wordStim/S3_AU_19_axb_Step-5.wav","S3","19","axb","5","MI","0","0","true"
"null","","fixation","html-keyboard-response","101","294282","0.0-8.0-0.37","LSPC001","condA","","<div class=""vertical-center"" style='width:60%;'><p style='font-weight:bold;'>Does the middle word sound more like the first word (A) or the last word (B)?</p> <br> <div class=""container""> <div id=""a-box""> <p class=""title-text"">A</h3></p> </div> <div id=""x-box""> <p class=""title-text"">X<p> </div> <div id=""b-box""> <p class=""title-text"">B</p></div> <br> <div style='float: left;padding-left:30px;'><p>Press '1' for A</p></div><div style='float: right;padding-right:30px;'><p>Press '0' for B</p> </div> </div></div>","null","","","","","","","","","","","","","",""
"3765","","test","audio-keyboard-response","102","298047","0.0-8.0-1.37","LSPC001","condA","","resources/audio/wordStim/S3_AI_28_axb_Step-3.wav","49","","","","","AI","resources/audio/wordStim/S3_AI_28_axb_Step-3.wav","S3","28","axb","3","MI","0","1","false"
"null","","fixation","html-keyboard-response","103","298850","0.0-8.0-0.38","LSPC001","condA","","<div class=""vertical-center"" style='width:60%;'><p style='font-weight:bold;'>Does the middle word sound more like the first word (A) or the last word (B)?</p> <br> <div class=""container""> <div id=""a-box""> <p class=""title-text"">A</h3></p> </div> <div id=""x-box""> <p class=""title-text"">X<p> </div> <div id=""b-box""> <p class=""title-text"">B</p></div> <br> <div style='float: left;padding-left:30px;'><p>Press '1' for A</p></div><div style='float: right;padding-right:30px;'><p>Press '0' for B</p> </div> </div></div>","null","","","","","","","","","","","","","",""
"3184","","test","audio-keyboard-response","104","302033","0.0-8.0-1.38","LSPC001","condA","","resources/audio/wordStim/S9_AU_16_axb_Step-3.wav","49","","","","","AU","resources/audio/wordStim/S9_AU_16_axb_Step-3.wav","S9","16","axb","3","CN","0","1","false"
"null","","fixation","html-keyboard-response","105","302837","0.0-8.0-0.39","LSPC001","condA","","<div class=""vertical-center"" style='width:60%;'><p style='font-weight:bold;'>Does the middle word sound more like the first word (A) or the last word (B)?</p> <br> <div class=""container""> <div id=""a-box""> <p class=""title-text"">A</h3></p> </div> <div id=""x-box""> <p class=""title-text"">X<p> </div> <div id=""b-box""> <p class=""title-text"">B</p></div> <br> <div style='float: left;padding-left:30px;'><p>Press '1' for A</p></div><div style='float: right;padding-right:30px;'><p>Press '0' for B</p> </div> </div></div>","null","","","","","","","","","","","","","",""
"3632","","test","audio-keyboard-response","106","306472","0.0-8.0-1.39","LSPC001","condA","","resources/audio/wordStim/S3_AU_20_bxa_Step-8.wav","49","","","","","AU","resources/audio/wordStim/S3_AU_20_bxa_Step-8.wav","S3","20","bxa","8","MI","1","1","true"
"null","","fixation","html-keyboard-response","107","307277","0.0-8.0-0.40","LSPC001","condA","","<div class=""vertical-center"" style='width:60%;'><p style='font-weight:bold;'>Does the middle word sound more like the first word (A) or the last word (B)?</p> <br> <div class=""container""> <div id=""a-box""> <p class=""title-text"">A</h3></p> </div> <div id=""x-box""> <p class=""title-text"">X<p> </div> <div id=""b-box""> <p class=""title-text"">B</p></div> <br> <div style='float: left;padding-left:30px;'><p>Press '1' for A</p></div><div style='float: right;padding-right:30px;'><p>Press '0' for B</p> </div> </div></div>","null","","","","","","","","","","","","","",""
"5029","","test","audio-keyboard-response","108","312306","0.0-8.0-1.40","LSPC001","condA","","resources/audio/wordStim/S9_AU_14_bxa_Step-8.wav","49","","","","","AU","resources/audio/wordStim/S9_AU_14_bxa_Step-8.wav","S9","14","bxa","8","CN","1","1","true"
"null","","fixation","html-keyboard-response","109","313111","0.0-8.0-0.41","LSPC001","condA","","<div class=""vertical-center"" style='width:60%;'><p style='font-weight:bold;'>Does the middle word sound more like the first word (A) or the last word (B)?</p> <br> <div class=""container""> <div id=""a-box""> <p class=""title-text"">A</h3></p> </div> <div id=""x-box""> <p class=""title-text"">X<p> </div> <div id=""b-box""> <p class=""title-text"">B</p></div> <br> <div style='float: left;padding-left:30px;'><p>Press '1' for A</p></div><div style='float: right;padding-right:30px;'><p>Press '0' for B</p> </div> </div></div>","null","","","","","","","","","","","","","",""
"3312","","test","audio-keyboard-response","110","316424","0.0-8.0-1.41","LSPC001","condA","","resources/audio/wordStim/S3_AI_29_bxa_Step-2.wav","48","","","","","AI","resources/audio/wordStim/S3_AI_29_bxa_Step-2.wav","S3","29","bxa","2","MI","1","0","false"
"null","","fixation","html-keyboard-response","111","317226","0.0-8.0-0.42","LSPC001","condA","","<div class=""vertical-center"" style='width:60%;'><p style='font-weight:bold;'>Does the middle word sound more like the first word (A) or the last word (B)?</p> <br> <div class=""container""> <div id=""a-box""> <p class=""title-text"">A</h3></p> </div> <div id=""x-box""> <p class=""title-text"">X<p> </div> <div id=""b-box""> <p class=""title-text"">B</p></div> <br> <div style='float: left;padding-left:30px;'><p>Press '1' for A</p></div><div style='float: right;padding-right:30px;'><p>Press '0' for B</p> </div> </div></div>","null","","","","","","","","","","","","","",""
"3232","","test","audio-keyboard-response","112","320458","0.0-8.0-1.42","LSPC001","condA","","resources/audio/wordStim/S9_AI_30_axb_Step-7.wav","48","","","","","AI","resources/audio/wordStim/S9_AI_30_axb_Step-7.wav","S9","30","axb","7","CN","0","0","true"
"null","","fixation","html-keyboard-response","113","321263","0.0-8.0-0.43","LSPC001","condA","","<div class=""vertical-center"" style='width:60%;'><p style='font-weight:bold;'>Does the middle word sound more like the first word (A) or the last word (B)?</p> <br> <div class=""container""> <div id=""a-box""> <p class=""title-text"">A</h3></p> </div> <div id=""x-box""> <p class=""title-text"">X<p> </div> <div id=""b-box""> <p class=""title-text"">B</p></div> <br> <div style='float: left;padding-left:30px;'><p>Press '1' for A</p></div><div style='float: right;padding-right:30px;'><p>Press '0' for B</p> </div> </div></div>","null","","","","","","","","","","","","","",""
"12808","","test","audio-keyboard-response","114","334104","0.0-8.0-1.43","LSPC001","condA","","resources/audio/wordStim/S9_AU_14_axb_Step-3.wav","48","","","","","AU","resources/audio/wordStim/S9_AU_14_axb_Step-3.wav","S9","14","axb","3","CN","0","0","true"
"null","","fixation","html-keyboard-response","115","334909","0.0-8.0-0.44","LSPC001","condA","","<div class=""vertical-center"" style='width:60%;'><p style='font-weight:bold;'>Does the middle word sound more like the first word (A) or the last word (B)?</p> <br> <div class=""container""> <div id=""a-box""> <p class=""title-text"">A</h3></p> </div> <div id=""x-box""> <p class=""title-text"">X<p> </div> <div id=""b-box""> <p class=""title-text"">B</p></div> <br> <div style='float: left;padding-left:30px;'><p>Press '1' for A</p></div><div style='float: right;padding-right:30px;'><p>Press '0' for B</p> </div> </div></div>","null","","","","","","","","","","","","","",""
"3477","","test","audio-keyboard-response","116","338384","0.0-8.0-1.44","LSPC001","condA","","resources/audio/wordStim/S9_AI_29_axb_Step-3.wav","49","","","","","AI","resources/audio/wordStim/S9_AI_29_axb_Step-3.wav","S9","29","axb","3","CN","0","1","false"
"null","","fixation","html-keyboard-response","117","339188","0.0-8.0-0.45","LSPC001","condA","","<div class=""vertical-center"" style='width:60%;'><p style='font-weight:bold;'>Does the middle word sound more like the first word (A) or the last word (B)?</p> <br> <div class=""container""> <div id=""a-box""> <p class=""title-text"">A</h3></p> </div> <div id=""x-box""> <p class=""title-text"">X<p> </div> <div id=""b-box""> <p class=""title-text"">B</p></div> <br> <div style='float: left;padding-left:30px;'><p>Press '1' for A</p></div><div style='float: right;padding-right:30px;'><p>Press '0' for B</p> </div> </div></div>","null","","","","","","","","","","","","","",""
"3027","","test","audio-keyboard-response","118","342216","0.0-8.0-1.45","LSPC001","condA","","resources/audio/wordStim/S9_AI_23_axb_Step-3.wav","48","","","","","AI","resources/audio/wordStim/S9_AI_23_axb_Step-3.wav","S9","23","axb","3","CN","0","0","true"
"null","","fixation","html-keyboard-response","119","343018","0.0-8.0-0.46","LSPC001","condA","","<div class=""vertical-center"" style='width:60%;'><p style='font-weight:bold;'>Does the middle word sound more like the first word (A) or the last word (B)?</p> <br> <div class=""container""> <div id=""a-box""> <p class=""title-text"">A</h3></p> </div> <div id=""x-box""> <p class=""title-text"">X<p> </div> <div id=""b-box""> <p class=""title-text"">B</p></div> <br> <div style='float: left;padding-left:30px;'><p>Press '1' for A</p></div><div style='float: right;padding-right:30px;'><p>Press '0' for B</p> </div> </div></div>","null","","","","","","","","","","","","","",""
"2667","","test","audio-keyboard-response","120","345684","0.0-8.0-1.46","LSPC001","condA","","resources/audio/wordStim/S3_AI_21_bxa_Step-6.wav","48","","","","","AI","resources/audio/wordStim/S3_AI_21_bxa_Step-6.wav","S3","21","bxa","6","MI","1","0","false"
"null","","fixation","html-keyboard-response","121","346487","0.0-8.0-0.47","LSPC001","condA","","<div class=""vertical-center"" style='width:60%;'><p style='font-weight:bold;'>Does the middle word sound more like the first word (A) or the last word (B)?</p> <br> <div class=""container""> <div id=""a-box""> <p class=""title-text"">A</h3></p> </div> <div id=""x-box""> <p class=""title-text"">X<p> </div> <div id=""b-box""> <p class=""title-text"">B</p></div> <br> <div style='float: left;padding-left:30px;'><p>Press '1' for A</p></div><div style='float: right;padding-right:30px;'><p>Press '0' for B</p> </div> </div></div>","null","","","","","","","","","","","","","",""
"3171","","test","audio-keyboard-response","122","349656","0.0-8.0-1.47","LSPC001","condA","","resources/audio/wordStim/S9_AU_19_axb_Step-3.wav","49","","","","","AU","resources/audio/wordStim/S9_AU_19_axb_Step-3.wav","S9","19","axb","3","CN","0","1","false"
"null","","fixation","html-keyboard-response","123","350461","0.0-8.0-0.48","LSPC001","condA","","<div class=""vertical-center"" style='width:60%;'><p style='font-weight:bold;'>Does the middle word sound more like the first word (A) or the last word (B)?</p> <br> <div class=""container""> <div id=""a-box""> <p class=""title-text"">A</h3></p> </div> <div id=""x-box""> <p class=""title-text"">X<p> </div> <div id=""b-box""> <p class=""title-text"">B</p></div> <br> <div style='float: left;padding-left:30px;'><p>Press '1' for A</p></div><div style='float: right;padding-right:30px;'><p>Press '0' for B</p> </div> </div></div>","null","","","","","","","","","","","","","",""
"3120","","test","audio-keyboard-response","124","353580","0.0-8.0-1.48","LSPC001","condA","","resources/audio/wordStim/S9_AI_24_axb_Step-5.wav","49","","","","","AI","resources/audio/wordStim/S9_AI_24_axb_Step-5.wav","S9","24","axb","5","CN","0","1","false"
"null","","fixation","html-keyboard-response","125","354389","0.0-8.0-0.49","LSPC001","condA","","<div class=""vertical-center"" style='width:60%;'><p style='font-weight:bold;'>Does the middle word sound more like the first word (A) or the last word (B)?</p> <br> <div class=""container""> <div id=""a-box""> <p class=""title-text"">A</h3></p> </div> <div id=""x-box""> <p class=""title-text"">X<p> </div> <div id=""b-box""> <p class=""title-text"">B</p></div> <br> <div style='float: left;padding-left:30px;'><p>Press '1' for A</p></div><div style='float: right;padding-right:30px;'><p>Press '0' for B</p> </div> </div></div>","null","","","","","","","","","","","","","",""
"3651","","test","audio-keyboard-response","126","358041","0.0-8.0-1.49","LSPC001","condA","","resources/audio/wordStim/S3_AU_18_bxa_Step-8.wav","49","","","","","AU","resources/audio/wordStim/S3_AU_18_bxa_Step-8.wav","S3","18","bxa","8","MI","1","1","true"
"null","","fixation","html-keyboard-response","127","358847","0.0-8.0-0.50","LSPC001","condA","","<div class=""vertical-center"" style='width:60%;'><p style='font-weight:bold;'>Does the middle word sound more like the first word (A) or the last word (B)?</p> <br> <div class=""container""> <div id=""a-box""> <p class=""title-text"">A</h3></p> </div> <div id=""x-box""> <p class=""title-text"">X<p> </div> <div id=""b-box""> <p class=""title-text"">B</p></div> <br> <div style='float: left;padding-left:30px;'><p>Press '1' for A</p></div><div style='float: right;padding-right:30px;'><p>Press '0' for B</p> </div> </div></div>","null","","","","","","","","","","","","","",""
"3237","","test","audio-keyboard-response","128","362083","0.0-8.0-1.50","LSPC001","condA","","resources/audio/wordStim/S9_AI_27_axb_Step-3.wav","49","","","","","AI","resources/audio/wordStim/S9_AI_27_axb_Step-3.wav","S9","27","axb","3","CN","0","1","false"
"null","","fixation","html-keyboard-response","129","362887","0.0-8.0-0.51","LSPC001","condA","","<div class=""vertical-center"" style='width:60%;'><p style='font-weight:bold;'>Does the middle word sound more like the first word (A) or the last word (B)?</p> <br> <div class=""container""> <div id=""a-box""> <p class=""title-text"">A</h3></p> </div> <div id=""x-box""> <p class=""title-text"">X<p> </div> <div id=""b-box""> <p class=""title-text"">B</p></div> <br> <div style='float: left;padding-left:30px;'><p>Press '1' for A</p></div><div style='float: right;padding-right:30px;'><p>Press '0' for B</p> </div> </div></div>","null","","","","","","","","","","","","","",""
"4600","","test","audio-keyboard-response","130","367489","0.0-8.0-1.51","LSPC001","condA","","resources/audio/wordStim/S9_AI_27_axb_Step-5.wav","49","","","","","AI","resources/audio/wordStim/S9_AI_27_axb_Step-5.wav","S9","27","axb","5","CN","0","1","false"
"null","","fixation","html-keyboard-response","131","368295","0.0-8.0-0.52","LSPC001","condA","","<div class=""vertical-center"" style='width:60%;'><p style='font-weight:bold;'>Does the middle word sound more like the first word (A) or the last word (B)?</p> <br> <div class=""container""> <div id=""a-box""> <p class=""title-text"">A</h3></p> </div> <div id=""x-box""> <p class=""title-text"">X<p> </div> <div id=""b-box""> <p class=""title-text"">B</p></div> <br> <div style='float: left;padding-left:30px;'><p>Press '1' for A</p></div><div style='float: right;padding-right:30px;'><p>Press '0' for B</p> </div> </div></div>","null","","","","","","","","","","","","","",""
"2907","","test","audio-keyboard-response","132","371200","0.0-8.0-1.52","LSPC001","condA","","resources/audio/wordStim/S3_AU_19_axb_Step-10.wav","48","","","","","AU","resources/audio/wordStim/S3_AU_19_axb_Step-10.wav","S3","19","axb","10","MI","0","0","true"
"null","","fixation","html-keyboard-response","133","372005","0.0-8.0-0.53","LSPC001","condA","","<div class=""vertical-center"" style='width:60%;'><p style='font-weight:bold;'>Does the middle word sound more like the first word (A) or the last word (B)?</p> <br> <div class=""container""> <div id=""a-box""> <p class=""title-text"">A</h3></p> </div> <div id=""x-box""> <p class=""title-text"">X<p> </div> <div id=""b-box""> <p class=""title-text"">B</p></div> <br> <div style='float: left;padding-left:30px;'><p>Press '1' for A</p></div><div style='float: right;padding-right:30px;'><p>Press '0' for B</p> </div> </div></div>","null","","","","","","","","","","","","","",""
"3408","","test","audio-keyboard-response","134","375411","0.0-8.0-1.53","LSPC001","condA","","resources/audio/wordStim/S3_AI_28_axb_Step-10.wav","48","","","","","AI","resources/audio/wordStim/S3_AI_28_axb_Step-10.wav","S3","28","axb","10","MI","0","0","true"
"1174","","break","html-keyboard-response","135","377089","0.0-8.0-2.53-0.53","LSPC001","condA","","<div class=""vertical-center""><p>Feel free to take a break!</p><i>When you're ready to continue, press SPACE to begin the next trial.</i></p></div>","32","","","","","","","","","","","","","",""
"null","","fixation","html-keyboard-response","136","377391","0.0-8.0-0.54","LSPC001","condA","","<div class=""vertical-center"" style='width:60%;'><p style='font-weight:bold;'>Does the middle word sound more like the first word (A) or the last word (B)?</p> <br> <div class=""container""> <div id=""a-box""> <p class=""title-text"">A</h3></p> </div> <div id=""x-box""> <p class=""title-text"">X<p> </div> <div id=""b-box""> <p class=""title-text"">B</p></div> <br> <div style='float: left;padding-left:30px;'><p>Press '1' for A</p></div><div style='float: right;padding-right:30px;'><p>Press '0' for B</p> </div> </div></div>","null","","","","","","","","","","","","","",""
"3603","","test","audio-keyboard-response","137","380993","0.0-8.0-1.54","LSPC001","condA","","resources/audio/wordStim/S9_AI_30_axb_Step-5.wav","49","","","","","AI","resources/audio/wordStim/S9_AI_30_axb_Step-5.wav","S9","30","axb","5","CN","0","1","false"
"null","","fixation","html-keyboard-response","138","381797","0.0-8.0-0.55","LSPC001","condA","","<div class=""vertical-center"" style='width:60%;'><p style='font-weight:bold;'>Does the middle word sound more like the first word (A) or the last word (B)?</p> <br> <div class=""container""> <div id=""a-box""> <p class=""title-text"">A</h3></p> </div> <div id=""x-box""> <p class=""title-text"">X<p> </div> <div id=""b-box""> <p class=""title-text"">B</p></div> <br> <div style='float: left;padding-left:30px;'><p>Press '1' for A</p></div><div style='float: right;padding-right:30px;'><p>Press '0' for B</p> </div> </div></div>","null","","","","","","","","","","","","","",""
"3200","","test","audio-keyboard-response","139","384995","0.0-8.0-1.55","LSPC001","condA","","resources/audio/wordStim/S9_AI_24_bxa_Step-4.wav","49","","","","","AI","resources/audio/wordStim/S9_AI_24_bxa_Step-4.wav","S9","24","bxa","4","CN","1","1","true"
"null","","fixation","html-keyboard-response","140","385798","0.0-8.0-0.56","LSPC001","condA","","<div class=""vertical-center"" style='width:60%;'><p style='font-weight:bold;'>Does the middle word sound more like the first word (A) or the last word (B)?</p> <br> <div class=""container""> <div id=""a-box""> <p class=""title-text"">A</h3></p> </div> <div id=""x-box""> <p class=""title-text"">X<p> </div> <div id=""b-box""> <p class=""title-text"">B</p></div> <br> <div style='float: left;padding-left:30px;'><p>Press '1' for A</p></div><div style='float: right;padding-right:30px;'><p>Press '0' for B</p> </div> </div></div>","null","","","","","","","","","","","","","",""
"3163","","test","audio-keyboard-response","141","388961","0.0-8.0-1.56","LSPC001","condA","","resources/audio/wordStim/S9_AU_20_axb_Step-3.wav","48","","","","","AU","resources/audio/wordStim/S9_AU_20_axb_Step-3.wav","S9","20","axb","3","CN","0","0","true"
"null","","fixation","html-keyboard-response","142","389768","0.0-8.0-0.57","LSPC001","condA","","<div class=""vertical-center"" style='width:60%;'><p style='font-weight:bold;'>Does the middle word sound more like the first word (A) or the last word (B)?</p> <br> <div class=""container""> <div id=""a-box""> <p class=""title-text"">A</h3></p> </div> <div id=""x-box""> <p class=""title-text"">X<p> </div> <div id=""b-box""> <p class=""title-text"">B</p></div> <br> <div style='float: left;padding-left:30px;'><p>Press '1' for A</p></div><div style='float: right;padding-right:30px;'><p>Press '0' for B</p> </div> </div></div>","null","","","","","","","","","","","","","",""
"4619","","test","audio-keyboard-response","143","394387","0.0-8.0-1.57","LSPC001","condA","","resources/audio/wordStim/S9_AU_14_bxa_Step-4.wav","48","","","","","AU","resources/audio/wordStim/S9_AU_14_bxa_Step-4.wav","S9","14","bxa","4","CN","1","0","false"
"null","","fixation","html-keyboard-response","144","395196","0.0-8.0-0.58","LSPC001","condA","","<div class=""vertical-center"" style='width:60%;'><p style='font-weight:bold;'>Does the middle word sound more like the first word (A) or the last word (B)?</p> <br> <div class=""container""> <div id=""a-box""> <p class=""title-text"">A</h3></p> </div> <div id=""x-box""> <p class=""title-text"">X<p> </div> <div id=""b-box""> <p class=""title-text"">B</p></div> <br> <div style='float: left;padding-left:30px;'><p>Press '1' for A</p></div><div style='float: right;padding-right:30px;'><p>Press '0' for B</p> </div> </div></div>","null","","","","","","","","","","","","","",""
"2965","","test","audio-keyboard-response","145","398161","0.0-8.0-1.58","LSPC001","condA","","resources/audio/wordStim/S3_AU_20_axb_Step-9.wav","48","","","","","AU","resources/audio/wordStim/S3_AU_20_axb_Step-9.wav","S3","20","axb","9","MI","0","0","true"
"null","","fixation","html-keyboard-response","146","398970","0.0-8.0-0.59","LSPC001","condA","","<div class=""vertical-center"" style='width:60%;'><p style='font-weight:bold;'>Does the middle word sound more like the first word (A) or the last word (B)?</p> <br> <div class=""container""> <div id=""a-box""> <p class=""title-text"">A</h3></p> </div> <div id=""x-box""> <p class=""title-text"">X<p> </div> <div id=""b-box""> <p class=""title-text"">B</p></div> <br> <div style='float: left;padding-left:30px;'><p>Press '1' for A</p></div><div style='float: right;padding-right:30px;'><p>Press '0' for B</p> </div> </div></div>","null","","","","","","","","","","","","","",""
"3541","","test","audio-keyboard-response","147","402514","0.0-8.0-1.59","LSPC001","condA","","resources/audio/wordStim/S9_AI_29_bxa_Step-4.wav","49","","","","","AI","resources/audio/wordStim/S9_AI_29_bxa_Step-4.wav","S9","29","bxa","4","CN","1","1","true"
"null","","fixation","html-keyboard-response","148","403318","0.0-8.0-0.60","LSPC001","condA","","<div class=""vertical-center"" style='width:60%;'><p style='font-weight:bold;'>Does the middle word sound more like the first word (A) or the last word (B)?</p> <br> <div class=""container""> <div id=""a-box""> <p class=""title-text"">A</h3></p> </div> <div id=""x-box""> <p class=""title-text"">X<p> </div> <div id=""b-box""> <p class=""title-text"">B</p></div> <br> <div style='float: left;padding-left:30px;'><p>Press '1' for A</p></div><div style='float: right;padding-right:30px;'><p>Press '0' for B</p> </div> </div></div>","null","","","","","","","","","","","","","",""
"3389","","test","audio-keyboard-response","149","406706","0.0-8.0-1.60","LSPC001","condA","","resources/audio/wordStim/S9_AI_23_axb_Step-7.wav","48","","","","","AI","resources/audio/wordStim/S9_AI_23_axb_Step-7.wav","S9","23","axb","7","CN","0","0","true"
"null","","fixation","html-keyboard-response","150","407508","0.0-8.0-0.61","LSPC001","condA","","<div class=""vertical-center"" style='width:60%;'><p style='font-weight:bold;'>Does the middle word sound more like the first word (A) or the last word (B)?</p> <br> <div class=""container""> <div id=""a-box""> <p class=""title-text"">A</h3></p> </div> <div id=""x-box""> <p class=""title-text"">X<p> </div> <div id=""b-box""> <p class=""title-text"">B</p></div> <br> <div style='float: left;padding-left:30px;'><p>Press '1' for A</p></div><div style='float: right;padding-right:30px;'><p>Press '0' for B</p> </div> </div></div>","null","","","","","","","","","","","","","",""
"3728","","test","audio-keyboard-response","151","411236","0.0-8.0-1.61","LSPC001","condA","","resources/audio/wordStim/S3_AU_18_bxa_Step-2.wav","48","","","","","AU","resources/audio/wordStim/S3_AU_18_bxa_Step-2.wav","S3","18","bxa","2","MI","1","0","false"
"null","","fixation","html-keyboard-response","152","412038","0.0-8.0-0.62","LSPC001","condA","","<div class=""vertical-center"" style='width:60%;'><p style='font-weight:bold;'>Does the middle word sound more like the first word (A) or the last word (B)?</p> <br> <div class=""container""> <div id=""a-box""> <p class=""title-text"">A</h3></p> </div> <div id=""x-box""> <p class=""title-text"">X<p> </div> <div id=""b-box""> <p class=""title-text"">B</p></div> <br> <div style='float: left;padding-left:30px;'><p>Press '1' for A</p></div><div style='float: right;padding-right:30px;'><p>Press '0' for B</p> </div> </div></div>","null","","","","","","","","","","","","","",""
"3749","","test","audio-keyboard-response","153","415785","0.0-8.0-1.62","LSPC001","condA","","resources/audio/wordStim/S3_AU_18_axb_Step-3.wav","49","","","","","AU","resources/audio/wordStim/S3_AU_18_axb_Step-3.wav","S3","18","axb","3","MI","0","1","false"
"null","","fixation","html-keyboard-response","154","416588","0.0-8.0-0.63","LSPC001","condA","","<div class=""vertical-center"" style='width:60%;'><p style='font-weight:bold;'>Does the middle word sound more like the first word (A) or the last word (B)?</p> <br> <div class=""container""> <div id=""a-box""> <p class=""title-text"">A</h3></p> </div> <div id=""x-box""> <p class=""title-text"">X<p> </div> <div id=""b-box""> <p class=""title-text"">B</p></div> <br> <div style='float: left;padding-left:30px;'><p>Press '1' for A</p></div><div style='float: right;padding-right:30px;'><p>Press '0' for B</p> </div> </div></div>","null","","","","","","","","","","","","","",""
"3304","","test","audio-keyboard-response","155","419889","0.0-8.0-1.63","LSPC001","condA","","resources/audio/wordStim/S3_AU_15_bxa_Step-8.wav","48","","","","","AU","resources/audio/wordStim/S3_AU_15_bxa_Step-8.wav","S3","15","bxa","8","MI","1","0","false"
"null","","fixation","html-keyboard-response","156","420692","0.0-8.0-0.64","LSPC001","condA","","<div class=""vertical-center"" style='width:60%;'><p style='font-weight:bold;'>Does the middle word sound more like the first word (A) or the last word (B)?</p> <br> <div class=""container""> <div id=""a-box""> <p class=""title-text"">A</h3></p> </div> <div id=""x-box""> <p class=""title-text"">X<p> </div> <div id=""b-box""> <p class=""title-text"">B</p></div> <br> <div style='float: left;padding-left:30px;'><p>Press '1' for A</p></div><div style='float: right;padding-right:30px;'><p>Press '0' for B</p> </div> </div></div>","null","","","","","","","","","","","","","",""
"2952","","test","audio-keyboard-response","157","423642","0.0-8.0-1.64","LSPC001","condA","","resources/audio/wordStim/S3_AU_15_bxa_Step-6.wav","49","","","","","AU","resources/audio/wordStim/S3_AU_15_bxa_Step-6.wav","S3","15","bxa","6","MI","1","1","true"
"null","","fixation","html-keyboard-response","158","424447","0.0-8.0-0.65","LSPC001","condA","","<div class=""vertical-center"" style='width:60%;'><p style='font-weight:bold;'>Does the middle word sound more like the first word (A) or the last word (B)?</p> <br> <div class=""container""> <div id=""a-box""> <p class=""title-text"">A</h3></p> </div> <div id=""x-box""> <p class=""title-text"">X<p> </div> <div id=""b-box""> <p class=""title-text"">B</p></div> <br> <div style='float: left;padding-left:30px;'><p>Press '1' for A</p></div><div style='float: right;padding-right:30px;'><p>Press '0' for B</p> </div> </div></div>","null","","","","","","","","","","","","","",""
"4061","","test","audio-keyboard-response","159","428506","0.0-8.0-1.65","LSPC001","condA","","resources/audio/wordStim/S3_AU_16_bxa_Step-4.wav","48","","","","","AU","resources/audio/wordStim/S3_AU_16_bxa_Step-4.wav","S3","16","bxa","4","MI","1","0","false"
"null","","fixation","html-keyboard-response","160","429310","0.0-8.0-0.66","LSPC001","condA","","<div class=""vertical-center"" style='width:60%;'><p style='font-weight:bold;'>Does the middle word sound more like the first word (A) or the last word (B)?</p> <br> <div class=""container""> <div id=""a-box""> <p class=""title-text"">A</h3></p> </div> <div id=""x-box""> <p class=""title-text"">X<p> </div> <div id=""b-box""> <p class=""title-text"">B</p></div> <br> <div style='float: left;padding-left:30px;'><p>Press '1' for A</p></div><div style='float: right;padding-right:30px;'><p>Press '0' for B</p> </div> </div></div>","null","","","","","","","","","","","","","",""
"3032","","test","audio-keyboard-response","161","432341","0.0-8.0-1.66","LSPC001","condA","","resources/audio/wordStim/S9_AU_17_bxa_Step-2.wav","48","","","","","AU","resources/audio/wordStim/S9_AU_17_bxa_Step-2.wav","S9","17","bxa","2","CN","1","0","false"
"null","","fixation","html-keyboard-response","162","433143","0.0-8.0-0.67","LSPC001","condA","","<div class=""vertical-center"" style='width:60%;'><p style='font-weight:bold;'>Does the middle word sound more like the first word (A) or the last word (B)?</p> <br> <div class=""container""> <div id=""a-box""> <p class=""title-text"">A</h3></p> </div> <div id=""x-box""> <p class=""title-text"">X<p> </div> <div id=""b-box""> <p class=""title-text"">B</p></div> <br> <div style='float: left;padding-left:30px;'><p>Press '1' for A</p></div><div style='float: right;padding-right:30px;'><p>Press '0' for B</p> </div> </div></div>","null","","","","","","","","","","","","","",""
"2939","","test","audio-keyboard-response","163","436082","0.0-8.0-1.67","LSPC001","condA","","resources/audio/wordStim/S9_AU_16_bxa_Step-2.wav","48","","","","","AU","resources/audio/wordStim/S9_AU_16_bxa_Step-2.wav","S9","16","bxa","2","CN","1","0","false"
"null","","fixation","html-keyboard-response","164","436891","0.0-8.0-0.68","LSPC001","condA","","<div class=""vertical-center"" style='width:60%;'><p style='font-weight:bold;'>Does the middle word sound more like the first word (A) or the last word (B)?</p> <br> <div class=""container""> <div id=""a-box""> <p class=""title-text"">A</h3></p> </div> <div id=""x-box""> <p class=""title-text"">X<p> </div> <div id=""b-box""> <p class=""title-text"">B</p></div> <br> <div style='float: left;padding-left:30px;'><p>Press '1' for A</p></div><div style='float: right;padding-right:30px;'><p>Press '0' for B</p> </div> </div></div>","null","","","","","","","","","","","","","",""
"2939","","test","audio-keyboard-response","165","439829","0.0-8.0-1.68","LSPC001","condA","","resources/audio/wordStim/S3_AI_25_bxa_Step-4.wav","48","","","","","AI","resources/audio/wordStim/S3_AI_25_bxa_Step-4.wav","S3","25","bxa","4","MI","1","0","false"
"null","","fixation","html-keyboard-response","166","440633","0.0-8.0-0.69","LSPC001","condA","","<div class=""vertical-center"" style='width:60%;'><p style='font-weight:bold;'>Does the middle word sound more like the first word (A) or the last word (B)?</p> <br> <div class=""container""> <div id=""a-box""> <p class=""title-text"">A</h3></p> </div> <div id=""x-box""> <p class=""title-text"">X<p> </div> <div id=""b-box""> <p class=""title-text"">B</p></div> <br> <div style='float: left;padding-left:30px;'><p>Press '1' for A</p></div><div style='float: right;padding-right:30px;'><p>Press '0' for B</p> </div> </div></div>","null","","","","","","","","","","","","","",""
"4659","","test","audio-keyboard-response","167","445291","0.0-8.0-1.69","LSPC001","condA","","resources/audio/wordStim/S3_AI_23_bxa_Step-4.wav","48","","","","","AI","resources/audio/wordStim/S3_AI_23_bxa_Step-4.wav","S3","23","bxa","4","MI","1","0","false"
"null","","fixation","html-keyboard-response","168","446097","0.0-8.0-0.70","LSPC001","condA","","<div class=""vertical-center"" style='width:60%;'><p style='font-weight:bold;'>Does the middle word sound more like the first word (A) or the last word (B)?</p> <br> <div class=""container""> <div id=""a-box""> <p class=""title-text"">A</h3></p> </div> <div id=""x-box""> <p class=""title-text"">X<p> </div> <div id=""b-box""> <p class=""title-text"">B</p></div> <br> <div style='float: left;padding-left:30px;'><p>Press '1' for A</p></div><div style='float: right;padding-right:30px;'><p>Press '0' for B</p> </div> </div></div>","null","","","","","","","","","","","","","",""
"3837","","test","audio-keyboard-response","169","449934","0.0-8.0-1.70","LSPC001","condA","","resources/audio/wordStim/S9_AI_24_bxa_Step-2.wav","48","","","","","AI","resources/audio/wordStim/S9_AI_24_bxa_Step-2.wav","S9","24","bxa","2","CN","1","0","false"
"null","","fixation","html-keyboard-response","170","450737","0.0-8.0-0.71","LSPC001","condA","","<div class=""vertical-center"" style='width:60%;'><p style='font-weight:bold;'>Does the middle word sound more like the first word (A) or the last word (B)?</p> <br> <div class=""container""> <div id=""a-box""> <p class=""title-text"">A</h3></p> </div> <div id=""x-box""> <p class=""title-text"">X<p> </div> <div id=""b-box""> <p class=""title-text"">B</p></div> <br> <div style='float: left;padding-left:30px;'><p>Press '1' for A</p></div><div style='float: right;padding-right:30px;'><p>Press '0' for B</p> </div> </div></div>","null","","","","","","","","","","","","","",""
"3024","","test","audio-keyboard-response","171","453763","0.0-8.0-1.71","LSPC001","condA","","resources/audio/wordStim/S9_AU_16_bxa_Step-4.wav","48","","","","","AU","resources/audio/wordStim/S9_AU_16_bxa_Step-4.wav","S9","16","bxa","4","CN","1","0","false"
"null","","fixation","html-keyboard-response","172","454569","0.0-8.0-0.72","LSPC001","condA","","<div class=""vertical-center"" style='width:60%;'><p style='font-weight:bold;'>Does the middle word sound more like the first word (A) or the last word (B)?</p> <br> <div class=""container""> <div id=""a-box""> <p class=""title-text"">A</h3></p> </div> <div id=""x-box""> <p class=""title-text"">X<p> </div> <div id=""b-box""> <p class=""title-text"">B</p></div> <br> <div style='float: left;padding-left:30px;'><p>Press '1' for A</p></div><div style='float: right;padding-right:30px;'><p>Press '0' for B</p> </div> </div></div>","null","","","","","","","","","","","","","",""
"4307","","test","audio-keyboard-response","173","458878","0.0-8.0-1.72","LSPC001","condA","","resources/audio/wordStim/S3_AU_14_bxa_Step-4.wav","48","","","","","AU","resources/audio/wordStim/S3_AU_14_bxa_Step-4.wav","S3","14","bxa","4","MI","1","0","false"
"null","","fixation","html-keyboard-response","174","459680","0.0-8.0-0.73","LSPC001","condA","","<div class=""vertical-center"" style='width:60%;'><p style='font-weight:bold;'>Does the middle word sound more like the first word (A) or the last word (B)?</p> <br> <div class=""container""> <div id=""a-box""> <p class=""title-text"">A</h3></p> </div> <div id=""x-box""> <p class=""title-text"">X<p> </div> <div id=""b-box""> <p class=""title-text"">B</p></div> <br> <div style='float: left;padding-left:30px;'><p>Press '1' for A</p></div><div style='float: right;padding-right:30px;'><p>Press '0' for B</p> </div> </div></div>","null","","","","","","","","","","","","","",""
"3251","","test","audio-keyboard-response","175","462931","0.0-8.0-1.73","LSPC001","condA","","resources/audio/wordStim/S3_AI_28_bxa_Step-8.wav","49","","","","","AI","resources/audio/wordStim/S3_AI_28_bxa_Step-8.wav","S3","28","bxa","8","MI","1","1","true"
"null","","fixation","html-keyboard-response","176","463736","0.0-8.0-0.74","LSPC001","condA","","<div class=""vertical-center"" style='width:60%;'><p style='font-weight:bold;'>Does the middle word sound more like the first word (A) or the last word (B)?</p> <br> <div class=""container""> <div id=""a-box""> <p class=""title-text"">A</h3></p> </div> <div id=""x-box""> <p class=""title-text"">X<p> </div> <div id=""b-box""> <p class=""title-text"">B</p></div> <br> <div style='float: left;padding-left:30px;'><p>Press '1' for A</p></div><div style='float: right;padding-right:30px;'><p>Press '0' for B</p> </div> </div></div>","null","","","","","","","","","","","","","",""
"4107","","test","audio-keyboard-response","177","467843","0.0-8.0-1.74","LSPC001","condA","","resources/audio/wordStim/S3_AU_16_axb_Step-9.wav","48","","","","","AU","resources/audio/wordStim/S3_AU_16_axb_Step-9.wav","S3","16","axb","9","MI","0","0","true"
"null","","fixation","html-keyboard-response","178","468646","0.0-8.0-0.75","LSPC001","condA","","<div class=""vertical-center"" style='width:60%;'><p style='font-weight:bold;'>Does the middle word sound more like the first word (A) or the last word (B)?</p> <br> <div class=""container""> <div id=""a-box""> <p class=""title-text"">A</h3></p> </div> <div id=""x-box""> <p class=""title-text"">X<p> </div> <div id=""b-box""> <p class=""title-text"">B</p></div> <br> <div style='float: left;padding-left:30px;'><p>Press '1' for A</p></div><div style='float: right;padding-right:30px;'><p>Press '0' for B</p> </div> </div></div>","null","","","","","","","","","","","","","",""
"3189","","test","audio-keyboard-response","179","471835","0.0-8.0-1.75","LSPC001","condA","","resources/audio/wordStim/S3_AU_19_bxa_Step-8.wav","49","","","","","AU","resources/audio/wordStim/S3_AU_19_bxa_Step-8.wav","S3","19","bxa","8","MI","1","1","true"
"null","","fixation","html-keyboard-response","180","472640","0.0-8.0-0.76","LSPC001","condA","","<div class=""vertical-center"" style='width:60%;'><p style='font-weight:bold;'>Does the middle word sound more like the first word (A) or the last word (B)?</p> <br> <div class=""container""> <div id=""a-box""> <p class=""title-text"">A</h3></p> </div> <div id=""x-box""> <p class=""title-text"">X<p> </div> <div id=""b-box""> <p class=""title-text"">B</p></div> <br> <div style='float: left;padding-left:30px;'><p>Press '1' for A</p></div><div style='float: right;padding-right:30px;'><p>Press '0' for B</p> </div> </div></div>","null","","","","","","","","","","","","","",""
"3088","","test","audio-keyboard-response","181","475732","0.0-8.0-1.76","LSPC001","condA","","resources/audio/wordStim/S9_AU_13_axb_Step-9.wav","48","","","","","AU","resources/audio/wordStim/S9_AU_13_axb_Step-9.wav","S9","13","axb","9","CN","0","0","true"
"null","","fixation","html-keyboard-response","182","476537","0.0-8.0-0.77","LSPC001","condA","","<div class=""vertical-center"" style='width:60%;'><p style='font-weight:bold;'>Does the middle word sound more like the first word (A) or the last word (B)?</p> <br> <div class=""container""> <div id=""a-box""> <p class=""title-text"">A</h3></p> </div> <div id=""x-box""> <p class=""title-text"">X<p> </div> <div id=""b-box""> <p class=""title-text"">B</p></div> <br> <div style='float: left;padding-left:30px;'><p>Press '1' for A</p></div><div style='float: right;padding-right:30px;'><p>Press '0' for B</p> </div> </div></div>","null","","","","","","","","","","","","","",""
"3293","","test","audio-keyboard-response","183","479830","0.0-8.0-1.77","LSPC001","condA","","resources/audio/wordStim/S9_AU_18_bxa_Step-2.wav","48","","","","","AU","resources/audio/wordStim/S9_AU_18_bxa_Step-2.wav","S9","18","bxa","2","CN","1","0","false"
"null","","fixation","html-keyboard-response","184","480635","0.0-8.0-0.78","LSPC001","condA","","<div class=""vertical-center"" style='width:60%;'><p style='font-weight:bold;'>Does the middle word sound more like the first word (A) or the last word (B)?</p> <br> <div class=""container""> <div id=""a-box""> <p class=""title-text"">A</h3></p> </div> <div id=""x-box""> <p class=""title-text"">X<p> </div> <div id=""b-box""> <p class=""title-text"">B</p></div> <br> <div style='float: left;padding-left:30px;'><p>Press '1' for A</p></div><div style='float: right;padding-right:30px;'><p>Press '0' for B</p> </div> </div></div>","null","","","","","","","","","","","","","",""
"2939","","test","audio-keyboard-response","185","483571","0.0-8.0-1.78","LSPC001","condA","","resources/audio/wordStim/S3_AI_23_axb_Step-7.wav","48","","","","","AI","resources/audio/wordStim/S3_AI_23_axb_Step-7.wav","S3","23","axb","7","MI","0","0","true"
"null","","fixation","html-keyboard-response","186","484379","0.0-8.0-0.79","LSPC001","condA","","<div class=""vertical-center"" style='width:60%;'><p style='font-weight:bold;'>Does the middle word sound more like the first word (A) or the last word (B)?</p> <br> <div class=""container""> <div id=""a-box""> <p class=""title-text"">A</h3></p> </div> <div id=""x-box""> <p class=""title-text"">X<p> </div> <div id=""b-box""> <p class=""title-text"">B</p></div> <br> <div style='float: left;padding-left:30px;'><p>Press '1' for A</p></div><div style='float: right;padding-right:30px;'><p>Press '0' for B</p> </div> </div></div>","null","","","","","","","","","","","","","",""
"3696","","test","audio-keyboard-response","187","488078","0.0-8.0-1.79","LSPC001","condA","","resources/audio/wordStim/S3_AU_16_axb_Step-10.wav","48","","","","","AU","resources/audio/wordStim/S3_AU_16_axb_Step-10.wav","S3","16","axb","10","MI","0","0","true"
"null","","fixation","html-keyboard-response","188","488883","0.0-8.0-0.80","LSPC001","condA","","<div class=""vertical-center"" style='width:60%;'><p style='font-weight:bold;'>Does the middle word sound more like the first word (A) or the last word (B)?</p> <br> <div class=""container""> <div id=""a-box""> <p class=""title-text"">A</h3></p> </div> <div id=""x-box""> <p class=""title-text"">X<p> </div> <div id=""b-box""> <p class=""title-text"">B</p></div> <br> <div style='float: left;padding-left:30px;'><p>Press '1' for A</p></div><div style='float: right;padding-right:30px;'><p>Press '0' for B</p> </div> </div></div>","null","","","","","","","","","","","","","",""
"4843","","test","audio-keyboard-response","189","493723","0.0-8.0-1.80","LSPC001","condA","","resources/audio/wordStim/S9_AI_24_axb_Step-3.wav","49","","","","","AI","resources/audio/wordStim/S9_AI_24_axb_Step-3.wav","S9","24","axb","3","CN","0","1","false"
"22609","","break","html-keyboard-response","190","516837","0.0-8.0-2.80-0.80","LSPC001","condA","","<div class=""vertical-center""><p>Feel free to take a break!</p><i>When you're ready to continue, press SPACE to begin the next trial.</i></p></div>","32","","","","","","","","","","","","","",""
"null","","fixation","html-keyboard-response","191","517142","0.0-8.0-0.81","LSPC001","condA","","<div class=""vertical-center"" style='width:60%;'><p style='font-weight:bold;'>Does the middle word sound more like the first word (A) or the last word (B)?</p> <br> <div class=""container""> <div id=""a-box""> <p class=""title-text"">A</h3></p> </div> <div id=""x-box""> <p class=""title-text"">X<p> </div> <div id=""b-box""> <p class=""title-text"">B</p></div> <br> <div style='float: left;padding-left:30px;'><p>Press '1' for A</p></div><div style='float: right;padding-right:30px;'><p>Press '0' for B</p> </div> </div></div>","null","","","","","","","","","","","","","",""
"3240","","test","audio-keyboard-response","192","520380","0.0-8.0-1.81","LSPC001","condA","","resources/audio/wordStim/S3_AU_11_bxa_Step-2.wav","48","","","","","AU","resources/audio/wordStim/S3_AU_11_bxa_Step-2.wav","S3","11","bxa","2","MI","1","0","false"
"null","","fixation","html-keyboard-response","193","521187","0.0-8.0-0.82","LSPC001","condA","","<div class=""vertical-center"" style='width:60%;'><p style='font-weight:bold;'>Does the middle word sound more like the first word (A) or the last word (B)?</p> <br> <div class=""container""> <div id=""a-box""> <p class=""title-text"">A</h3></p> </div> <div id=""x-box""> <p class=""title-text"">X<p> </div> <div id=""b-box""> <p class=""title-text"">B</p></div> <br> <div style='float: left;padding-left:30px;'><p>Press '1' for A</p></div><div style='float: right;padding-right:30px;'><p>Press '0' for B</p> </div> </div></div>","null","","","","","","","","","","","","","",""
"4467","","test","audio-keyboard-response","194","525655","0.0-8.0-1.82","LSPC001","condA","","resources/audio/wordStim/S3_AI_22_axb_Step-5.wav","48","","","","","AI","resources/audio/wordStim/S3_AI_22_axb_Step-5.wav","S3","22","axb","5","MI","0","0","true"
"null","","fixation","html-keyboard-response","195","526459","0.0-8.0-0.83","LSPC001","condA","","<div class=""vertical-center"" style='width:60%;'><p style='font-weight:bold;'>Does the middle word sound more like the first word (A) or the last word (B)?</p> <br> <div class=""container""> <div id=""a-box""> <p class=""title-text"">A</h3></p> </div> <div id=""x-box""> <p class=""title-text"">X<p> </div> <div id=""b-box""> <p class=""title-text"">B</p></div> <br> <div style='float: left;padding-left:30px;'><p>Press '1' for A</p></div><div style='float: right;padding-right:30px;'><p>Press '0' for B</p> </div> </div></div>","null","","","","","","","","","","","","","",""
"4395","","test","audio-keyboard-response","196","530852","0.0-8.0-1.83","LSPC001","condA","","resources/audio/wordStim/S9_AU_14_axb_Step-9.wav","48","","","","","AU","resources/audio/wordStim/S9_AU_14_axb_Step-9.wav","S9","14","axb","9","CN","0","0","true"
"null","","fixation","html-keyboard-response","197","531657","0.0-8.0-0.84","LSPC001","condA","","<div class=""vertical-center"" style='width:60%;'><p style='font-weight:bold;'>Does the middle word sound more like the first word (A) or the last word (B)?</p> <br> <div class=""container""> <div id=""a-box""> <p class=""title-text"">A</h3></p> </div> <div id=""x-box""> <p class=""title-text"">X<p> </div> <div id=""b-box""> <p class=""title-text"">B</p></div> <br> <div style='float: left;padding-left:30px;'><p>Press '1' for A</p></div><div style='float: right;padding-right:30px;'><p>Press '0' for B</p> </div> </div></div>","null","","","","","","","","","","","","","",""
"4395","","test","audio-keyboard-response","198","536053","0.0-8.0-1.84","LSPC001","condA","","resources/audio/wordStim/S3_AU_20_axb_Step-3.wav","49","","","","","AU","resources/audio/wordStim/S3_AU_20_axb_Step-3.wav","S3","20","axb","3","MI","0","1","false"
"null","","fixation","html-keyboard-response","199","536856","0.0-8.0-0.85","LSPC001","condA","","<div class=""vertical-center"" style='width:60%;'><p style='font-weight:bold;'>Does the middle word sound more like the first word (A) or the last word (B)?</p> <br> <div class=""container""> <div id=""a-box""> <p class=""title-text"">A</h3></p> </div> <div id=""x-box""> <p class=""title-text"">X<p> </div> <div id=""b-box""> <p class=""title-text"">B</p></div> <br> <div style='float: left;padding-left:30px;'><p>Press '1' for A</p></div><div style='float: right;padding-right:30px;'><p>Press '0' for B</p> </div> </div></div>","null","","","","","","","","","","","","","",""
"3485","","test","audio-keyboard-response","200","540343","0.0-8.0-1.85","LSPC001","condA","","resources/audio/wordStim/S9_AI_25_axb_Step-3.wav","49","","","","","AI","resources/audio/wordStim/S9_AI_25_axb_Step-3.wav","S9","25","axb","3","CN","0","1","false"
"null","","fixation","html-keyboard-response","201","541149","0.0-8.0-0.86","LSPC001","condA","","<div class=""vertical-center"" style='width:60%;'><p style='font-weight:bold;'>Does the middle word sound more like the first word (A) or the last word (B)?</p> <br> <div class=""container""> <div id=""a-box""> <p class=""title-text"">A</h3></p> </div> <div id=""x-box""> <p class=""title-text"">X<p> </div> <div id=""b-box""> <p class=""title-text"">B</p></div> <br> <div style='float: left;padding-left:30px;'><p>Press '1' for A</p></div><div style='float: right;padding-right:30px;'><p>Press '0' for B</p> </div> </div></div>","null","","","","","","","","","","","","","",""
"2880","","test","audio-keyboard-response","202","544029","0.0-8.0-1.86","LSPC001","condA","","resources/audio/wordStim/S9_AU_14_bxa_Step-2.wav","48","","","","","AU","resources/audio/wordStim/S9_AU_14_bxa_Step-2.wav","S9","14","bxa","2","CN","1","0","false"
"null","","fixation","html-keyboard-response","203","544835","0.0-8.0-0.87","LSPC001","condA","","<div class=""vertical-center"" style='width:60%;'><p style='font-weight:bold;'>Does the middle word sound more like the first word (A) or the last word (B)?</p> <br> <div class=""container""> <div id=""a-box""> <p class=""title-text"">A</h3></p> </div> <div id=""x-box""> <p class=""title-text"">X<p> </div> <div id=""b-box""> <p class=""title-text"">B</p></div> <br> <div style='float: left;padding-left:30px;'><p>Press '1' for A</p></div><div style='float: right;padding-right:30px;'><p>Press '0' for B</p> </div> </div></div>","null","","","","","","","","","","","","","",""
"3093","","test","audio-keyboard-response","204","547927","0.0-8.0-1.87","LSPC001","condA","","resources/audio/wordStim/S3_AI_25_axb_Step-5.wav","48","","","","","AI","resources/audio/wordStim/S3_AI_25_axb_Step-5.wav","S3","25","axb","5","MI","0","0","true"
"null","","fixation","html-keyboard-response","205","548736","0.0-8.0-0.88","LSPC001","condA","","<div class=""vertical-center"" style='width:60%;'><p style='font-weight:bold;'>Does the middle word sound more like the first word (A) or the last word (B)?</p> <br> <div class=""container""> <div id=""a-box""> <p class=""title-text"">A</h3></p> </div> <div id=""x-box""> <p class=""title-text"">X<p> </div> <div id=""b-box""> <p class=""title-text"">B</p></div> <br> <div style='float: left;padding-left:30px;'><p>Press '1' for A</p></div><div style='float: right;padding-right:30px;'><p>Press '0' for B</p> </div> </div></div>","null","","","","","","","","","","","","","",""
"3581","","test","audio-keyboard-response","206","552317","0.0-8.0-1.88","LSPC001","condA","","resources/audio/wordStim/S9_AI_30_bxa_Step-6.wav","48","","","","","AI","resources/audio/wordStim/S9_AI_30_bxa_Step-6.wav","S9","30","bxa","6","CN","1","0","false"
"null","","fixation","html-keyboard-response","207","553125","0.0-8.0-0.89","LSPC001","condA","","<div class=""vertical-center"" style='width:60%;'><p style='font-weight:bold;'>Does the middle word sound more like the first word (A) or the last word (B)?</p> <br> <div class=""container""> <div id=""a-box""> <p class=""title-text"">A</h3></p> </div> <div id=""x-box""> <p class=""title-text"">X<p> </div> <div id=""b-box""> <p class=""title-text"">B</p></div> <br> <div style='float: left;padding-left:30px;'><p>Press '1' for A</p></div><div style='float: right;padding-right:30px;'><p>Press '0' for B</p> </div> </div></div>","null","","","","","","","","","","","","","",""
"2920","","test","audio-keyboard-response","208","556045","0.0-8.0-1.89","LSPC001","condA","","resources/audio/wordStim/S9_AU_16_bxa_Step-6.wav","49","","","","","AU","resources/audio/wordStim/S9_AU_16_bxa_Step-6.wav","S9","16","bxa","6","CN","1","1","true"
"null","","fixation","html-keyboard-response","209","556847","0.0-8.0-0.90","LSPC001","condA","","<div class=""vertical-center"" style='width:60%;'><p style='font-weight:bold;'>Does the middle word sound more like the first word (A) or the last word (B)?</p> <br> <div class=""container""> <div id=""a-box""> <p class=""title-text"">A</h3></p> </div> <div id=""x-box""> <p class=""title-text"">X<p> </div> <div id=""b-box""> <p class=""title-text"">B</p></div> <br> <div style='float: left;padding-left:30px;'><p>Press '1' for A</p></div><div style='float: right;padding-right:30px;'><p>Press '0' for B</p> </div> </div></div>","null","","","","","","","","","","","","","",""
"2712","","test","audio-keyboard-response","210","559557","0.0-8.0-1.90","LSPC001","condA","","resources/audio/wordStim/S3_AU_14_bxa_Step-2.wav","48","","","","","AU","resources/audio/wordStim/S3_AU_14_bxa_Step-2.wav","S3","14","bxa","2","MI","1","0","false"
"null","","fixation","html-keyboard-response","211","560363","0.0-8.0-0.91","LSPC001","condA","","<div class=""vertical-center"" style='width:60%;'><p style='font-weight:bold;'>Does the middle word sound more like the first word (A) or the last word (B)?</p> <br> <div class=""container""> <div id=""a-box""> <p class=""title-text"">A</h3></p> </div> <div id=""x-box""> <p class=""title-text"">X<p> </div> <div id=""b-box""> <p class=""title-text"">B</p></div> <br> <div style='float: left;padding-left:30px;'><p>Press '1' for A</p></div><div style='float: right;padding-right:30px;'><p>Press '0' for B</p> </div> </div></div>","null","","","","","","","","","","","","","",""
"3099","","test","audio-keyboard-response","212","563464","0.0-8.0-1.91","LSPC001","condA","","resources/audio/wordStim/S3_AI_21_bxa_Step-4.wav","48","","","","","AI","resources/audio/wordStim/S3_AI_21_bxa_Step-4.wav","S3","21","bxa","4","MI","1","0","false"
"null","","fixation","html-keyboard-response","213","564266","0.0-8.0-0.92","LSPC001","condA","","<div class=""vertical-center"" style='width:60%;'><p style='font-weight:bold;'>Does the middle word sound more like the first word (A) or the last word (B)?</p> <br> <div class=""container""> <div id=""a-box""> <p class=""title-text"">A</h3></p> </div> <div id=""x-box""> <p class=""title-text"">X<p> </div> <div id=""b-box""> <p class=""title-text"">B</p></div> <br> <div style='float: left;padding-left:30px;'><p>Press '1' for A</p></div><div style='float: right;padding-right:30px;'><p>Press '0' for B</p> </div> </div></div>","null","","","","","","","","","","","","","",""
"3829","","test","audio-keyboard-response","214","568093","0.0-8.0-1.92","LSPC001","condA","","resources/audio/wordStim/S3_AU_18_bxa_Step-6.wav","49","","","","","AU","resources/audio/wordStim/S3_AU_18_bxa_Step-6.wav","S3","18","bxa","6","MI","1","1","true"
"null","","fixation","html-keyboard-response","215","568901","0.0-8.0-0.93","LSPC001","condA","","<div class=""vertical-center"" style='width:60%;'><p style='font-weight:bold;'>Does the middle word sound more like the first word (A) or the last word (B)?</p> <br> <div class=""container""> <div id=""a-box""> <p class=""title-text"">A</h3></p> </div> <div id=""x-box""> <p class=""title-text"">X<p> </div> <div id=""b-box""> <p class=""title-text"">B</p></div> <br> <div style='float: left;padding-left:30px;'><p>Press '1' for A</p></div><div style='float: right;padding-right:30px;'><p>Press '0' for B</p> </div> </div></div>","null","","","","","","","","","","","","","",""
"3195","","test","audio-keyboard-response","216","572097","0.0-8.0-1.93","LSPC001","condA","","resources/audio/wordStim/S3_AI_23_axb_Step-9.wav","49","","","","","AI","resources/audio/wordStim/S3_AI_23_axb_Step-9.wav","S3","23","axb","9","MI","0","1","false"
"null","","fixation","html-keyboard-response","217","572903","0.0-8.0-0.94","LSPC001","condA","","<div class=""vertical-center"" style='width:60%;'><p style='font-weight:bold;'>Does the middle word sound more like the first word (A) or the last word (B)?</p> <br> <div class=""container""> <div id=""a-box""> <p class=""title-text"">A</h3></p> </div> <div id=""x-box""> <p class=""title-text"">X<p> </div> <div id=""b-box""> <p class=""title-text"">B</p></div> <br> <div style='float: left;padding-left:30px;'><p>Press '1' for A</p></div><div style='float: right;padding-right:30px;'><p>Press '0' for B</p> </div> </div></div>","null","","","","","","","","","","","","","",""
"2968","","test","audio-keyboard-response","218","575870","0.0-8.0-1.94","LSPC001","condA","","resources/audio/wordStim/S3_AU_20_axb_Step-5.wav","48","","","","","AU","resources/audio/wordStim/S3_AU_20_axb_Step-5.wav","S3","20","axb","5","MI","0","0","true"
"null","","fixation","html-keyboard-response","219","576675","0.0-8.0-0.95","LSPC001","condA","","<div class=""vertical-center"" style='width:60%;'><p style='font-weight:bold;'>Does the middle word sound more like the first word (A) or the last word (B)?</p> <br> <div class=""container""> <div id=""a-box""> <p class=""title-text"">A</h3></p> </div> <div id=""x-box""> <p class=""title-text"">X<p> </div> <div id=""b-box""> <p class=""title-text"">B</p></div> <br> <div style='float: left;padding-left:30px;'><p>Press '1' for A</p></div><div style='float: right;padding-right:30px;'><p>Press '0' for B</p> </div> </div></div>","null","","","","","","","","","","","","","",""
"3429","","test","audio-keyboard-response","220","580101","0.0-8.0-1.95","LSPC001","condA","","resources/audio/wordStim/S9_AU_11_bxa_Step-6.wav","49","","","","","AU","resources/audio/wordStim/S9_AU_11_bxa_Step-6.wav","S9","11","bxa","6","CN","1","1","true"
"null","","fixation","html-keyboard-response","221","580906","0.0-8.0-0.96","LSPC001","condA","","<div class=""vertical-center"" style='width:60%;'><p style='font-weight:bold;'>Does the middle word sound more like the first word (A) or the last word (B)?</p> <br> <div class=""container""> <div id=""a-box""> <p class=""title-text"">A</h3></p> </div> <div id=""x-box""> <p class=""title-text"">X<p> </div> <div id=""b-box""> <p class=""title-text"">B</p></div> <br> <div style='float: left;padding-left:30px;'><p>Press '1' for A</p></div><div style='float: right;padding-right:30px;'><p>Press '0' for B</p> </div> </div></div>","null","","","","","","","","","","","","","",""
"3709","","test","audio-keyboard-response","222","584614","0.0-8.0-1.96","LSPC001","condA","","resources/audio/wordStim/S3_AU_17_axb_Step-9.wav","48","","","","","AU","resources/audio/wordStim/S3_AU_17_axb_Step-9.wav","S3","17","axb","9","MI","0","0","true"
"null","","fixation","html-keyboard-response","223","585418","0.0-8.0-0.97","LSPC001","condA","","<div class=""vertical-center"" style='width:60%;'><p style='font-weight:bold;'>Does the middle word sound more like the first word (A) or the last word (B)?</p> <br> <div class=""container""> <div id=""a-box""> <p class=""title-text"">A</h3></p> </div> <div id=""x-box""> <p class=""title-text"">X<p> </div> <div id=""b-box""> <p class=""title-text"">B</p></div> <br> <div style='float: left;padding-left:30px;'><p>Press '1' for A</p></div><div style='float: right;padding-right:30px;'><p>Press '0' for B</p> </div> </div></div>","null","","","","","","","","","","","","","",""
