"rt","url","trial_role","trial_type","trial_index","time_elapsed","internal_node_id","participantId","condition","view_history","stimulus","key_press","button_pressed","correct_answer","correct_response","success","vowel","wordStim","speaker","sentNum","order","step","speakerIdentity","raised_answer","key_response","raised_response"
"31367","micr.con.consent.html","consent","external-html","0","31975","0.0-0.0","LSPC0005","condB","","","","","","","","","","","","","","","","",""
"44569","","instructions","instructions","1","76547","0.0-1.0","LSPC0005","condB","[{""page_index"":0,""viewing_time"":15466},{""page_index"":1,""viewing_time"":27837},{""page_index"":2,""viewing_time"":1266}]","","","","","","","","","","","","","","","",""
"null","","fixation","html-keyboard-response","2","77048","0.0-2.0-0.0","LSPC0005","condB","","<div class=""vertical-center"" style=""font-size:60px;"">+</div>","null","","","","","","","","","","","","","",""
"4491","","tonetest","audio-button-response","3","81542","0.0-2.0-1.0","LSPC0005","condB","","../../src/audio/toneTest_2.wav","","2","1","false","","","","","","","","","","",""
"null","","fixation","html-keyboard-response","4","82042","0.0-2.0-0.1","LSPC0005","condB","","<div class=""vertical-center"" style=""font-size:60px;"">+</div>","null","","","","","","","","","","","","","",""
"4125","","tonetest","audio-button-response","5","86170","0.0-2.0-1.1","LSPC0005","condB","","../../src/audio/toneTest_5.wav","","2","0","false","","","","","","","","","","",""
"null","","fixation","html-keyboard-response","6","86672","0.0-2.0-0.2","LSPC0005","condB","","<div class=""vertical-center"" style=""font-size:60px;"">+</div>","null","","","","","","","","","","","","","",""
"4539","","tonetest","audio-button-response","7","91211","0.0-2.0-1.2","LSPC0005","condB","","../../src/audio/toneTest_2.wav","","2","1","false","","","","","","","","","","",""
"null","","fixation","html-keyboard-response","8","91714","0.0-2.0-0.3","LSPC0005","condB","","<div class=""vertical-center"" style=""font-size:60px;"">+</div>","null","","","","","","","","","","","","","",""
"4366","","tonetest","audio-button-response","9","96082","0.0-2.0-1.3","LSPC0005","condB","","../../src/audio/toneTest_4.wav","","0","1","false","","","","","","","","","","",""
"null","","fixation","html-keyboard-response","10","96583","0.0-2.0-0.4","LSPC0005","condB","","<div class=""vertical-center"" style=""font-size:60px;"">+</div>","null","","","","","","","","","","","","","",""
"3634","","tonetest","audio-button-response","11","100217","0.0-2.0-1.4","LSPC0005","condB","","../../src/audio/toneTest_1.wav","","1","2","false","","","","","","","","","","",""
"null","","fixation","html-keyboard-response","12","100720","0.0-2.0-0.5","LSPC0005","condB","","<div class=""vertical-center"" style=""font-size:60px;"">+</div>","null","","","","","","","","","","","","","",""
"3984","","tonetest","audio-button-response","13","104705","0.0-2.0-1.5","LSPC0005","condB","","../../src/audio/toneTest_5.wav","","2","0","false","","","","","","","","","","",""
"87556","","instructions","html-keyboard-response","14","192264","0.0-3.0","LSPC0005","condB","","<div class=""vertical-center""><p><b>Your score was 0/6.</b></p><p>If you scored below 6, please ensure that you are wearing headphones and in a quiet location free of distractions.</p><p><i>To continue to the main experiment, press SPACE.</i></p></div>","32","","","","","","","","","","","","","",""
"","","","fullscreen","15","194494","0.0-4.0","LSPC0005","condB","","","","","","","true","","","","","","","","","",""
"7148","","instructions","instructions","16","201642","0.0-5.0","LSPC0005","condB","[{""page_index"":0,""viewing_time"":7148}]","","","","","","","","","","","","","","","",""
"null","","fixation","html-keyboard-response","17","202143","0.0-6.0-0.0","LSPC0005","condB","","<div class=""vertical-center"" style='width:60%;'><p style='font-weight:bold;'>Does the middle word sound more like the first word (A) or the last word (B)?</p> <br> <div class=""container""> <div id=""a-box""> <p class=""title-text"">A</h3></p> </div> <div id=""x-box""> <p class=""title-text"">X<p> </div> <div id=""b-box""> <p class=""title-text"">B</p></div> <br> <div style='float: left;padding-left:30px;'><p>Press '1' for A</p></div><div style='float: right;padding-right:30px;'><p>Press '0' for B</p> </div> </div></div>","null","","","","","","","","","","","","","",""
"3224","","practice","audio-keyboard-response","18","205367","0.0-6.0-1.0","LSPC0005","condB","","resources/audio/practiceStim/S1_AU_14_axb_Step-6.wav","49","","","","","","","","","","","","","",""
"null","","fixation","html-keyboard-response","19","206372","0.0-6.0-0.1","LSPC0005","condB","","<div class=""vertical-center"" style='width:60%;'><p style='font-weight:bold;'>Does the middle word sound more like the first word (A) or the last word (B)?</p> <br> <div class=""container""> <div id=""a-box""> <p class=""title-text"">A</h3></p> </div> <div id=""x-box""> <p class=""title-text"">X<p> </div> <div id=""b-box""> <p class=""title-text"">B</p></div> <br> <div style='float: left;padding-left:30px;'><p>Press '1' for A</p></div><div style='float: right;padding-right:30px;'><p>Press '0' for B</p> </div> </div></div>","null","","","","","","","","","","","","","",""
"2419","","practice","audio-keyboard-response","20","208791","0.0-6.0-1.1","LSPC0005","condB","","resources/audio/practiceStim/S1_AU_14_bxa_Step-6.wav","48","","","","","","","","","","","","","",""
"null","","fixation","html-keyboard-response","21","209793","0.0-6.0-0.2","LSPC0005","condB","","<div class=""vertical-center"" style='width:60%;'><p style='font-weight:bold;'>Does the middle word sound more like the first word (A) or the last word (B)?</p> <br> <div class=""container""> <div id=""a-box""> <p class=""title-text"">A</h3></p> </div> <div id=""x-box""> <p class=""title-text"">X<p> </div> <div id=""b-box""> <p class=""title-text"">B</p></div> <br> <div style='float: left;padding-left:30px;'><p>Press '1' for A</p></div><div style='float: right;padding-right:30px;'><p>Press '0' for B</p> </div> </div></div>","null","","","","","","","","","","","","","",""
"3051","","practice","audio-keyboard-response","22","212846","0.0-6.0-1.2","LSPC0005","condB","","resources/audio/practiceStim/S1_AI_21_bxa_Step-6.wav","49","","","","","","","","","","","","","",""
"null","","fixation","html-keyboard-response","23","213849","0.0-6.0-0.3","LSPC0005","condB","","<div class=""vertical-center"" style='width:60%;'><p style='font-weight:bold;'>Does the middle word sound more like the first word (A) or the last word (B)?</p> <br> <div class=""container""> <div id=""a-box""> <p class=""title-text"">A</h3></p> </div> <div id=""x-box""> <p class=""title-text"">X<p> </div> <div id=""b-box""> <p class=""title-text"">B</p></div> <br> <div style='float: left;padding-left:30px;'><p>Press '1' for A</p></div><div style='float: right;padding-right:30px;'><p>Press '0' for B</p> </div> </div></div>","null","","","","","","","","","","","","","",""
"2864","","practice","audio-keyboard-response","24","216713","0.0-6.0-1.3","LSPC0005","condB","","resources/audio/practiceStim/S1_AI_21_axb_Step-6.wav","49","","","","","","","","","","","","","",""
"3040","","instructions","instructions","25","220254","0.0-7.0","LSPC0005","condB","[{""page_index"":0,""viewing_time"":3040}]","","","","","","","","","","","","","","","",""
"null","","fixation","html-keyboard-response","26","220756","0.0-8.0-0.0","LSPC0005","condB","","<div class=""vertical-center"" style='width:60%;'><p style='font-weight:bold;'>Does the middle word sound more like the first word (A) or the last word (B)?</p> <br> <div class=""container""> <div id=""a-box""> <p class=""title-text"">A</h3></p> </div> <div id=""x-box""> <p class=""title-text"">X<p> </div> <div id=""b-box""> <p class=""title-text"">B</p></div> <br> <div style='float: left;padding-left:30px;'><p>Press '1' for A</p></div><div style='float: right;padding-right:30px;'><p>Press '0' for B</p> </div> </div></div>","null","","","","","","","","","","","","","",""
"3768","","test","audio-keyboard-response","27","224527","0.0-8.0-1.0","LSPC0005","condB","","resources/audio/wordStim/S9_AU_13_bxa_Step-10.wav","48","","","","","AU","resources/audio/wordStim/S9_AU_13_bxa_Step-10.wav","S9","13","bxa","10","CN","1","0","false"
"null","","fixation","html-keyboard-response","28","225529","0.0-8.0-0.1","LSPC0005","condB","","<div class=""vertical-center"" style='width:60%;'><p style='font-weight:bold;'>Does the middle word sound more like the first word (A) or the last word (B)?</p> <br> <div class=""container""> <div id=""a-box""> <p class=""title-text"">A</h3></p> </div> <div id=""x-box""> <p class=""title-text"">X<p> </div> <div id=""b-box""> <p class=""title-text"">B</p></div> <br> <div style='float: left;padding-left:30px;'><p>Press '1' for A</p></div><div style='float: right;padding-right:30px;'><p>Press '0' for B</p> </div> </div></div>","null","","","","","","","","","","","","","",""
"2525","","test","audio-keyboard-response","29","228055","0.0-8.0-1.1","LSPC0005","condB","","resources/audio/wordStim/S3_AI_23_bxa_Step-10.wav","49","","","","","AI","resources/audio/wordStim/S3_AI_23_bxa_Step-10.wav","S3","23","bxa","10","MI","1","1","true"
"null","","fixation","html-keyboard-response","30","229061","0.0-8.0-0.2","LSPC0005","condB","","<div class=""vertical-center"" style='width:60%;'><p style='font-weight:bold;'>Does the middle word sound more like the first word (A) or the last word (B)?</p> <br> <div class=""container""> <div id=""a-box""> <p class=""title-text"">A</h3></p> </div> <div id=""x-box""> <p class=""title-text"">X<p> </div> <div id=""b-box""> <p class=""title-text"">B</p></div> <br> <div style='float: left;padding-left:30px;'><p>Press '1' for A</p></div><div style='float: right;padding-right:30px;'><p>Press '0' for B</p> </div> </div></div>","null","","","","","","","","","","","","","",""
"3181","","test","audio-keyboard-response","31","232241","0.0-8.0-1.2","LSPC0005","condB","","resources/audio/wordStim/S3_AU_18_bxa_Step-3.wav","49","","","","","AU","resources/audio/wordStim/S3_AU_18_bxa_Step-3.wav","S3","18","bxa","3","MI","1","1","true"
"null","","fixation","html-keyboard-response","32","233249","0.0-8.0-0.3","LSPC0005","condB","","<div class=""vertical-center"" style='width:60%;'><p style='font-weight:bold;'>Does the middle word sound more like the first word (A) or the last word (B)?</p> <br> <div class=""container""> <div id=""a-box""> <p class=""title-text"">A</h3></p> </div> <div id=""x-box""> <p class=""title-text"">X<p> </div> <div id=""b-box""> <p class=""title-text"">B</p></div> <br> <div style='float: left;padding-left:30px;'><p>Press '1' for A</p></div><div style='float: right;padding-right:30px;'><p>Press '0' for B</p> </div> </div></div>","null","","","","","","","","","","","","","",""
"2619","","test","audio-keyboard-response","33","235871","0.0-8.0-1.3","LSPC0005","condB","","resources/audio/wordStim/S3_AI_30_bxa_Step-10.wav","49","","","","","AI","resources/audio/wordStim/S3_AI_30_bxa_Step-10.wav","S3","30","bxa","10","MI","1","1","true"
"null","","fixation","html-keyboard-response","34","236874","0.0-8.0-0.4","LSPC0005","condB","","<div class=""vertical-center"" style='width:60%;'><p style='font-weight:bold;'>Does the middle word sound more like the first word (A) or the last word (B)?</p> <br> <div class=""container""> <div id=""a-box""> <p class=""title-text"">A</h3></p> </div> <div id=""x-box""> <p class=""title-text"">X<p> </div> <div id=""b-box""> <p class=""title-text"">B</p></div> <br> <div style='float: left;padding-left:30px;'><p>Press '1' for A</p></div><div style='float: right;padding-right:30px;'><p>Press '0' for B</p> </div> </div></div>","null","","","","","","","","","","","","","",""
"2581","","test","audio-keyboard-response","35","239455","0.0-8.0-1.4","LSPC0005","condB","","resources/audio/wordStim/S3_AI_28_axb_Step-8.wav","48","","","","","AI","resources/audio/wordStim/S3_AI_28_axb_Step-8.wav","S3","28","axb","8","MI","0","0","true"
"null","","fixation","html-keyboard-response","36","240462","0.0-8.0-0.5","LSPC0005","condB","","<div class=""vertical-center"" style='width:60%;'><p style='font-weight:bold;'>Does the middle word sound more like the first word (A) or the last word (B)?</p> <br> <div class=""container""> <div id=""a-box""> <p class=""title-text"">A</h3></p> </div> <div id=""x-box""> <p class=""title-text"">X<p> </div> <div id=""b-box""> <p class=""title-text"">B</p></div> <br> <div style='float: left;padding-left:30px;'><p>Press '1' for A</p></div><div style='float: right;padding-right:30px;'><p>Press '0' for B</p> </div> </div></div>","null","","","","","","","","","","","","","",""
"2899","","test","audio-keyboard-response","37","243361","0.0-8.0-1.5","LSPC0005","condB","","resources/audio/wordStim/S3_AI_30_axb_Step-8.wav","48","","","","","AI","resources/audio/wordStim/S3_AI_30_axb_Step-8.wav","S3","30","axb","8","MI","0","0","true"
"null","","fixation","html-keyboard-response","38","244367","0.0-8.0-0.6","LSPC0005","condB","","<div class=""vertical-center"" style='width:60%;'><p style='font-weight:bold;'>Does the middle word sound more like the first word (A) or the last word (B)?</p> <br> <div class=""container""> <div id=""a-box""> <p class=""title-text"">A</h3></p> </div> <div id=""x-box""> <p class=""title-text"">X<p> </div> <div id=""b-box""> <p class=""title-text"">B</p></div> <br> <div style='float: left;padding-left:30px;'><p>Press '1' for A</p></div><div style='float: right;padding-right:30px;'><p>Press '0' for B</p> </div> </div></div>","null","","","","","","","","","","","","","",""
"4397","","test","audio-keyboard-response","39","248767","0.0-8.0-1.6","LSPC0005","condB","","resources/audio/wordStim/S3_AU_16_axb_Step-2.wav","49","","","","","AU","resources/audio/wordStim/S3_AU_16_axb_Step-2.wav","S3","16","axb","2","MI","0","1","false"
"null","","fixation","html-keyboard-response","40","249769","0.0-8.0-0.7","LSPC0005","condB","","<div class=""vertical-center"" style='width:60%;'><p style='font-weight:bold;'>Does the middle word sound more like the first word (A) or the last word (B)?</p> <br> <div class=""container""> <div id=""a-box""> <p class=""title-text"">A</h3></p> </div> <div id=""x-box""> <p class=""title-text"">X<p> </div> <div id=""b-box""> <p class=""title-text"">B</p></div> <br> <div style='float: left;padding-left:30px;'><p>Press '1' for A</p></div><div style='float: right;padding-right:30px;'><p>Press '0' for B</p> </div> </div></div>","null","","","","","","","","","","","","","",""
"2893","","test","audio-keyboard-response","41","252665","0.0-8.0-1.7","LSPC0005","condB","","resources/audio/wordStim/S9_AI_27_bxa_Step-9.wav","49","","","","","AI","resources/audio/wordStim/S9_AI_27_bxa_Step-9.wav","S9","27","bxa","9","CN","1","1","true"
"null","","fixation","html-keyboard-response","42","253671","0.0-8.0-0.8","LSPC0005","condB","","<div class=""vertical-center"" style='width:60%;'><p style='font-weight:bold;'>Does the middle word sound more like the first word (A) or the last word (B)?</p> <br> <div class=""container""> <div id=""a-box""> <p class=""title-text"">A</h3></p> </div> <div id=""x-box""> <p class=""title-text"">X<p> </div> <div id=""b-box""> <p class=""title-text"">B</p></div> <br> <div style='float: left;padding-left:30px;'><p>Press '1' for A</p></div><div style='float: right;padding-right:30px;'><p>Press '0' for B</p> </div> </div></div>","null","","","","","","","","","","","","","",""
"2509","","test","audio-keyboard-response","43","256183","0.0-8.0-1.8","LSPC0005","condB","","resources/audio/wordStim/S9_AI_24_bxa_Step-7.wav","49","","","","","AI","resources/audio/wordStim/S9_AI_24_bxa_Step-7.wav","S9","24","bxa","7","CN","1","1","true"
"null","","fixation","html-keyboard-response","44","257186","0.0-8.0-0.9","LSPC0005","condB","","<div class=""vertical-center"" style='width:60%;'><p style='font-weight:bold;'>Does the middle word sound more like the first word (A) or the last word (B)?</p> <br> <div class=""container""> <div id=""a-box""> <p class=""title-text"">A</h3></p> </div> <div id=""x-box""> <p class=""title-text"">X<p> </div> <div id=""b-box""> <p class=""title-text"">B</p></div> <br> <div style='float: left;padding-left:30px;'><p>Press '1' for A</p></div><div style='float: right;padding-right:30px;'><p>Press '0' for B</p> </div> </div></div>","null","","","","","","","","","","","","","",""
"2829","","test","audio-keyboard-response","45","260015","0.0-8.0-1.9","LSPC0005","condB","","resources/audio/wordStim/S9_AU_11_bxa_Step-5.wav","48","","","","","AU","resources/audio/wordStim/S9_AU_11_bxa_Step-5.wav","S9","11","bxa","5","CN","1","0","false"
"null","","fixation","html-keyboard-response","46","261018","0.0-8.0-0.10","LSPC0005","condB","","<div class=""vertical-center"" style='width:60%;'><p style='font-weight:bold;'>Does the middle word sound more like the first word (A) or the last word (B)?</p> <br> <div class=""container""> <div id=""a-box""> <p class=""title-text"">A</h3></p> </div> <div id=""x-box""> <p class=""title-text"">X<p> </div> <div id=""b-box""> <p class=""title-text"">B</p></div> <br> <div style='float: left;padding-left:30px;'><p>Press '1' for A</p></div><div style='float: right;padding-right:30px;'><p>Press '0' for B</p> </div> </div></div>","null","","","","","","","","","","","","","",""
"2123","","test","audio-keyboard-response","47","263144","0.0-8.0-1.10","LSPC0005","condB","","resources/audio/wordStim/S3_AU_20_bxa_Step-7.wav","49","","","","","AU","resources/audio/wordStim/S3_AU_20_bxa_Step-7.wav","S3","20","bxa","7","MI","1","1","true"
"null","","fixation","html-keyboard-response","48","264146","0.0-8.0-0.11","LSPC0005","condB","","<div class=""vertical-center"" style='width:60%;'><p style='font-weight:bold;'>Does the middle word sound more like the first word (A) or the last word (B)?</p> <br> <div class=""container""> <div id=""a-box""> <p class=""title-text"">A</h3></p> </div> <div id=""x-box""> <p class=""title-text"">X<p> </div> <div id=""b-box""> <p class=""title-text"">B</p></div> <br> <div style='float: left;padding-left:30px;'><p>Press '1' for A</p></div><div style='float: right;padding-right:30px;'><p>Press '0' for B</p> </div> </div></div>","null","","","","","","","","","","","","","",""
"2568","","test","audio-keyboard-response","49","266714","0.0-8.0-1.11","LSPC0005","condB","","resources/audio/wordStim/S9_AI_30_bxa_Step-10.wav","49","","","","","AI","resources/audio/wordStim/S9_AI_30_bxa_Step-10.wav","S9","30","bxa","10","CN","1","1","true"
"null","","fixation","html-keyboard-response","50","267720","0.0-8.0-0.12","LSPC0005","condB","","<div class=""vertical-center"" style='width:60%;'><p style='font-weight:bold;'>Does the middle word sound more like the first word (A) or the last word (B)?</p> <br> <div class=""container""> <div id=""a-box""> <p class=""title-text"">A</h3></p> </div> <div id=""x-box""> <p class=""title-text"">X<p> </div> <div id=""b-box""> <p class=""title-text"">B</p></div> <br> <div style='float: left;padding-left:30px;'><p>Press '1' for A</p></div><div style='float: right;padding-right:30px;'><p>Press '0' for B</p> </div> </div></div>","null","","","","","","","","","","","","","",""
"3173","","test","audio-keyboard-response","51","270896","0.0-8.0-1.12","LSPC0005","condB","","resources/audio/wordStim/S3_AU_18_axb_Step-8.wav","48","","","","","AU","resources/audio/wordStim/S3_AU_18_axb_Step-8.wav","S3","18","axb","8","MI","0","0","true"
"null","","fixation","html-keyboard-response","52","271898","0.0-8.0-0.13","LSPC0005","condB","","<div class=""vertical-center"" style='width:60%;'><p style='font-weight:bold;'>Does the middle word sound more like the first word (A) or the last word (B)?</p> <br> <div class=""container""> <div id=""a-box""> <p class=""title-text"">A</h3></p> </div> <div id=""x-box""> <p class=""title-text"">X<p> </div> <div id=""b-box""> <p class=""title-text"">B</p></div> <br> <div style='float: left;padding-left:30px;'><p>Press '1' for A</p></div><div style='float: right;padding-right:30px;'><p>Press '0' for B</p> </div> </div></div>","null","","","","","","","","","","","","","",""
"2536","","test","audio-keyboard-response","53","274434","0.0-8.0-1.13","LSPC0005","condB","","resources/audio/wordStim/S9_AU_20_axb_Step-6.wav","48","","","","","AU","resources/audio/wordStim/S9_AU_20_axb_Step-6.wav","S9","20","axb","6","CN","0","0","true"
"null","","fixation","html-keyboard-response","54","275440","0.0-8.0-0.14","LSPC0005","condB","","<div class=""vertical-center"" style='width:60%;'><p style='font-weight:bold;'>Does the middle word sound more like the first word (A) or the last word (B)?</p> <br> <div class=""container""> <div id=""a-box""> <p class=""title-text"">A</h3></p> </div> <div id=""x-box""> <p class=""title-text"">X<p> </div> <div id=""b-box""> <p class=""title-text"">B</p></div> <br> <div style='float: left;padding-left:30px;'><p>Press '1' for A</p></div><div style='float: right;padding-right:30px;'><p>Press '0' for B</p> </div> </div></div>","null","","","","","","","","","","","","","",""
"2373","","test","audio-keyboard-response","55","277816","0.0-8.0-1.14","LSPC0005","condB","","resources/audio/wordStim/S9_AU_13_axb_Step-6.wav","48","","","","","AU","resources/audio/wordStim/S9_AU_13_axb_Step-6.wav","S9","13","axb","6","CN","0","0","true"
"null","","fixation","html-keyboard-response","56","278818","0.0-8.0-0.15","LSPC0005","condB","","<div class=""vertical-center"" style='width:60%;'><p style='font-weight:bold;'>Does the middle word sound more like the first word (A) or the last word (B)?</p> <br> <div class=""container""> <div id=""a-box""> <p class=""title-text"">A</h3></p> </div> <div id=""x-box""> <p class=""title-text"">X<p> </div> <div id=""b-box""> <p class=""title-text"">B</p></div> <br> <div style='float: left;padding-left:30px;'><p>Press '1' for A</p></div><div style='float: right;padding-right:30px;'><p>Press '0' for B</p> </div> </div></div>","null","","","","","","","","","","","","","",""
"2621","","test","audio-keyboard-response","57","281442","0.0-8.0-1.15","LSPC0005","condB","","resources/audio/wordStim/S3_AI_23_bxa_Step-7.wav","48","","","","","AI","resources/audio/wordStim/S3_AI_23_bxa_Step-7.wav","S3","23","bxa","7","MI","1","0","false"
"null","","fixation","html-keyboard-response","58","282445","0.0-8.0-0.16","LSPC0005","condB","","<div class=""vertical-center"" style='width:60%;'><p style='font-weight:bold;'>Does the middle word sound more like the first word (A) or the last word (B)?</p> <br> <div class=""container""> <div id=""a-box""> <p class=""title-text"">A</h3></p> </div> <div id=""x-box""> <p class=""title-text"">X<p> </div> <div id=""b-box""> <p class=""title-text"">B</p></div> <br> <div style='float: left;padding-left:30px;'><p>Press '1' for A</p></div><div style='float: right;padding-right:30px;'><p>Press '0' for B</p> </div> </div></div>","null","","","","","","","","","","","","","",""
"2387","","test","audio-keyboard-response","59","284832","0.0-8.0-1.16","LSPC0005","condB","","resources/audio/wordStim/S9_AI_24_bxa_Step-9.wav","49","","","","","AI","resources/audio/wordStim/S9_AI_24_bxa_Step-9.wav","S9","24","bxa","9","CN","1","1","true"
"null","","fixation","html-keyboard-response","60","285838","0.0-8.0-0.17","LSPC0005","condB","","<div class=""vertical-center"" style='width:60%;'><p style='font-weight:bold;'>Does the middle word sound more like the first word (A) or the last word (B)?</p> <br> <div class=""container""> <div id=""a-box""> <p class=""title-text"">A</h3></p> </div> <div id=""x-box""> <p class=""title-text"">X<p> </div> <div id=""b-box""> <p class=""title-text"">B</p></div> <br> <div style='float: left;padding-left:30px;'><p>Press '1' for A</p></div><div style='float: right;padding-right:30px;'><p>Press '0' for B</p> </div> </div></div>","null","","","","","","","","","","","","","",""
"2528","","test","audio-keyboard-response","61","288368","0.0-8.0-1.17","LSPC0005","condB","","resources/audio/wordStim/S3_AI_25_axb_Step-6.wav","48","","","","","AI","resources/audio/wordStim/S3_AI_25_axb_Step-6.wav","S3","25","axb","6","MI","0","0","true"
"null","","fixation","html-keyboard-response","62","289371","0.0-8.0-0.18","LSPC0005","condB","","<div class=""vertical-center"" style='width:60%;'><p style='font-weight:bold;'>Does the middle word sound more like the first word (A) or the last word (B)?</p> <br> <div class=""container""> <div id=""a-box""> <p class=""title-text"">A</h3></p> </div> <div id=""x-box""> <p class=""title-text"">X<p> </div> <div id=""b-box""> <p class=""title-text"">B</p></div> <br> <div style='float: left;padding-left:30px;'><p>Press '1' for A</p></div><div style='float: right;padding-right:30px;'><p>Press '0' for B</p> </div> </div></div>","null","","","","","","","","","","","","","",""
"2723","","test","audio-keyboard-response","63","292096","0.0-8.0-1.18","LSPC0005","condB","","resources/audio/wordStim/S9_AU_11_bxa_Step-7.wav","49","","","","","AU","resources/audio/wordStim/S9_AU_11_bxa_Step-7.wav","S9","11","bxa","7","CN","1","1","true"
"null","","fixation","html-keyboard-response","64","293098","0.0-8.0-0.19","LSPC0005","condB","","<div class=""vertical-center"" style='width:60%;'><p style='font-weight:bold;'>Does the middle word sound more like the first word (A) or the last word (B)?</p> <br> <div class=""container""> <div id=""a-box""> <p class=""title-text"">A</h3></p> </div> <div id=""x-box""> <p class=""title-text"">X<p> </div> <div id=""b-box""> <p class=""title-text"">B</p></div> <br> <div style='float: left;padding-left:30px;'><p>Press '1' for A</p></div><div style='float: right;padding-right:30px;'><p>Press '0' for B</p> </div> </div></div>","null","","","","","","","","","","","","","",""
"2749","","test","audio-keyboard-response","65","295847","0.0-8.0-1.19","LSPC0005","condB","","resources/audio/wordStim/S3_AI_29_axb_Step-8.wav","48","","","","","AI","resources/audio/wordStim/S3_AI_29_axb_Step-8.wav","S3","29","axb","8","MI","0","0","true"
"null","","fixation","html-keyboard-response","66","296850","0.0-8.0-0.20","LSPC0005","condB","","<div class=""vertical-center"" style='width:60%;'><p style='font-weight:bold;'>Does the middle word sound more like the first word (A) or the last word (B)?</p> <br> <div class=""container""> <div id=""a-box""> <p class=""title-text"">A</h3></p> </div> <div id=""x-box""> <p class=""title-text"">X<p> </div> <div id=""b-box""> <p class=""title-text"">B</p></div> <br> <div style='float: left;padding-left:30px;'><p>Press '1' for A</p></div><div style='float: right;padding-right:30px;'><p>Press '0' for B</p> </div> </div></div>","null","","","","","","","","","","","","","",""
"2920","","test","audio-keyboard-response","67","299768","0.0-8.0-1.20","LSPC0005","condB","","resources/audio/wordStim/S3_AI_22_bxa_Step-9.wav","49","","","","","AI","resources/audio/wordStim/S3_AI_22_bxa_Step-9.wav","S3","22","bxa","9","MI","1","1","true"
"null","","fixation","html-keyboard-response","68","300773","0.0-8.0-0.21","LSPC0005","condB","","<div class=""vertical-center"" style='width:60%;'><p style='font-weight:bold;'>Does the middle word sound more like the first word (A) or the last word (B)?</p> <br> <div class=""container""> <div id=""a-box""> <p class=""title-text"">A</h3></p> </div> <div id=""x-box""> <p class=""title-text"">X<p> </div> <div id=""b-box""> <p class=""title-text"">B</p></div> <br> <div style='float: left;padding-left:30px;'><p>Press '1' for A</p></div><div style='float: right;padding-right:30px;'><p>Press '0' for B</p> </div> </div></div>","null","","","","","","","","","","","","","",""
"2187","","test","audio-keyboard-response","69","302963","0.0-8.0-1.21","LSPC0005","condB","","resources/audio/wordStim/S3_AI_21_bxa_Step-9.wav","49","","","","","AI","resources/audio/wordStim/S3_AI_21_bxa_Step-9.wav","S3","21","bxa","9","MI","1","1","true"
"null","","fixation","html-keyboard-response","70","303970","0.0-8.0-0.22","LSPC0005","condB","","<div class=""vertical-center"" style='width:60%;'><p style='font-weight:bold;'>Does the middle word sound more like the first word (A) or the last word (B)?</p> <br> <div class=""container""> <div id=""a-box""> <p class=""title-text"">A</h3></p> </div> <div id=""x-box""> <p class=""title-text"">X<p> </div> <div id=""b-box""> <p class=""title-text"">B</p></div> <br> <div style='float: left;padding-left:30px;'><p>Press '1' for A</p></div><div style='float: right;padding-right:30px;'><p>Press '0' for B</p> </div> </div></div>","null","","","","","","","","","","","","","",""
"2045","","test","audio-keyboard-response","71","306016","0.0-8.0-1.22","LSPC0005","condB","","resources/audio/wordStim/S3_AI_21_bxa_Step-7.wav","49","","","","","AI","resources/audio/wordStim/S3_AI_21_bxa_Step-7.wav","S3","21","bxa","7","MI","1","1","true"
"null","","fixation","html-keyboard-response","72","307017","0.0-8.0-0.23","LSPC0005","condB","","<div class=""vertical-center"" style='width:60%;'><p style='font-weight:bold;'>Does the middle word sound more like the first word (A) or the last word (B)?</p> <br> <div class=""container""> <div id=""a-box""> <p class=""title-text"">A</h3></p> </div> <div id=""x-box""> <p class=""title-text"">X<p> </div> <div id=""b-box""> <p class=""title-text"">B</p></div> <br> <div style='float: left;padding-left:30px;'><p>Press '1' for A</p></div><div style='float: right;padding-right:30px;'><p>Press '0' for B</p> </div> </div></div>","null","","","","","","","","","","","","","",""
"2720","","test","audio-keyboard-response","73","309738","0.0-8.0-1.23","LSPC0005","condB","","resources/audio/wordStim/S9_AU_19_bxa_Step-10.wav","49","","","","","AU","resources/audio/wordStim/S9_AU_19_bxa_Step-10.wav","S9","19","bxa","10","CN","1","1","true"
"null","","fixation","html-keyboard-response","74","310743","0.0-8.0-0.24","LSPC0005","condB","","<div class=""vertical-center"" style='width:60%;'><p style='font-weight:bold;'>Does the middle word sound more like the first word (A) or the last word (B)?</p> <br> <div class=""container""> <div id=""a-box""> <p class=""title-text"">A</h3></p> </div> <div id=""x-box""> <p class=""title-text"">X<p> </div> <div id=""b-box""> <p class=""title-text"">B</p></div> <br> <div style='float: left;padding-left:30px;'><p>Press '1' for A</p></div><div style='float: right;padding-right:30px;'><p>Press '0' for B</p> </div> </div></div>","null","","","","","","","","","","","","","",""
"2816","","test","audio-keyboard-response","75","313560","0.0-8.0-1.24","LSPC0005","condB","","resources/audio/wordStim/S9_AI_27_bxa_Step-5.wav","49","","","","","AI","resources/audio/wordStim/S9_AI_27_bxa_Step-5.wav","S9","27","bxa","5","CN","1","1","true"
"null","","fixation","html-keyboard-response","76","314562","0.0-8.0-0.25","LSPC0005","condB","","<div class=""vertical-center"" style='width:60%;'><p style='font-weight:bold;'>Does the middle word sound more like the first word (A) or the last word (B)?</p> <br> <div class=""container""> <div id=""a-box""> <p class=""title-text"">A</h3></p> </div> <div id=""x-box""> <p class=""title-text"">X<p> </div> <div id=""b-box""> <p class=""title-text"">B</p></div> <br> <div style='float: left;padding-left:30px;'><p>Press '1' for A</p></div><div style='float: right;padding-right:30px;'><p>Press '0' for B</p> </div> </div></div>","null","","","","","","","","","","","","","",""
"3096","","test","audio-keyboard-response","77","317658","0.0-8.0-1.25","LSPC0005","condB","","resources/audio/wordStim/S9_AU_18_axb_Step-2.wav","49","","","","","AU","resources/audio/wordStim/S9_AU_18_axb_Step-2.wav","S9","18","axb","2","CN","0","1","false"
"null","","fixation","html-keyboard-response","78","318663","0.0-8.0-0.26","LSPC0005","condB","","<div class=""vertical-center"" style='width:60%;'><p style='font-weight:bold;'>Does the middle word sound more like the first word (A) or the last word (B)?</p> <br> <div class=""container""> <div id=""a-box""> <p class=""title-text"">A</h3></p> </div> <div id=""x-box""> <p class=""title-text"">X<p> </div> <div id=""b-box""> <p class=""title-text"">B</p></div> <br> <div style='float: left;padding-left:30px;'><p>Press '1' for A</p></div><div style='float: right;padding-right:30px;'><p>Press '0' for B</p> </div> </div></div>","null","","","","","","","","","","","","","",""
"2864","","test","audio-keyboard-response","79","321528","0.0-8.0-1.26","LSPC0005","condB","","resources/audio/wordStim/S3_AI_29_bxa_Step-5.wav","49","","","","","AI","resources/audio/wordStim/S3_AI_29_bxa_Step-5.wav","S3","29","bxa","5","MI","1","1","true"
"1751","","break","html-keyboard-response","80","323784","0.0-8.0-2.26-0.26","LSPC0005","condB","","<div class=""vertical-center""><p>Feel free to take a break!</p><i>When you're ready to continue, press SPACE to begin the next trial.</i></p></div>","32","","","","","","","","","","","","","",""
"null","","fixation","html-keyboard-response","81","324288","0.0-8.0-0.27","LSPC0005","condB","","<div class=""vertical-center"" style='width:60%;'><p style='font-weight:bold;'>Does the middle word sound more like the first word (A) or the last word (B)?</p> <br> <div class=""container""> <div id=""a-box""> <p class=""title-text"">A</h3></p> </div> <div id=""x-box""> <p class=""title-text"">X<p> </div> <div id=""b-box""> <p class=""title-text"">B</p></div> <br> <div style='float: left;padding-left:30px;'><p>Press '1' for A</p></div><div style='float: right;padding-right:30px;'><p>Press '0' for B</p> </div> </div></div>","null","","","","","","","","","","","","","",""
"2757","","test","audio-keyboard-response","82","327047","0.0-8.0-1.27","LSPC0005","condB","","resources/audio/wordStim/S3_AU_19_axb_Step-4.wav","48","","","","","AU","resources/audio/wordStim/S3_AU_19_axb_Step-4.wav","S3","19","axb","4","MI","0","0","true"
"null","","fixation","html-keyboard-response","83","328050","0.0-8.0-0.28","LSPC0005","condB","","<div class=""vertical-center"" style='width:60%;'><p style='font-weight:bold;'>Does the middle word sound more like the first word (A) or the last word (B)?</p> <br> <div class=""container""> <div id=""a-box""> <p class=""title-text"">A</h3></p> </div> <div id=""x-box""> <p class=""title-text"">X<p> </div> <div id=""b-box""> <p class=""title-text"">B</p></div> <br> <div style='float: left;padding-left:30px;'><p>Press '1' for A</p></div><div style='float: right;padding-right:30px;'><p>Press '0' for B</p> </div> </div></div>","null","","","","","","","","","","","","","",""
"2936","","test","audio-keyboard-response","84","330987","0.0-8.0-1.28","LSPC0005","condB","","resources/audio/wordStim/S9_AU_19_axb_Step-4.wav","48","","","","","AU","resources/audio/wordStim/S9_AU_19_axb_Step-4.wav","S9","19","axb","4","CN","0","0","true"
"null","","fixation","html-keyboard-response","85","331995","0.0-8.0-0.29","LSPC0005","condB","","<div class=""vertical-center"" style='width:60%;'><p style='font-weight:bold;'>Does the middle word sound more like the first word (A) or the last word (B)?</p> <br> <div class=""container""> <div id=""a-box""> <p class=""title-text"">A</h3></p> </div> <div id=""x-box""> <p class=""title-text"">X<p> </div> <div id=""b-box""> <p class=""title-text"">B</p></div> <br> <div style='float: left;padding-left:30px;'><p>Press '1' for A</p></div><div style='float: right;padding-right:30px;'><p>Press '0' for B</p> </div> </div></div>","null","","","","","","","","","","","","","",""
"2203","","test","audio-keyboard-response","86","334200","0.0-8.0-1.29","LSPC0005","condB","","resources/audio/wordStim/S3_AU_14_bxa_Step-10.wav","49","","","","","AU","resources/audio/wordStim/S3_AU_14_bxa_Step-10.wav","S3","14","bxa","10","MI","1","1","true"
"null","","fixation","html-keyboard-response","87","335207","0.0-8.0-0.30","LSPC0005","condB","","<div class=""vertical-center"" style='width:60%;'><p style='font-weight:bold;'>Does the middle word sound more like the first word (A) or the last word (B)?</p> <br> <div class=""container""> <div id=""a-box""> <p class=""title-text"">A</h3></p> </div> <div id=""x-box""> <p class=""title-text"">X<p> </div> <div id=""b-box""> <p class=""title-text"">B</p></div> <br> <div style='float: left;padding-left:30px;'><p>Press '1' for A</p></div><div style='float: right;padding-right:30px;'><p>Press '0' for B</p> </div> </div></div>","null","","","","","","","","","","","","","",""
"3259","","test","audio-keyboard-response","88","338467","0.0-8.0-1.30","LSPC0005","condB","","resources/audio/wordStim/S3_AU_17_bxa_Step-9.wav","49","","","","","AU","resources/audio/wordStim/S3_AU_17_bxa_Step-9.wav","S3","17","bxa","9","MI","1","1","true"
"null","","fixation","html-keyboard-response","89","339468","0.0-8.0-0.31","LSPC0005","condB","","<div class=""vertical-center"" style='width:60%;'><p style='font-weight:bold;'>Does the middle word sound more like the first word (A) or the last word (B)?</p> <br> <div class=""container""> <div id=""a-box""> <p class=""title-text"">A</h3></p> </div> <div id=""x-box""> <p class=""title-text"">X<p> </div> <div id=""b-box""> <p class=""title-text"">B</p></div> <br> <div style='float: left;padding-left:30px;'><p>Press '1' for A</p></div><div style='float: right;padding-right:30px;'><p>Press '0' for B</p> </div> </div></div>","null","","","","","","","","","","","","","",""
"2187","","test","audio-keyboard-response","90","341656","0.0-8.0-1.31","LSPC0005","condB","","resources/audio/wordStim/S3_AI_25_axb_Step-2.wav","49","","","","","AI","resources/audio/wordStim/S3_AI_25_axb_Step-2.wav","S3","25","axb","2","MI","0","1","false"
"null","","fixation","html-keyboard-response","91","342661","0.0-8.0-0.32","LSPC0005","condB","","<div class=""vertical-center"" style='width:60%;'><p style='font-weight:bold;'>Does the middle word sound more like the first word (A) or the last word (B)?</p> <br> <div class=""container""> <div id=""a-box""> <p class=""title-text"">A</h3></p> </div> <div id=""x-box""> <p class=""title-text"">X<p> </div> <div id=""b-box""> <p class=""title-text"">B</p></div> <br> <div style='float: left;padding-left:30px;'><p>Press '1' for A</p></div><div style='float: right;padding-right:30px;'><p>Press '0' for B</p> </div> </div></div>","null","","","","","","","","","","","","","",""
"2360","","test","audio-keyboard-response","92","345019","0.0-8.0-1.32","LSPC0005","condB","","resources/audio/wordStim/S3_AI_21_axb_Step-4.wav","49","","","","","AI","resources/audio/wordStim/S3_AI_21_axb_Step-4.wav","S3","21","axb","4","MI","0","1","false"
"null","","fixation","html-keyboard-response","93","346024","0.0-8.0-0.33","LSPC0005","condB","","<div class=""vertical-center"" style='width:60%;'><p style='font-weight:bold;'>Does the middle word sound more like the first word (A) or the last word (B)?</p> <br> <div class=""container""> <div id=""a-box""> <p class=""title-text"">A</h3></p> </div> <div id=""x-box""> <p class=""title-text"">X<p> </div> <div id=""b-box""> <p class=""title-text"">B</p></div> <br> <div style='float: left;padding-left:30px;'><p>Press '1' for A</p></div><div style='float: right;padding-right:30px;'><p>Press '0' for B</p> </div> </div></div>","null","","","","","","","","","","","","","",""
"2824","","test","audio-keyboard-response","94","348849","0.0-8.0-1.33","LSPC0005","condB","","resources/audio/wordStim/S9_AI_29_axb_Step-4.wav","48","","","","","AI","resources/audio/wordStim/S9_AI_29_axb_Step-4.wav","S9","29","axb","4","CN","0","0","true"
"null","","fixation","html-keyboard-response","95","349854","0.0-8.0-0.34","LSPC0005","condB","","<div class=""vertical-center"" style='width:60%;'><p style='font-weight:bold;'>Does the middle word sound more like the first word (A) or the last word (B)?</p> <br> <div class=""container""> <div id=""a-box""> <p class=""title-text"">A</h3></p> </div> <div id=""x-box""> <p class=""title-text"">X<p> </div> <div id=""b-box""> <p class=""title-text"">B</p></div> <br> <div style='float: left;padding-left:30px;'><p>Press '1' for A</p></div><div style='float: right;padding-right:30px;'><p>Press '0' for B</p> </div> </div></div>","null","","","","","","","","","","","","","",""
"4861","","test","audio-keyboard-response","96","354717","0.0-8.0-1.34","LSPC0005","condB","","resources/audio/wordStim/S3_AU_16_axb_Step-8.wav","48","","","","","AU","resources/audio/wordStim/S3_AU_16_axb_Step-8.wav","S3","16","axb","8","MI","0","0","true"
"null","","fixation","html-keyboard-response","97","355721","0.0-8.0-0.35","LSPC0005","condB","","<div class=""vertical-center"" style='width:60%;'><p style='font-weight:bold;'>Does the middle word sound more like the first word (A) or the last word (B)?</p> <br> <div class=""container""> <div id=""a-box""> <p class=""title-text"">A</h3></p> </div> <div id=""x-box""> <p class=""title-text"">X<p> </div> <div id=""b-box""> <p class=""title-text"">B</p></div> <br> <div style='float: left;padding-left:30px;'><p>Press '1' for A</p></div><div style='float: right;padding-right:30px;'><p>Press '0' for B</p> </div> </div></div>","null","","","","","","","","","","","","","",""
"2437","","test","audio-keyboard-response","98","358160","0.0-8.0-1.35","LSPC0005","condB","","resources/audio/wordStim/S3_AU_19_axb_Step-6.wav","48","","","","","AU","resources/audio/wordStim/S3_AU_19_axb_Step-6.wav","S3","19","axb","6","MI","0","0","true"
"null","","fixation","html-keyboard-response","99","359165","0.0-8.0-0.36","LSPC0005","condB","","<div class=""vertical-center"" style='width:60%;'><p style='font-weight:bold;'>Does the middle word sound more like the first word (A) or the last word (B)?</p> <br> <div class=""container""> <div id=""a-box""> <p class=""title-text"">A</h3></p> </div> <div id=""x-box""> <p class=""title-text"">X<p> </div> <div id=""b-box""> <p class=""title-text"">B</p></div> <br> <div style='float: left;padding-left:30px;'><p>Press '1' for A</p></div><div style='float: right;padding-right:30px;'><p>Press '0' for B</p> </div> </div></div>","null","","","","","","","","","","","","","",""
"2875","","test","audio-keyboard-response","100","362041","0.0-8.0-1.36","LSPC0005","condB","","resources/audio/wordStim/S3_AI_28_bxa_Step-7.wav","49","","","","","AI","resources/audio/wordStim/S3_AI_28_bxa_Step-7.wav","S3","28","bxa","7","MI","1","1","true"
"null","","fixation","html-keyboard-response","101","363043","0.0-8.0-0.37","LSPC0005","condB","","<div class=""vertical-center"" style='width:60%;'><p style='font-weight:bold;'>Does the middle word sound more like the first word (A) or the last word (B)?</p> <br> <div class=""container""> <div id=""a-box""> <p class=""title-text"">A</h3></p> </div> <div id=""x-box""> <p class=""title-text"">X<p> </div> <div id=""b-box""> <p class=""title-text"">B</p></div> <br> <div style='float: left;padding-left:30px;'><p>Press '1' for A</p></div><div style='float: right;padding-right:30px;'><p>Press '0' for B</p> </div> </div></div>","null","","","","","","","","","","","","","",""
"2528","","test","audio-keyboard-response","102","365571","0.0-8.0-1.37","LSPC0005","condB","","resources/audio/wordStim/S9_AU_17_axb_Step-4.wav","49","","","","","AU","resources/audio/wordStim/S9_AU_17_axb_Step-4.wav","S9","17","axb","4","CN","0","1","false"
"null","","fixation","html-keyboard-response","103","366576","0.0-8.0-0.38","LSPC0005","condB","","<div class=""vertical-center"" style='width:60%;'><p style='font-weight:bold;'>Does the middle word sound more like the first word (A) or the last word (B)?</p> <br> <div class=""container""> <div id=""a-box""> <p class=""title-text"">A</h3></p> </div> <div id=""x-box""> <p class=""title-text"">X<p> </div> <div id=""b-box""> <p class=""title-text"">B</p></div> <br> <div style='float: left;padding-left:30px;'><p>Press '1' for A</p></div><div style='float: right;padding-right:30px;'><p>Press '0' for B</p> </div> </div></div>","null","","","","","","","","","","","","","",""
"2701","","test","audio-keyboard-response","104","369281","0.0-8.0-1.38","LSPC0005","condB","","resources/audio/wordStim/S9_AI_30_axb_Step-6.wav","48","","","","","AI","resources/audio/wordStim/S9_AI_30_axb_Step-6.wav","S9","30","axb","6","CN","0","0","true"
"null","","fixation","html-keyboard-response","105","370285","0.0-8.0-0.39","LSPC0005","condB","","<div class=""vertical-center"" style='width:60%;'><p style='font-weight:bold;'>Does the middle word sound more like the first word (A) or the last word (B)?</p> <br> <div class=""container""> <div id=""a-box""> <p class=""title-text"">A</h3></p> </div> <div id=""x-box""> <p class=""title-text"">X<p> </div> <div id=""b-box""> <p class=""title-text"">B</p></div> <br> <div style='float: left;padding-left:30px;'><p>Press '1' for A</p></div><div style='float: right;padding-right:30px;'><p>Press '0' for B</p> </div> </div></div>","null","","","","","","","","","","","","","",""
"2205","","test","audio-keyboard-response","106","372492","0.0-8.0-1.39","LSPC0005","condB","","resources/audio/wordStim/S9_AU_16_axb_Step-8.wav","48","","","","","AU","resources/audio/wordStim/S9_AU_16_axb_Step-8.wav","S9","16","axb","8","CN","0","0","true"
"null","","fixation","html-keyboard-response","107","373494","0.0-8.0-0.40","LSPC0005","condB","","<div class=""vertical-center"" style='width:60%;'><p style='font-weight:bold;'>Does the middle word sound more like the first word (A) or the last word (B)?</p> <br> <div class=""container""> <div id=""a-box""> <p class=""title-text"">A</h3></p> </div> <div id=""x-box""> <p class=""title-text"">X<p> </div> <div id=""b-box""> <p class=""title-text"">B</p></div> <br> <div style='float: left;padding-left:30px;'><p>Press '1' for A</p></div><div style='float: right;padding-right:30px;'><p>Press '0' for B</p> </div> </div></div>","null","","","","","","","","","","","","","",""
"2509","","test","audio-keyboard-response","108","376001","0.0-8.0-1.40","LSPC0005","condB","","resources/audio/wordStim/S3_AU_20_bxa_Step-5.wav","48","","","","","AU","resources/audio/wordStim/S3_AU_20_bxa_Step-5.wav","S3","20","bxa","5","MI","1","0","false"
"null","","fixation","html-keyboard-response","109","377006","0.0-8.0-0.41","LSPC0005","condB","","<div class=""vertical-center"" style='width:60%;'><p style='font-weight:bold;'>Does the middle word sound more like the first word (A) or the last word (B)?</p> <br> <div class=""container""> <div id=""a-box""> <p class=""title-text"">A</h3></p> </div> <div id=""x-box""> <p class=""title-text"">X<p> </div> <div id=""b-box""> <p class=""title-text"">B</p></div> <br> <div style='float: left;padding-left:30px;'><p>Press '1' for A</p></div><div style='float: right;padding-right:30px;'><p>Press '0' for B</p> </div> </div></div>","null","","","","","","","","","","","","","",""
"2181","","test","audio-keyboard-response","110","379188","0.0-8.0-1.41","LSPC0005","condB","","resources/audio/wordStim/S3_AU_19_bxa_Step-3.wav","48","","","","","AU","resources/audio/wordStim/S3_AU_19_bxa_Step-3.wav","S3","19","bxa","3","MI","1","0","false"
"null","","fixation","html-keyboard-response","111","380191","0.0-8.0-0.42","LSPC0005","condB","","<div class=""vertical-center"" style='width:60%;'><p style='font-weight:bold;'>Does the middle word sound more like the first word (A) or the last word (B)?</p> <br> <div class=""container""> <div id=""a-box""> <p class=""title-text"">A</h3></p> </div> <div id=""x-box""> <p class=""title-text"">X<p> </div> <div id=""b-box""> <p class=""title-text"">B</p></div> <br> <div style='float: left;padding-left:30px;'><p>Press '1' for A</p></div><div style='float: right;padding-right:30px;'><p>Press '0' for B</p> </div> </div></div>","null","","","","","","","","","","","","","",""
"2219","","test","audio-keyboard-response","112","382409","0.0-8.0-1.42","LSPC0005","condB","","resources/audio/wordStim/S3_AI_25_bxa_Step-10.wav","49","","","","","AI","resources/audio/wordStim/S3_AI_25_bxa_Step-10.wav","S3","25","bxa","10","MI","1","1","true"
"null","","fixation","html-keyboard-response","113","383412","0.0-8.0-0.43","LSPC0005","condB","","<div class=""vertical-center"" style='width:60%;'><p style='font-weight:bold;'>Does the middle word sound more like the first word (A) or the last word (B)?</p> <br> <div class=""container""> <div id=""a-box""> <p class=""title-text"">A</h3></p> </div> <div id=""x-box""> <p class=""title-text"">X<p> </div> <div id=""b-box""> <p class=""title-text"">B</p></div> <br> <div style='float: left;padding-left:30px;'><p>Press '1' for A</p></div><div style='float: right;padding-right:30px;'><p>Press '0' for B</p> </div> </div></div>","null","","","","","","","","","","","","","",""
"3248","","test","audio-keyboard-response","114","386659","0.0-8.0-1.43","LSPC0005","condB","","resources/audio/wordStim/S9_AU_20_bxa_Step-10.wav","49","","","","","AU","resources/audio/wordStim/S9_AU_20_bxa_Step-10.wav","S9","20","bxa","10","CN","1","1","true"
"null","","fixation","html-keyboard-response","115","387665","0.0-8.0-0.44","LSPC0005","condB","","<div class=""vertical-center"" style='width:60%;'><p style='font-weight:bold;'>Does the middle word sound more like the first word (A) or the last word (B)?</p> <br> <div class=""container""> <div id=""a-box""> <p class=""title-text"">A</h3></p> </div> <div id=""x-box""> <p class=""title-text"">X<p> </div> <div id=""b-box""> <p class=""title-text"">B</p></div> <br> <div style='float: left;padding-left:30px;'><p>Press '1' for A</p></div><div style='float: right;padding-right:30px;'><p>Press '0' for B</p> </div> </div></div>","null","","","","","","","","","","","","","",""
"1936","","test","audio-keyboard-response","116","389601","0.0-8.0-1.44","LSPC0005","condB","","resources/audio/wordStim/S3_AI_21_bxa_Step-10.wav","49","","","","","AI","resources/audio/wordStim/S3_AI_21_bxa_Step-10.wav","S3","21","bxa","10","MI","1","1","true"
"null","","fixation","html-keyboard-response","117","390603","0.0-8.0-0.45","LSPC0005","condB","","<div class=""vertical-center"" style='width:60%;'><p style='font-weight:bold;'>Does the middle word sound more like the first word (A) or the last word (B)?</p> <br> <div class=""container""> <div id=""a-box""> <p class=""title-text"">A</h3></p> </div> <div id=""x-box""> <p class=""title-text"">X<p> </div> <div id=""b-box""> <p class=""title-text"">B</p></div> <br> <div style='float: left;padding-left:30px;'><p>Press '1' for A</p></div><div style='float: right;padding-right:30px;'><p>Press '0' for B</p> </div> </div></div>","null","","","","","","","","","","","","","",""
"2493","","test","audio-keyboard-response","118","393098","0.0-8.0-1.45","LSPC0005","condB","","resources/audio/wordStim/S3_AI_22_axb_Step-8.wav","48","","","","","AI","resources/audio/wordStim/S3_AI_22_axb_Step-8.wav","S3","22","axb","8","MI","0","0","true"
"null","","fixation","html-keyboard-response","119","394105","0.0-8.0-0.46","LSPC0005","condB","","<div class=""vertical-center"" style='width:60%;'><p style='font-weight:bold;'>Does the middle word sound more like the first word (A) or the last word (B)?</p> <br> <div class=""container""> <div id=""a-box""> <p class=""title-text"">A</h3></p> </div> <div id=""x-box""> <p class=""title-text"">X<p> </div> <div id=""b-box""> <p class=""title-text"">B</p></div> <br> <div style='float: left;padding-left:30px;'><p>Press '1' for A</p></div><div style='float: right;padding-right:30px;'><p>Press '0' for B</p> </div> </div></div>","null","","","","","","","","","","","","","",""
"3160","","test","audio-keyboard-response","120","397266","0.0-8.0-1.46","LSPC0005","condB","","resources/audio/wordStim/S3_AU_16_bxa_Step-10.wav","49","","","","","AU","resources/audio/wordStim/S3_AU_16_bxa_Step-10.wav","S3","16","bxa","10","MI","1","1","true"
"null","","fixation","html-keyboard-response","121","398268","0.0-8.0-0.47","LSPC0005","condB","","<div class=""vertical-center"" style='width:60%;'><p style='font-weight:bold;'>Does the middle word sound more like the first word (A) or the last word (B)?</p> <br> <div class=""container""> <div id=""a-box""> <p class=""title-text"">A</h3></p> </div> <div id=""x-box""> <p class=""title-text"">X<p> </div> <div id=""b-box""> <p class=""title-text"">B</p></div> <br> <div style='float: left;padding-left:30px;'><p>Press '1' for A</p></div><div style='float: right;padding-right:30px;'><p>Press '0' for B</p> </div> </div></div>","null","","","","","","","","","","","","","",""
"3312","","test","audio-keyboard-response","122","401580","0.0-8.0-1.47","LSPC0005","condB","","resources/audio/wordStim/S9_AI_22_bxa_Step-10.wav","49","","","","","AI","resources/audio/wordStim/S9_AI_22_bxa_Step-10.wav","S9","22","bxa","10","CN","1","1","true"
"null","","fixation","html-keyboard-response","123","402583","0.0-8.0-0.48","LSPC0005","condB","","<div class=""vertical-center"" style='width:60%;'><p style='font-weight:bold;'>Does the middle word sound more like the first word (A) or the last word (B)?</p> <br> <div class=""container""> <div id=""a-box""> <p class=""title-text"">A</h3></p> </div> <div id=""x-box""> <p class=""title-text"">X<p> </div> <div id=""b-box""> <p class=""title-text"">B</p></div> <br> <div style='float: left;padding-left:30px;'><p>Press '1' for A</p></div><div style='float: right;padding-right:30px;'><p>Press '0' for B</p> </div> </div></div>","null","","","","","","","","","","","","","",""
"2195","","test","audio-keyboard-response","124","404778","0.0-8.0-1.48","LSPC0005","condB","","resources/audio/wordStim/S9_AU_20_axb_Step-8.wav","48","","","","","AU","resources/audio/wordStim/S9_AU_20_axb_Step-8.wav","S9","20","axb","8","CN","0","0","true"
"null","","fixation","html-keyboard-response","125","405780","0.0-8.0-0.49","LSPC0005","condB","","<div class=""vertical-center"" style='width:60%;'><p style='font-weight:bold;'>Does the middle word sound more like the first word (A) or the last word (B)?</p> <br> <div class=""container""> <div id=""a-box""> <p class=""title-text"">A</h3></p> </div> <div id=""x-box""> <p class=""title-text"">X<p> </div> <div id=""b-box""> <p class=""title-text"">B</p></div> <br> <div style='float: left;padding-left:30px;'><p>Press '1' for A</p></div><div style='float: right;padding-right:30px;'><p>Press '0' for B</p> </div> </div></div>","null","","","","","","","","","","","","","",""
"3544","","test","audio-keyboard-response","126","409323","0.0-8.0-1.49","LSPC0005","condB","","resources/audio/wordStim/S3_AU_16_bxa_Step-9.wav","48","","","","","AU","resources/audio/wordStim/S3_AU_16_bxa_Step-9.wav","S3","16","bxa","9","MI","1","0","false"
"null","","fixation","html-keyboard-response","127","410327","0.0-8.0-0.50","LSPC0005","condB","","<div class=""vertical-center"" style='width:60%;'><p style='font-weight:bold;'>Does the middle word sound more like the first word (A) or the last word (B)?</p> <br> <div class=""container""> <div id=""a-box""> <p class=""title-text"">A</h3></p> </div> <div id=""x-box""> <p class=""title-text"">X<p> </div> <div id=""b-box""> <p class=""title-text"">B</p></div> <br> <div style='float: left;padding-left:30px;'><p>Press '1' for A</p></div><div style='float: right;padding-right:30px;'><p>Press '0' for B</p> </div> </div></div>","null","","","","","","","","","","","","","",""
"2451","","test","audio-keyboard-response","128","412777","0.0-8.0-1.50","LSPC0005","condB","","resources/audio/wordStim/S3_AI_28_axb_Step-6.wav","48","","","","","AI","resources/audio/wordStim/S3_AI_28_axb_Step-6.wav","S3","28","axb","6","MI","0","0","true"
"null","","fixation","html-keyboard-response","129","413783","0.0-8.0-0.51","LSPC0005","condB","","<div class=""vertical-center"" style='width:60%;'><p style='font-weight:bold;'>Does the middle word sound more like the first word (A) or the last word (B)?</p> <br> <div class=""container""> <div id=""a-box""> <p class=""title-text"">A</h3></p> </div> <div id=""x-box""> <p class=""title-text"">X<p> </div> <div id=""b-box""> <p class=""title-text"">B</p></div> <br> <div style='float: left;padding-left:30px;'><p>Press '1' for A</p></div><div style='float: right;padding-right:30px;'><p>Press '0' for B</p> </div> </div></div>","null","","","","","","","","","","","","","",""
"2867","","test","audio-keyboard-response","130","416649","0.0-8.0-1.51","LSPC0005","condB","","resources/audio/wordStim/S9_AI_25_bxa_Step-7.wav","49","","","","","AI","resources/audio/wordStim/S9_AI_25_bxa_Step-7.wav","S9","25","bxa","7","CN","1","1","true"
"null","","fixation","html-keyboard-response","131","417656","0.0-8.0-0.52","LSPC0005","condB","","<div class=""vertical-center"" style='width:60%;'><p style='font-weight:bold;'>Does the middle word sound more like the first word (A) or the last word (B)?</p> <br> <div class=""container""> <div id=""a-box""> <p class=""title-text"">A</h3></p> </div> <div id=""x-box""> <p class=""title-text"">X<p> </div> <div id=""b-box""> <p class=""title-text"">B</p></div> <br> <div style='float: left;padding-left:30px;'><p>Press '1' for A</p></div><div style='float: right;padding-right:30px;'><p>Press '0' for B</p> </div> </div></div>","null","","","","","","","","","","","","","",""
"2331","","test","audio-keyboard-response","132","419988","0.0-8.0-1.52","LSPC0005","condB","","resources/audio/wordStim/S3_AI_28_axb_Step-4.wav","49","","","","","AI","resources/audio/wordStim/S3_AI_28_axb_Step-4.wav","S3","28","axb","4","MI","0","1","false"
"null","","fixation","html-keyboard-response","133","420991","0.0-8.0-0.53","LSPC0005","condB","","<div class=""vertical-center"" style='width:60%;'><p style='font-weight:bold;'>Does the middle word sound more like the first word (A) or the last word (B)?</p> <br> <div class=""container""> <div id=""a-box""> <p class=""title-text"">A</h3></p> </div> <div id=""x-box""> <p class=""title-text"">X<p> </div> <div id=""b-box""> <p class=""title-text"">B</p></div> <br> <div style='float: left;padding-left:30px;'><p>Press '1' for A</p></div><div style='float: right;padding-right:30px;'><p>Press '0' for B</p> </div> </div></div>","null","","","","","","","","","","","","","",""
"2683","","test","audio-keyboard-response","134","423673","0.0-8.0-1.53","LSPC0005","condB","","resources/audio/wordStim/S9_AU_19_bxa_Step-9.wav","49","","","","","AU","resources/audio/wordStim/S9_AU_19_bxa_Step-9.wav","S9","19","bxa","9","CN","1","1","true"
"3831","","break","html-keyboard-response","135","428009","0.0-8.0-2.53-0.53","LSPC0005","condB","","<div class=""vertical-center""><p>Feel free to take a break!</p><i>When you're ready to continue, press SPACE to begin the next trial.</i></p></div>","32","","","","","","","","","","","","","",""
"null","","fixation","html-keyboard-response","136","428511","0.0-8.0-0.54","LSPC0005","condB","","<div class=""vertical-center"" style='width:60%;'><p style='font-weight:bold;'>Does the middle word sound more like the first word (A) or the last word (B)?</p> <br> <div class=""container""> <div id=""a-box""> <p class=""title-text"">A</h3></p> </div> <div id=""x-box""> <p class=""title-text"">X<p> </div> <div id=""b-box""> <p class=""title-text"">B</p></div> <br> <div style='float: left;padding-left:30px;'><p>Press '1' for A</p></div><div style='float: right;padding-right:30px;'><p>Press '0' for B</p> </div> </div></div>","null","","","","","","","","","","","","","",""
"2531","","test","audio-keyboard-response","137","431042","0.0-8.0-1.54","LSPC0005","condB","","resources/audio/wordStim/S9_AU_19_axb_Step-6.wav","48","","","","","AU","resources/audio/wordStim/S9_AU_19_axb_Step-6.wav","S9","19","axb","6","CN","0","0","true"
"null","","fixation","html-keyboard-response","138","432046","0.0-8.0-0.55","LSPC0005","condB","","<div class=""vertical-center"" style='width:60%;'><p style='font-weight:bold;'>Does the middle word sound more like the first word (A) or the last word (B)?</p> <br> <div class=""container""> <div id=""a-box""> <p class=""title-text"">A</h3></p> </div> <div id=""x-box""> <p class=""title-text"">X<p> </div> <div id=""b-box""> <p class=""title-text"">B</p></div> <br> <div style='float: left;padding-left:30px;'><p>Press '1' for A</p></div><div style='float: right;padding-right:30px;'><p>Press '0' for B</p> </div> </div></div>","null","","","","","","","","","","","","","",""
"2155","","test","audio-keyboard-response","139","434202","0.0-8.0-1.55","LSPC0005","condB","","resources/audio/wordStim/S3_AU_14_bxa_Step-9.wav","49","","","","","AU","resources/audio/wordStim/S3_AU_14_bxa_Step-9.wav","S3","14","bxa","9","MI","1","1","true"
"null","","fixation","html-keyboard-response","140","435207","0.0-8.0-0.56","LSPC0005","condB","","<div class=""vertical-center"" style='width:60%;'><p style='font-weight:bold;'>Does the middle word sound more like the first word (A) or the last word (B)?</p> <br> <div class=""container""> <div id=""a-box""> <p class=""title-text"">A</h3></p> </div> <div id=""x-box""> <p class=""title-text"">X<p> </div> <div id=""b-box""> <p class=""title-text"">B</p></div> <br> <div style='float: left;padding-left:30px;'><p>Press '1' for A</p></div><div style='float: right;padding-right:30px;'><p>Press '0' for B</p> </div> </div></div>","null","","","","","","","","","","","","","",""
"2043","","test","audio-keyboard-response","141","437250","0.0-8.0-1.56","LSPC0005","condB","","resources/audio/wordStim/S3_AU_14_bxa_Step-5.wav","48","","","","","AU","resources/audio/wordStim/S3_AU_14_bxa_Step-5.wav","S3","14","bxa","5","MI","1","0","false"
"null","","fixation","html-keyboard-response","142","438258","0.0-8.0-0.57","LSPC0005","condB","","<div class=""vertical-center"" style='width:60%;'><p style='font-weight:bold;'>Does the middle word sound more like the first word (A) or the last word (B)?</p> <br> <div class=""container""> <div id=""a-box""> <p class=""title-text"">A</h3></p> </div> <div id=""x-box""> <p class=""title-text"">X<p> </div> <div id=""b-box""> <p class=""title-text"">B</p></div> <br> <div style='float: left;padding-left:30px;'><p>Press '1' for A</p></div><div style='float: right;padding-right:30px;'><p>Press '0' for B</p> </div> </div></div>","null","","","","","","","","","","","","","",""
"2536","","test","audio-keyboard-response","143","440796","0.0-8.0-1.57","LSPC0005","condB","","resources/audio/wordStim/S3_AI_30_axb_Step-6.wav","48","","","","","AI","resources/audio/wordStim/S3_AI_30_axb_Step-6.wav","S3","30","axb","6","MI","0","0","true"
"null","","fixation","html-keyboard-response","144","441801","0.0-8.0-0.58","LSPC0005","condB","","<div class=""vertical-center"" style='width:60%;'><p style='font-weight:bold;'>Does the middle word sound more like the first word (A) or the last word (B)?</p> <br> <div class=""container""> <div id=""a-box""> <p class=""title-text"">A</h3></p> </div> <div id=""x-box""> <p class=""title-text"">X<p> </div> <div id=""b-box""> <p class=""title-text"">B</p></div> <br> <div style='float: left;padding-left:30px;'><p>Press '1' for A</p></div><div style='float: right;padding-right:30px;'><p>Press '0' for B</p> </div> </div></div>","null","","","","","","","","","","","","","",""
"2928","","test","audio-keyboard-response","145","444730","0.0-8.0-1.58","LSPC0005","condB","","resources/audio/wordStim/S9_AU_16_bxa_Step-10.wav","49","","","","","AU","resources/audio/wordStim/S9_AU_16_bxa_Step-10.wav","S9","16","bxa","10","CN","1","1","true"
"null","","fixation","html-keyboard-response","146","445733","0.0-8.0-0.59","LSPC0005","condB","","<div class=""vertical-center"" style='width:60%;'><p style='font-weight:bold;'>Does the middle word sound more like the first word (A) or the last word (B)?</p> <br> <div class=""container""> <div id=""a-box""> <p class=""title-text"">A</h3></p> </div> <div id=""x-box""> <p class=""title-text"">X<p> </div> <div id=""b-box""> <p class=""title-text"">B</p></div> <br> <div style='float: left;padding-left:30px;'><p>Press '1' for A</p></div><div style='float: right;padding-right:30px;'><p>Press '0' for B</p> </div> </div></div>","null","","","","","","","","","","","","","",""
"2403","","test","audio-keyboard-response","147","448138","0.0-8.0-1.59","LSPC0005","condB","","resources/audio/wordStim/S3_AU_11_bxa_Step-3.wav","48","","","","","AU","resources/audio/wordStim/S3_AU_11_bxa_Step-3.wav","S3","11","bxa","3","MI","1","0","false"
"null","","fixation","html-keyboard-response","148","449143","0.0-8.0-0.60","LSPC0005","condB","","<div class=""vertical-center"" style='width:60%;'><p style='font-weight:bold;'>Does the middle word sound more like the first word (A) or the last word (B)?</p> <br> <div class=""container""> <div id=""a-box""> <p class=""title-text"">A</h3></p> </div> <div id=""x-box""> <p class=""title-text"">X<p> </div> <div id=""b-box""> <p class=""title-text"">B</p></div> <br> <div style='float: left;padding-left:30px;'><p>Press '1' for A</p></div><div style='float: right;padding-right:30px;'><p>Press '0' for B</p> </div> </div></div>","null","","","","","","","","","","","","","",""
"2477","","test","audio-keyboard-response","149","451620","0.0-8.0-1.60","LSPC0005","condB","","resources/audio/wordStim/S3_AU_19_axb_Step-8.wav","48","","","","","AU","resources/audio/wordStim/S3_AU_19_axb_Step-8.wav","S3","19","axb","8","MI","0","0","true"
"null","","fixation","html-keyboard-response","150","452623","0.0-8.0-0.61","LSPC0005","condB","","<div class=""vertical-center"" style='width:60%;'><p style='font-weight:bold;'>Does the middle word sound more like the first word (A) or the last word (B)?</p> <br> <div class=""container""> <div id=""a-box""> <p class=""title-text"">A</h3></p> </div> <div id=""x-box""> <p class=""title-text"">X<p> </div> <div id=""b-box""> <p class=""title-text"">B</p></div> <br> <div style='float: left;padding-left:30px;'><p>Press '1' for A</p></div><div style='float: right;padding-right:30px;'><p>Press '0' for B</p> </div> </div></div>","null","","","","","","","","","","","","","",""
"3477","","test","audio-keyboard-response","151","456099","0.0-8.0-1.61","LSPC0005","condB","","resources/audio/wordStim/S9_AI_22_bxa_Step-9.wav","49","","","","","AI","resources/audio/wordStim/S9_AI_22_bxa_Step-9.wav","S9","22","bxa","9","CN","1","1","true"
"null","","fixation","html-keyboard-response","152","457103","0.0-8.0-0.62","LSPC0005","condB","","<div class=""vertical-center"" style='width:60%;'><p style='font-weight:bold;'>Does the middle word sound more like the first word (A) or the last word (B)?</p> <br> <div class=""container""> <div id=""a-box""> <p class=""title-text"">A</h3></p> </div> <div id=""x-box""> <p class=""title-text"">X<p> </div> <div id=""b-box""> <p class=""title-text"">B</p></div> <br> <div style='float: left;padding-left:30px;'><p>Press '1' for A</p></div><div style='float: right;padding-right:30px;'><p>Press '0' for B</p> </div> </div></div>","null","","","","","","","","","","","","","",""
"3099","","test","audio-keyboard-response","153","460202","0.0-8.0-1.62","LSPC0005","condB","","resources/audio/wordStim/S9_AI_25_axb_Step-8.wav","48","","","","","AI","resources/audio/wordStim/S9_AI_25_axb_Step-8.wav","S9","25","axb","8","CN","0","0","true"
"null","","fixation","html-keyboard-response","154","461208","0.0-8.0-0.63","LSPC0005","condB","","<div class=""vertical-center"" style='width:60%;'><p style='font-weight:bold;'>Does the middle word sound more like the first word (A) or the last word (B)?</p> <br> <div class=""container""> <div id=""a-box""> <p class=""title-text"">A</h3></p> </div> <div id=""x-box""> <p class=""title-text"">X<p> </div> <div id=""b-box""> <p class=""title-text"">B</p></div> <br> <div style='float: left;padding-left:30px;'><p>Press '1' for A</p></div><div style='float: right;padding-right:30px;'><p>Press '0' for B</p> </div> </div></div>","null","","","","","","","","","","","","","",""
"3371","","test","audio-keyboard-response","155","464579","0.0-8.0-1.63","LSPC0005","condB","","resources/audio/wordStim/S3_AU_17_bxa_Step-10.wav","49","","","","","AU","resources/audio/wordStim/S3_AU_17_bxa_Step-10.wav","S3","17","bxa","10","MI","1","1","true"
"null","","fixation","html-keyboard-response","156","465581","0.0-8.0-0.64","LSPC0005","condB","","<div class=""vertical-center"" style='width:60%;'><p style='font-weight:bold;'>Does the middle word sound more like the first word (A) or the last word (B)?</p> <br> <div class=""container""> <div id=""a-box""> <p class=""title-text"">A</h3></p> </div> <div id=""x-box""> <p class=""title-text"">X<p> </div> <div id=""b-box""> <p class=""title-text"">B</p></div> <br> <div style='float: left;padding-left:30px;'><p>Press '1' for A</p></div><div style='float: right;padding-right:30px;'><p>Press '0' for B</p> </div> </div></div>","null","","","","","","","","","","","","","",""
"3027","","test","audio-keyboard-response","157","468605","0.0-8.0-1.64","LSPC0005","condB","","resources/audio/wordStim/S3_AU_14_axb_Step-2.wav","49","","","","","AU","resources/audio/wordStim/S3_AU_14_axb_Step-2.wav","S3","14","axb","2","MI","0","1","false"
"null","","fixation","html-keyboard-response","158","469610","0.0-8.0-0.65","LSPC0005","condB","","<div class=""vertical-center"" style='width:60%;'><p style='font-weight:bold;'>Does the middle word sound more like the first word (A) or the last word (B)?</p> <br> <div class=""container""> <div id=""a-box""> <p class=""title-text"">A</h3></p> </div> <div id=""x-box""> <p class=""title-text"">X<p> </div> <div id=""b-box""> <p class=""title-text"">B</p></div> <br> <div style='float: left;padding-left:30px;'><p>Press '1' for A</p></div><div style='float: right;padding-right:30px;'><p>Press '0' for B</p> </div> </div></div>","null","","","","","","","","","","","","","",""
"3176","","test","audio-keyboard-response","159","472786","0.0-8.0-1.65","LSPC0005","condB","","resources/audio/wordStim/S3_AU_18_bxa_Step-9.wav","49","","","","","AU","resources/audio/wordStim/S3_AU_18_bxa_Step-9.wav","S3","18","bxa","9","MI","1","1","true"
"null","","fixation","html-keyboard-response","160","473793","0.0-8.0-0.66","LSPC0005","condB","","<div class=""vertical-center"" style='width:60%;'><p style='font-weight:bold;'>Does the middle word sound more like the first word (A) or the last word (B)?</p> <br> <div class=""container""> <div id=""a-box""> <p class=""title-text"">A</h3></p> </div> <div id=""x-box""> <p class=""title-text"">X<p> </div> <div id=""b-box""> <p class=""title-text"">B</p></div> <br> <div style='float: left;padding-left:30px;'><p>Press '1' for A</p></div><div style='float: right;padding-right:30px;'><p>Press '0' for B</p> </div> </div></div>","null","","","","","","","","","","","","","",""
"3219","","test","audio-keyboard-response","161","477010","0.0-8.0-1.66","LSPC0005","condB","","resources/audio/wordStim/S3_AU_16_bxa_Step-3.wav","48","","","","","AU","resources/audio/wordStim/S3_AU_16_bxa_Step-3.wav","S3","16","bxa","3","MI","1","0","false"
"null","","fixation","html-keyboard-response","162","478015","0.0-8.0-0.67","LSPC0005","condB","","<div class=""vertical-center"" style='width:60%;'><p style='font-weight:bold;'>Does the middle word sound more like the first word (A) or the last word (B)?</p> <br> <div class=""container""> <div id=""a-box""> <p class=""title-text"">A</h3></p> </div> <div id=""x-box""> <p class=""title-text"">X<p> </div> <div id=""b-box""> <p class=""title-text"">B</p></div> <br> <div style='float: left;padding-left:30px;'><p>Press '1' for A</p></div><div style='float: right;padding-right:30px;'><p>Press '0' for B</p> </div> </div></div>","null","","","","","","","","","","","","","",""
"3800","","test","audio-keyboard-response","163","481813","0.0-8.0-1.67","LSPC0005","condB","","resources/audio/wordStim/S9_AI_29_bxa_Step-5.wav","48","","","","","AI","resources/audio/wordStim/S9_AI_29_bxa_Step-5.wav","S9","29","bxa","5","CN","1","0","false"
"null","","fixation","html-keyboard-response","164","482818","0.0-8.0-0.68","LSPC0005","condB","","<div class=""vertical-center"" style='width:60%;'><p style='font-weight:bold;'>Does the middle word sound more like the first word (A) or the last word (B)?</p> <br> <div class=""container""> <div id=""a-box""> <p class=""title-text"">A</h3></p> </div> <div id=""x-box""> <p class=""title-text"">X<p> </div> <div id=""b-box""> <p class=""title-text"">B</p></div> <br> <div style='float: left;padding-left:30px;'><p>Press '1' for A</p></div><div style='float: right;padding-right:30px;'><p>Press '0' for B</p> </div> </div></div>","null","","","","","","","","","","","","","",""
"2869","","test","audio-keyboard-response","165","485690","0.0-8.0-1.68","LSPC0005","condB","","resources/audio/wordStim/S9_AI_23_bxa_Step-7.wav","49","","","","","AI","resources/audio/wordStim/S9_AI_23_bxa_Step-7.wav","S9","23","bxa","7","CN","1","1","true"
"null","","fixation","html-keyboard-response","166","486699","0.0-8.0-0.69","LSPC0005","condB","","<div class=""vertical-center"" style='width:60%;'><p style='font-weight:bold;'>Does the middle word sound more like the first word (A) or the last word (B)?</p> <br> <div class=""container""> <div id=""a-box""> <p class=""title-text"">A</h3></p> </div> <div id=""x-box""> <p class=""title-text"">X<p> </div> <div id=""b-box""> <p class=""title-text"">B</p></div> <br> <div style='float: left;padding-left:30px;'><p>Press '1' for A</p></div><div style='float: right;padding-right:30px;'><p>Press '0' for B</p> </div> </div></div>","null","","","","","","","","","","","","","",""
"2845","","test","audio-keyboard-response","167","489547","0.0-8.0-1.69","LSPC0005","condB","","resources/audio/wordStim/S3_AI_30_bxa_Step-7.wav","48","","","","","AI","resources/audio/wordStim/S3_AI_30_bxa_Step-7.wav","S3","30","bxa","7","MI","1","0","false"
"null","","fixation","html-keyboard-response","168","490549","0.0-8.0-0.70","LSPC0005","condB","","<div class=""vertical-center"" style='width:60%;'><p style='font-weight:bold;'>Does the middle word sound more like the first word (A) or the last word (B)?</p> <br> <div class=""container""> <div id=""a-box""> <p class=""title-text"">A</h3></p> </div> <div id=""x-box""> <p class=""title-text"">X<p> </div> <div id=""b-box""> <p class=""title-text"">B</p></div> <br> <div style='float: left;padding-left:30px;'><p>Press '1' for A</p></div><div style='float: right;padding-right:30px;'><p>Press '0' for B</p> </div> </div></div>","null","","","","","","","","","","","","","",""
"3653","","test","audio-keyboard-response","169","494203","0.0-8.0-1.70","LSPC0005","condB","","resources/audio/wordStim/S3_AU_16_bxa_Step-7.wav","49","","","","","AU","resources/audio/wordStim/S3_AU_16_bxa_Step-7.wav","S3","16","bxa","7","MI","1","1","true"
"null","","fixation","html-keyboard-response","170","495208","0.0-8.0-0.71","LSPC0005","condB","","<div class=""vertical-center"" style='width:60%;'><p style='font-weight:bold;'>Does the middle word sound more like the first word (A) or the last word (B)?</p> <br> <div class=""container""> <div id=""a-box""> <p class=""title-text"">A</h3></p> </div> <div id=""x-box""> <p class=""title-text"">X<p> </div> <div id=""b-box""> <p class=""title-text"">B</p></div> <br> <div style='float: left;padding-left:30px;'><p>Press '1' for A</p></div><div style='float: right;padding-right:30px;'><p>Press '0' for B</p> </div> </div></div>","null","","","","","","","","","","","","","",""
"3648","","test","audio-keyboard-response","171","498859","0.0-8.0-1.71","LSPC0005","condB","","resources/audio/wordStim/S3_AI_21_axb_Step-8.wav","48","","","","","AI","resources/audio/wordStim/S3_AI_21_axb_Step-8.wav","S3","21","axb","8","MI","0","0","true"
"null","","fixation","html-keyboard-response","172","499862","0.0-8.0-0.72","LSPC0005","condB","","<div class=""vertical-center"" style='width:60%;'><p style='font-weight:bold;'>Does the middle word sound more like the first word (A) or the last word (B)?</p> <br> <div class=""container""> <div id=""a-box""> <p class=""title-text"">A</h3></p> </div> <div id=""x-box""> <p class=""title-text"">X<p> </div> <div id=""b-box""> <p class=""title-text"">B</p></div> <br> <div style='float: left;padding-left:30px;'><p>Press '1' for A</p></div><div style='float: right;padding-right:30px;'><p>Press '0' for B</p> </div> </div></div>","null","","","","","","","","","","","","","",""
"3835","","test","audio-keyboard-response","173","503694","0.0-8.0-1.72","LSPC0005","condB","","resources/audio/wordStim/S3_AU_15_bxa_Step-5.wav","48","","","","","AU","resources/audio/wordStim/S3_AU_15_bxa_Step-5.wav","S3","15","bxa","5","MI","1","0","false"
"null","","fixation","html-keyboard-response","174","504695","0.0-8.0-0.73","LSPC0005","condB","","<div class=""vertical-center"" style='width:60%;'><p style='font-weight:bold;'>Does the middle word sound more like the first word (A) or the last word (B)?</p> <br> <div class=""container""> <div id=""a-box""> <p class=""title-text"">A</h3></p> </div> <div id=""x-box""> <p class=""title-text"">X<p> </div> <div id=""b-box""> <p class=""title-text"">B</p></div> <br> <div style='float: left;padding-left:30px;'><p>Press '1' for A</p></div><div style='float: right;padding-right:30px;'><p>Press '0' for B</p> </div> </div></div>","null","","","","","","","","","","","","","",""
"3347","","test","audio-keyboard-response","175","508043","0.0-8.0-1.73","LSPC0005","condB","","resources/audio/wordStim/S3_AU_17_bxa_Step-3.wav","48","","","","","AU","resources/audio/wordStim/S3_AU_17_bxa_Step-3.wav","S3","17","bxa","3","MI","1","0","false"
"null","","fixation","html-keyboard-response","176","509047","0.0-8.0-0.74","LSPC0005","condB","","<div class=""vertical-center"" style='width:60%;'><p style='font-weight:bold;'>Does the middle word sound more like the first word (A) or the last word (B)?</p> <br> <div class=""container""> <div id=""a-box""> <p class=""title-text"">A</h3></p> </div> <div id=""x-box""> <p class=""title-text"">X<p> </div> <div id=""b-box""> <p class=""title-text"">B</p></div> <br> <div style='float: left;padding-left:30px;'><p>Press '1' for A</p></div><div style='float: right;padding-right:30px;'><p>Press '0' for B</p> </div> </div></div>","null","","","","","","","","","","","","","",""
"2741","","test","audio-keyboard-response","177","511790","0.0-8.0-1.74","LSPC0005","condB","","resources/audio/wordStim/S9_AI_29_axb_Step-8.wav","48","","","","","AI","resources/audio/wordStim/S9_AI_29_axb_Step-8.wav","S9","29","axb","8","CN","0","0","true"
"null","","fixation","html-keyboard-response","178","512792","0.0-8.0-0.75","LSPC0005","condB","","<div class=""vertical-center"" style='width:60%;'><p style='font-weight:bold;'>Does the middle word sound more like the first word (A) or the last word (B)?</p> <br> <div class=""container""> <div id=""a-box""> <p class=""title-text"">A</h3></p> </div> <div id=""x-box""> <p class=""title-text"">X<p> </div> <div id=""b-box""> <p class=""title-text"">B</p></div> <br> <div style='float: left;padding-left:30px;'><p>Press '1' for A</p></div><div style='float: right;padding-right:30px;'><p>Press '0' for B</p> </div> </div></div>","null","","","","","","","","","","","","","",""
"3744","","test","audio-keyboard-response","179","516539","0.0-8.0-1.75","LSPC0005","condB","","resources/audio/wordStim/S3_AU_15_axb_Step-8.wav","48","","","","","AU","resources/audio/wordStim/S3_AU_15_axb_Step-8.wav","S3","15","axb","8","MI","0","0","true"
"null","","fixation","html-keyboard-response","180","517550","0.0-8.0-0.76","LSPC0005","condB","","<div class=""vertical-center"" style='width:60%;'><p style='font-weight:bold;'>Does the middle word sound more like the first word (A) or the last word (B)?</p> <br> <div class=""container""> <div id=""a-box""> <p class=""title-text"">A</h3></p> </div> <div id=""x-box""> <p class=""title-text"">X<p> </div> <div id=""b-box""> <p class=""title-text"">B</p></div> <br> <div style='float: left;padding-left:30px;'><p>Press '1' for A</p></div><div style='float: right;padding-right:30px;'><p>Press '0' for B</p> </div> </div></div>","null","","","","","","","","","","","","","",""
"4421","","test","audio-keyboard-response","181","521971","0.0-8.0-1.76","LSPC0005","condB","","resources/audio/wordStim/S3_AU_11_bxa_Step-9.wav","49","","","","","AU","resources/audio/wordStim/S3_AU_11_bxa_Step-9.wav","S3","11","bxa","9","MI","1","1","true"
"null","","fixation","html-keyboard-response","182","522974","0.0-8.0-0.77","LSPC0005","condB","","<div class=""vertical-center"" style='width:60%;'><p style='font-weight:bold;'>Does the middle word sound more like the first word (A) or the last word (B)?</p> <br> <div class=""container""> <div id=""a-box""> <p class=""title-text"">A</h3></p> </div> <div id=""x-box""> <p class=""title-text"">X<p> </div> <div id=""b-box""> <p class=""title-text"">B</p></div> <br> <div style='float: left;padding-left:30px;'><p>Press '1' for A</p></div><div style='float: right;padding-right:30px;'><p>Press '0' for B</p> </div> </div></div>","null","","","","","","","","","","","","","",""
"2661","","test","audio-keyboard-response","183","525635","0.0-8.0-1.77","LSPC0005","condB","","resources/audio/wordStim/S3_AI_23_bxa_Step-9.wav","48","","","","","AI","resources/audio/wordStim/S3_AI_23_bxa_Step-9.wav","S3","23","bxa","9","MI","1","0","false"
"null","","fixation","html-keyboard-response","184","526640","0.0-8.0-0.78","LSPC0005","condB","","<div class=""vertical-center"" style='width:60%;'><p style='font-weight:bold;'>Does the middle word sound more like the first word (A) or the last word (B)?</p> <br> <div class=""container""> <div id=""a-box""> <p class=""title-text"">A</h3></p> </div> <div id=""x-box""> <p class=""title-text"">X<p> </div> <div id=""b-box""> <p class=""title-text"">B</p></div> <br> <div style='float: left;padding-left:30px;'><p>Press '1' for A</p></div><div style='float: right;padding-right:30px;'><p>Press '0' for B</p> </div> </div></div>","null","","","","","","","","","","","","","",""
"3024","","test","audio-keyboard-response","185","529668","0.0-8.0-1.78","LSPC0005","condB","","resources/audio/wordStim/S9_AU_18_bxa_Step-7.wav","49","","","","","AU","resources/audio/wordStim/S9_AU_18_bxa_Step-7.wav","S9","18","bxa","7","CN","1","1","true"
"null","","fixation","html-keyboard-response","186","530671","0.0-8.0-0.79","LSPC0005","condB","","<div class=""vertical-center"" style='width:60%;'><p style='font-weight:bold;'>Does the middle word sound more like the first word (A) or the last word (B)?</p> <br> <div class=""container""> <div id=""a-box""> <p class=""title-text"">A</h3></p> </div> <div id=""x-box""> <p class=""title-text"">X<p> </div> <div id=""b-box""> <p class=""title-text"">B</p></div> <br> <div style='float: left;padding-left:30px;'><p>Press '1' for A</p></div><div style='float: right;padding-right:30px;'><p>Press '0' for B</p> </div> </div></div>","null","","","","","","","","","","","","","",""
"2605","","test","audio-keyboard-response","187","533278","0.0-8.0-1.79","LSPC0005","condB","","resources/audio/wordStim/S9_AU_18_bxa_Step-9.wav","49","","","","","AU","resources/audio/wordStim/S9_AU_18_bxa_Step-9.wav","S9","18","bxa","9","CN","1","1","true"
"null","","fixation","html-keyboard-response","188","534283","0.0-8.0-0.80","LSPC0005","condB","","<div class=""vertical-center"" style='width:60%;'><p style='font-weight:bold;'>Does the middle word sound more like the first word (A) or the last word (B)?</p> <br> <div class=""container""> <div id=""a-box""> <p class=""title-text"">A</h3></p> </div> <div id=""x-box""> <p class=""title-text"">X<p> </div> <div id=""b-box""> <p class=""title-text"">B</p></div> <br> <div style='float: left;padding-left:30px;'><p>Press '1' for A</p></div><div style='float: right;padding-right:30px;'><p>Press '0' for B</p> </div> </div></div>","null","","","","","","","","","","","","","",""
"2488","","test","audio-keyboard-response","189","536771","0.0-8.0-1.80","LSPC0005","condB","","resources/audio/wordStim/S3_AU_11_axb_Step-6.wav","48","","","","","AU","resources/audio/wordStim/S3_AU_11_axb_Step-6.wav","S3","11","axb","6","MI","0","0","true"
"1178","","break","html-keyboard-response","190","538451","0.0-8.0-2.80-0.80","LSPC0005","condB","","<div class=""vertical-center""><p>Feel free to take a break!</p><i>When you're ready to continue, press SPACE to begin the next trial.</i></p></div>","32","","","","","","","","","","","","","",""
"null","","fixation","html-keyboard-response","191","538955","0.0-8.0-0.81","LSPC0005","condB","","<div class=""vertical-center"" style='width:60%;'><p style='font-weight:bold;'>Does the middle word sound more like the first word (A) or the last word (B)?</p> <br> <div class=""container""> <div id=""a-box""> <p class=""title-text"">A</h3></p> </div> <div id=""x-box""> <p class=""title-text"">X<p> </div> <div id=""b-box""> <p class=""title-text"">B</p></div> <br> <div style='float: left;padding-left:30px;'><p>Press '1' for A</p></div><div style='float: right;padding-right:30px;'><p>Press '0' for B</p> </div> </div></div>","null","","","","","","","","","","","","","",""
"3152","","test","audio-keyboard-response","192","542108","0.0-8.0-1.81","LSPC0005","condB","","resources/audio/wordStim/S3_AU_18_bxa_Step-7.wav","49","","","","","AU","resources/audio/wordStim/S3_AU_18_bxa_Step-7.wav","S3","18","bxa","7","MI","1","1","true"
"null","","fixation","html-keyboard-response","193","543112","0.0-8.0-0.82","LSPC0005","condB","","<div class=""vertical-center"" style='width:60%;'><p style='font-weight:bold;'>Does the middle word sound more like the first word (A) or the last word (B)?</p> <br> <div class=""container""> <div id=""a-box""> <p class=""title-text"">A</h3></p> </div> <div id=""x-box""> <p class=""title-text"">X<p> </div> <div id=""b-box""> <p class=""title-text"">B</p></div> <br> <div style='float: left;padding-left:30px;'><p>Press '1' for A</p></div><div style='float: right;padding-right:30px;'><p>Press '0' for B</p> </div> </div></div>","null","","","","","","","","","","","","","",""
"3125","","test","audio-keyboard-response","194","546238","0.0-8.0-1.82","LSPC0005","condB","","resources/audio/wordStim/S9_AI_29_bxa_Step-10.wav","49","","","","","AI","resources/audio/wordStim/S9_AI_29_bxa_Step-10.wav","S9","29","bxa","10","CN","1","1","true"
"null","","fixation","html-keyboard-response","195","547244","0.0-8.0-0.83","LSPC0005","condB","","<div class=""vertical-center"" style='width:60%;'><p style='font-weight:bold;'>Does the middle word sound more like the first word (A) or the last word (B)?</p> <br> <div class=""container""> <div id=""a-box""> <p class=""title-text"">A</h3></p> </div> <div id=""x-box""> <p class=""title-text"">X<p> </div> <div id=""b-box""> <p class=""title-text"">B</p></div> <br> <div style='float: left;padding-left:30px;'><p>Press '1' for A</p></div><div style='float: right;padding-right:30px;'><p>Press '0' for B</p> </div> </div></div>","null","","","","","","","","","","","","","",""
"2485","","test","audio-keyboard-response","196","549732","0.0-8.0-1.83","LSPC0005","condB","","resources/audio/wordStim/S9_AU_20_bxa_Step-7.wav","49","","","","","AU","resources/audio/wordStim/S9_AU_20_bxa_Step-7.wav","S9","20","bxa","7","CN","1","1","true"
"null","","fixation","html-keyboard-response","197","550732","0.0-8.0-0.84","LSPC0005","condB","","<div class=""vertical-center"" style='width:60%;'><p style='font-weight:bold;'>Does the middle word sound more like the first word (A) or the last word (B)?</p> <br> <div class=""container""> <div id=""a-box""> <p class=""title-text"">A</h3></p> </div> <div id=""x-box""> <p class=""title-text"">X<p> </div> <div id=""b-box""> <p class=""title-text"">B</p></div> <br> <div style='float: left;padding-left:30px;'><p>Press '1' for A</p></div><div style='float: right;padding-right:30px;'><p>Press '0' for B</p> </div> </div></div>","null","","","","","","","","","","","","","",""
"2184","","test","audio-keyboard-response","198","552918","0.0-8.0-1.84","LSPC0005","condB","","resources/audio/wordStim/S3_AU_15_axb_Step-2.wav","49","","","","","AU","resources/audio/wordStim/S3_AU_15_axb_Step-2.wav","S3","15","axb","2","MI","0","1","false"
"null","","fixation","html-keyboard-response","199","553924","0.0-8.0-0.85","LSPC0005","condB","","<div class=""vertical-center"" style='width:60%;'><p style='font-weight:bold;'>Does the middle word sound more like the first word (A) or the last word (B)?</p> <br> <div class=""container""> <div id=""a-box""> <p class=""title-text"">A</h3></p> </div> <div id=""x-box""> <p class=""title-text"">X<p> </div> <div id=""b-box""> <p class=""title-text"">B</p></div> <br> <div style='float: left;padding-left:30px;'><p>Press '1' for A</p></div><div style='float: right;padding-right:30px;'><p>Press '0' for B</p> </div> </div></div>","null","","","","","","","","","","","","","",""
"2541","","test","audio-keyboard-response","200","556468","0.0-8.0-1.85","LSPC0005","condB","","resources/audio/wordStim/S9_AI_27_bxa_Step-10.wav","49","","","","","AI","resources/audio/wordStim/S9_AI_27_bxa_Step-10.wav","S9","27","bxa","10","CN","1","1","true"
"null","","fixation","html-keyboard-response","201","557471","0.0-8.0-0.86","LSPC0005","condB","","<div class=""vertical-center"" style='width:60%;'><p style='font-weight:bold;'>Does the middle word sound more like the first word (A) or the last word (B)?</p> <br> <div class=""container""> <div id=""a-box""> <p class=""title-text"">A</h3></p> </div> <div id=""x-box""> <p class=""title-text"">X<p> </div> <div id=""b-box""> <p class=""title-text"">B</p></div> <br> <div style='float: left;padding-left:30px;'><p>Press '1' for A</p></div><div style='float: right;padding-right:30px;'><p>Press '0' for B</p> </div> </div></div>","null","","","","","","","","","","","","","",""
"2581","","test","audio-keyboard-response","202","560051","0.0-8.0-1.86","LSPC0005","condB","","resources/audio/wordStim/S9_AU_19_bxa_Step-3.wav","48","","","","","AU","resources/audio/wordStim/S9_AU_19_bxa_Step-3.wav","S9","19","bxa","3","CN","1","0","false"
"null","","fixation","html-keyboard-response","203","561055","0.0-8.0-0.87","LSPC0005","condB","","<div class=""vertical-center"" style='width:60%;'><p style='font-weight:bold;'>Does the middle word sound more like the first word (A) or the last word (B)?</p> <br> <div class=""container""> <div id=""a-box""> <p class=""title-text"">A</h3></p> </div> <div id=""x-box""> <p class=""title-text"">X<p> </div> <div id=""b-box""> <p class=""title-text"">B</p></div> <br> <div style='float: left;padding-left:30px;'><p>Press '1' for A</p></div><div style='float: right;padding-right:30px;'><p>Press '0' for B</p> </div> </div></div>","null","","","","","","","","","","","","","",""
"2627","","test","audio-keyboard-response","204","563684","0.0-8.0-1.87","LSPC0005","condB","","resources/audio/wordStim/S9_AU_16_axb_Step-4.wav","49","","","","","AU","resources/audio/wordStim/S9_AU_16_axb_Step-4.wav","S9","16","axb","4","CN","0","1","false"
"null","","fixation","html-keyboard-response","205","564688","0.0-8.0-0.88","LSPC0005","condB","","<div class=""vertical-center"" style='width:60%;'><p style='font-weight:bold;'>Does the middle word sound more like the first word (A) or the last word (B)?</p> <br> <div class=""container""> <div id=""a-box""> <p class=""title-text"">A</h3></p> </div> <div id=""x-box""> <p class=""title-text"">X<p> </div> <div id=""b-box""> <p class=""title-text"">B</p></div> <br> <div style='float: left;padding-left:30px;'><p>Press '1' for A</p></div><div style='float: right;padding-right:30px;'><p>Press '0' for B</p> </div> </div></div>","null","","","","","","","","","","","","","",""
"2667","","test","audio-keyboard-response","206","567356","0.0-8.0-1.88","LSPC0005","condB","","resources/audio/wordStim/S3_AI_22_bxa_Step-3.wav","48","","","","","AI","resources/audio/wordStim/S3_AI_22_bxa_Step-3.wav","S3","22","bxa","3","MI","1","0","false"
"null","","fixation","html-keyboard-response","207","568361","0.0-8.0-0.89","LSPC0005","condB","","<div class=""vertical-center"" style='width:60%;'><p style='font-weight:bold;'>Does the middle word sound more like the first word (A) or the last word (B)?</p> <br> <div class=""container""> <div id=""a-box""> <p class=""title-text"">A</h3></p> </div> <div id=""x-box""> <p class=""title-text"">X<p> </div> <div id=""b-box""> <p class=""title-text"">B</p></div> <br> <div style='float: left;padding-left:30px;'><p>Press '1' for A</p></div><div style='float: right;padding-right:30px;'><p>Press '0' for B</p> </div> </div></div>","null","","","","","","","","","","","","","",""
"2603","","test","audio-keyboard-response","208","570966","0.0-8.0-1.89","LSPC0005","condB","","resources/audio/wordStim/S9_AI_27_bxa_Step-3.wav","48","","","","","AI","resources/audio/wordStim/S9_AI_27_bxa_Step-3.wav","S9","27","bxa","3","CN","1","0","false"
"null","","fixation","html-keyboard-response","209","571973","0.0-8.0-0.90","LSPC0005","condB","","<div class=""vertical-center"" style='width:60%;'><p style='font-weight:bold;'>Does the middle word sound more like the first word (A) or the last word (B)?</p> <br> <div class=""container""> <div id=""a-box""> <p class=""title-text"">A</h3></p> </div> <div id=""x-box""> <p class=""title-text"">X<p> </div> <div id=""b-box""> <p class=""title-text"">B</p></div> <br> <div style='float: left;padding-left:30px;'><p>Press '1' for A</p></div><div style='float: right;padding-right:30px;'><p>Press '0' for B</p> </div> </div></div>","null","","","","","","","","","","","","","",""
"2885","","test","audio-keyboard-response","210","574860","0.0-8.0-1.90","LSPC0005","condB","","resources/audio/wordStim/S3_AI_29_axb_Step-4.wav","49","","","","","AI","resources/audio/wordStim/S3_AI_29_axb_Step-4.wav","S3","29","axb","4","MI","0","1","false"
"null","","fixation","html-keyboard-response","211","575866","0.0-8.0-0.91","LSPC0005","condB","","<div class=""vertical-center"" style='width:60%;'><p style='font-weight:bold;'>Does the middle word sound more like the first word (A) or the last word (B)?</p> <br> <div class=""container""> <div id=""a-box""> <p class=""title-text"">A</h3></p> </div> <div id=""x-box""> <p class=""title-text"">X<p> </div> <div id=""b-box""> <p class=""title-text"">B</p></div> <br> <div style='float: left;padding-left:30px;'><p>Press '1' for A</p></div><div style='float: right;padding-right:30px;'><p>Press '0' for B</p> </div> </div></div>","null","","","","","","","","","","","","","",""
"2584","","test","audio-keyboard-response","212","578452","0.0-8.0-1.91","LSPC0005","condB","","resources/audio/wordStim/S9_AU_14_axb_Step-2.wav","48","","","","","AU","resources/audio/wordStim/S9_AU_14_axb_Step-2.wav","S9","14","axb","2","CN","0","0","true"
"null","","fixation","html-keyboard-response","213","579457","0.0-8.0-0.92","LSPC0005","condB","","<div class=""vertical-center"" style='width:60%;'><p style='font-weight:bold;'>Does the middle word sound more like the first word (A) or the last word (B)?</p> <br> <div class=""container""> <div id=""a-box""> <p class=""title-text"">A</h3></p> </div> <div id=""x-box""> <p class=""title-text"">X<p> </div> <div id=""b-box""> <p class=""title-text"">B</p></div> <br> <div style='float: left;padding-left:30px;'><p>Press '1' for A</p></div><div style='float: right;padding-right:30px;'><p>Press '0' for B</p> </div> </div></div>","null","","","","","","","","","","","","","",""
"2973","","test","audio-keyboard-response","214","582430","0.0-8.0-1.92","LSPC0005","condB","","resources/audio/wordStim/S3_AU_11_bxa_Step-5.wav","48","","","","","AU","resources/audio/wordStim/S3_AU_11_bxa_Step-5.wav","S3","11","bxa","5","MI","1","0","false"
"null","","fixation","html-keyboard-response","215","583433","0.0-8.0-0.93","LSPC0005","condB","","<div class=""vertical-center"" style='width:60%;'><p style='font-weight:bold;'>Does the middle word sound more like the first word (A) or the last word (B)?</p> <br> <div class=""container""> <div id=""a-box""> <p class=""title-text"">A</h3></p> </div> <div id=""x-box""> <p class=""title-text"">X<p> </div> <div id=""b-box""> <p class=""title-text"">B</p></div> <br> <div style='float: left;padding-left:30px;'><p>Press '1' for A</p></div><div style='float: right;padding-right:30px;'><p>Press '0' for B</p> </div> </div></div>","null","","","","","","","","","","","","","",""
"2883","","test","audio-keyboard-response","216","586316","0.0-8.0-1.93","LSPC0005","condB","","resources/audio/wordStim/S9_AI_24_axb_Step-6.wav","49","","","","","AI","resources/audio/wordStim/S9_AI_24_axb_Step-6.wav","S9","24","axb","6","CN","0","1","false"
"null","","fixation","html-keyboard-response","217","587318","0.0-8.0-0.94","LSPC0005","condB","","<div class=""vertical-center"" style='width:60%;'><p style='font-weight:bold;'>Does the middle word sound more like the first word (A) or the last word (B)?</p> <br> <div class=""container""> <div id=""a-box""> <p class=""title-text"">A</h3></p> </div> <div id=""x-box""> <p class=""title-text"">X<p> </div> <div id=""b-box""> <p class=""title-text"">B</p></div> <br> <div style='float: left;padding-left:30px;'><p>Press '1' for A</p></div><div style='float: right;padding-right:30px;'><p>Press '0' for B</p> </div> </div></div>","null","","","","","","","","","","","","","",""
"3352","","test","audio-keyboard-response","218","590671","0.0-8.0-1.94","LSPC0005","condB","","resources/audio/wordStim/S3_AI_28_bxa_Step-9.wav","49","","","","","AI","resources/audio/wordStim/S3_AI_28_bxa_Step-9.wav","S3","28","bxa","9","MI","1","1","true"
"null","","fixation","html-keyboard-response","219","591676","0.0-8.0-0.95","LSPC0005","condB","","<div class=""vertical-center"" style='width:60%;'><p style='font-weight:bold;'>Does the middle word sound more like the first word (A) or the last word (B)?</p> <br> <div class=""container""> <div id=""a-box""> <p class=""title-text"">A</h3></p> </div> <div id=""x-box""> <p class=""title-text"">X<p> </div> <div id=""b-box""> <p class=""title-text"">B</p></div> <br> <div style='float: left;padding-left:30px;'><p>Press '1' for A</p></div><div style='float: right;padding-right:30px;'><p>Press '0' for B</p> </div> </div></div>","null","","","","","","","","","","","","","",""
"2573","","test","audio-keyboard-response","220","594252","0.0-8.0-1.95","LSPC0005","condB","","resources/audio/wordStim/S9_AU_13_axb_Step-8.wav","48","","","","","AU","resources/audio/wordStim/S9_AU_13_axb_Step-8.wav","S9","13","axb","8","CN","0","0","true"
"null","","fixation","html-keyboard-response","221","595255","0.0-8.0-0.96","LSPC0005","condB","","<div class=""vertical-center"" style='width:60%;'><p style='font-weight:bold;'>Does the middle word sound more like the first word (A) or the last word (B)?</p> <br> <div class=""container""> <div id=""a-box""> <p class=""title-text"">A</h3></p> </div> <div id=""x-box""> <p class=""title-text"">X<p> </div> <div id=""b-box""> <p class=""title-text"">B</p></div> <br> <div style='float: left;padding-left:30px;'><p>Press '1' for A</p></div><div style='float: right;padding-right:30px;'><p>Press '0' for B</p> </div> </div></div>","null","","","","","","","","","","","","","",""
"3696","","test","audio-keyboard-response","222","598951","0.0-8.0-1.96","LSPC0005","condB","","resources/audio/wordStim/S3_AU_17_axb_Step-2.wav","48","","","","","AU","resources/audio/wordStim/S3_AU_17_axb_Step-2.wav","S3","17","axb","2","MI","0","0","true"
