"rt","url","trial_role","trial_type","trial_index","time_elapsed","internal_node_id","participantId","conditionId","view_history","stimulus","key_press","button_pressed","correct_answer","correct_response","success","vowel","wordStim","speaker","sentNum","order","step","speakerIdentity","speakerGuise","guiseName","raised_answer","key_response","raised_response"
"14576.044999994338","micr.axb.consent.html","consent","external-html","0","14635","0.0-0.0","5e86cadb81f7de310bae6d2d","condC","","","","","","","","","","","","","","","","","","",""
"53686.790000181645","","instructions","instructions","1","68323","0.0-1.0","5e86cadb81f7de310bae6d2d","condC","[{""page_index"":0,""viewing_time"":20442.015000153333},{""page_index"":1,""viewing_time"":18534.304999979213},{""page_index"":2,""viewing_time"":14709.92000005208}]","","","","","","","","","","","","","","","","","",""
"null","","fixation","html-keyboard-response","2","68825","0.0-2.0-0.0","5e86cadb81f7de310bae6d2d","condC","","<div class=""vertical-center"" style=""font-size:60px;"">+</div>","null","","","","","","","","","","","","","","","",""
"7456.204999936745","","tonetest","audio-button-response","3","76287","0.0-2.0-1.0","5e86cadb81f7de310bae6d2d","condC","","../../src/audio/toneTest_6.wav","","0","0","true","","","","","","","","","","","","",""
"null","","fixation","html-keyboard-response","4","76790","0.0-2.0-0.1","5e86cadb81f7de310bae6d2d","condC","","<div class=""vertical-center"" style=""font-size:60px;"">+</div>","null","","","","","","","","","","","","","","","",""
"4723.590000066906","","tonetest","audio-button-response","5","81514","0.0-2.0-1.1","5e86cadb81f7de310bae6d2d","condC","","../../src/audio/toneTest_1.wav","","0","2","false","","","","","","","","","","","","",""
"null","","fixation","html-keyboard-response","6","82016","0.0-2.0-0.2","5e86cadb81f7de310bae6d2d","condC","","<div class=""vertical-center"" style=""font-size:60px;"">+</div>","null","","","","","","","","","","","","","","","",""
"3320.395000046119","","tonetest","audio-button-response","7","85341","0.0-2.0-1.2","5e86cadb81f7de310bae6d2d","condC","","../../src/audio/toneTest_1.wav","","2","2","true","","","","","","","","","","","","",""
"null","","fixation","html-keyboard-response","8","85843","0.0-2.0-0.3","5e86cadb81f7de310bae6d2d","condC","","<div class=""vertical-center"" style=""font-size:60px;"">+</div>","null","","","","","","","","","","","","","","","",""
"2737.2550000436604","","tonetest","audio-button-response","9","88581","0.0-2.0-1.3","5e86cadb81f7de310bae6d2d","condC","","../../src/audio/toneTest_2.wav","","1","1","true","","","","","","","","","","","","",""
"null","","fixation","html-keyboard-response","10","89082","0.0-2.0-0.4","5e86cadb81f7de310bae6d2d","condC","","<div class=""vertical-center"" style=""font-size:60px;"">+</div>","null","","","","","","","","","","","","","","","",""
"2946.0200001485646","","tonetest","audio-button-response","11","92029","0.0-2.0-1.4","5e86cadb81f7de310bae6d2d","condC","","../../src/audio/toneTest_3.wav","","2","2","true","","","","","","","","","","","","",""
"null","","fixation","html-keyboard-response","12","92530","0.0-2.0-0.5","5e86cadb81f7de310bae6d2d","condC","","<div class=""vertical-center"" style=""font-size:60px;"">+</div>","null","","","","","","","","","","","","","","","",""
"4237.389999907464","","tonetest","audio-button-response","13","96769","0.0-2.0-1.5","5e86cadb81f7de310bae6d2d","condC","","../../src/audio/toneTest_6.wav","","1","0","false","","","","","","","","","","","","",""
"20395.604999968782","","instructions","html-keyboard-response","14","117167","0.0-3.0","5e86cadb81f7de310bae6d2d","condC","","<div class=""vertical-center""><p><b>Your score was 4/6.</b></p><p>If you scored below 6, please ensure that you are wearing properly functioning headphones and in a quiet location free of distractions.</p><p><i>To continue to the main experiment, press SPACE.</i></p></div>","32","","","","","","","","","","","","","","","",""
"","","","fullscreen","15","122543","0.0-4.0","5e86cadb81f7de310bae6d2d","condC","","","","","","","true","","","","","","","","","","","",""
"38543.474999954924","","instructions","instructions","16","161087","0.0-5.0","5e86cadb81f7de310bae6d2d","condC","[{""page_index"":0,""viewing_time"":38543.05999982171}]","","","","","","","","","","","","","","","","","",""
"null","","fixation","html-keyboard-response","17","161590","0.0-6.0-0.0","5e86cadb81f7de310bae6d2d","condC","","<div class=""vertical-center"" style='width:60%;'><p style='font-weight:bold;'>Does the middle word sound more like the first word (A) or the last word (B)?</p> <br> <div class=""container""> <div id=""a-box""> <p class=""title-text"">A</h3></p> </div> <div id=""x-box""> <p class=""title-text"">X<p> </div> <div id=""b-box""> <p class=""title-text"">B</p></div> <br> <div style='float: left;padding-left:30px;'><p>Press '1' for A</p></div><div style='float: right;padding-right:30px;'><p>Press '0' for B</p> </div> </div></div>","null","","","","","","","","","","","","","","","",""
"10400","","practice","audio-keyboard-response","18","172335","0.0-6.0-1.0","5e86cadb81f7de310bae6d2d","condC","","resources/audio/practiceStim/S1_AU_14_axb_Step-6.wav","49","","","","","","","","","","","","","","","",""
"null","","fixation","html-keyboard-response","19","173338","0.0-6.0-0.1","5e86cadb81f7de310bae6d2d","condC","","<div class=""vertical-center"" style='width:60%;'><p style='font-weight:bold;'>Does the middle word sound more like the first word (A) or the last word (B)?</p> <br> <div class=""container""> <div id=""a-box""> <p class=""title-text"">A</h3></p> </div> <div id=""x-box""> <p class=""title-text"">X<p> </div> <div id=""b-box""> <p class=""title-text"">B</p></div> <br> <div style='float: left;padding-left:30px;'><p>Press '1' for A</p></div><div style='float: right;padding-right:30px;'><p>Press '0' for B</p> </div> </div></div>","null","","","","","","","","","","","","","","","",""
"3760","","practice","audio-keyboard-response","20","177100","0.0-6.0-1.1","5e86cadb81f7de310bae6d2d","condC","","resources/audio/practiceStim/S1_AI_21_bxa_Step-6.wav","49","","","","","","","","","","","","","","","",""
"null","","fixation","html-keyboard-response","21","178102","0.0-6.0-0.2","5e86cadb81f7de310bae6d2d","condC","","<div class=""vertical-center"" style='width:60%;'><p style='font-weight:bold;'>Does the middle word sound more like the first word (A) or the last word (B)?</p> <br> <div class=""container""> <div id=""a-box""> <p class=""title-text"">A</h3></p> </div> <div id=""x-box""> <p class=""title-text"">X<p> </div> <div id=""b-box""> <p class=""title-text"">B</p></div> <br> <div style='float: left;padding-left:30px;'><p>Press '1' for A</p></div><div style='float: right;padding-right:30px;'><p>Press '0' for B</p> </div> </div></div>","null","","","","","","","","","","","","","","","",""
"6059","","practice","audio-keyboard-response","22","184168","0.0-6.0-1.2","5e86cadb81f7de310bae6d2d","condC","","resources/audio/practiceStim/S1_AU_14_bxa_Step-6.wav","48","","","","","","","","","","","","","","","",""
"null","","fixation","html-keyboard-response","23","185171","0.0-6.0-0.3","5e86cadb81f7de310bae6d2d","condC","","<div class=""vertical-center"" style='width:60%;'><p style='font-weight:bold;'>Does the middle word sound more like the first word (A) or the last word (B)?</p> <br> <div class=""container""> <div id=""a-box""> <p class=""title-text"">A</h3></p> </div> <div id=""x-box""> <p class=""title-text"">X<p> </div> <div id=""b-box""> <p class=""title-text"">B</p></div> <br> <div style='float: left;padding-left:30px;'><p>Press '1' for A</p></div><div style='float: right;padding-right:30px;'><p>Press '0' for B</p> </div> </div></div>","null","","","","","","","","","","","","","","","",""
"6371","","practice","audio-keyboard-response","24","191548","0.0-6.0-1.3","5e86cadb81f7de310bae6d2d","condC","","resources/audio/practiceStim/S1_AI_21_axb_Step-6.wav","48","","","","","","","","","","","","","","","",""
"3354.4249997939914","","instructions","instructions","25","195405","0.0-7.0","5e86cadb81f7de310bae6d2d","condC","[{""page_index"":0,""viewing_time"":3354.1599998716265}]","","","","","","","","","","","","","","","","","",""
"4740.905000129715","","","html-keyboard-response","26","200148","0.0-8.0","5e86cadb81f7de310bae6d2d","condC","","<div class=""vertical-center""><img src=""resources/images/CN_face_a.png"" style=""width:450px;height:300px;""><p>This is the speaker you're about to hear. She is from Vancouver, Canada.</p><p> <br> <i>Press SPACE to continue.</i></p></div>","32","","","","","","","","","","","","","","","",""
"null","","fixation","html-keyboard-response","27","200652","0.0-9.0-0.0","5e86cadb81f7de310bae6d2d","condC","","<div class=""vertical-center"" style='width:60%;'><img src=""resources/images/CN_flag_100x52.jpg"" style=""width:100px;height:52px;opacity:0.35;""> <br> <br> <p style='font-weight:bold;'>Does the middle word sound more like the first word (A) or the last word (B)?</p> <br> <div class=""container""> <div id=""a-box""> <p class=""title-text"">A</h3></p> </div> <div id=""x-box""> <p class=""title-text"">X<p> </div> <div id=""b-box""> <p class=""title-text"">B</p></div> <br> <div style='float: left;padding-left:30px;'><p>Press '1' for A</p></div><div style='float: right;padding-right:30px;'><p>Press '0' for B</p> </div> </div></div>","null","","","","","","","","","","","","","","","",""
"4179","","test","audio-keyboard-response","28","204843","0.0-9.0-1.0","5e86cadb81f7de310bae6d2d","condC","","resources/audio/wordStim/S3_AI_21_bxa_Step-3.wav","49","","","","","","resources/audio/wordStim/S3_AI_21_bxa_Step-3.wav","S3","21","bxa","3","MI","CN","S3-CN","1","1","true"
"null","","fixation","html-keyboard-response","29","205849","0.0-9.0-0.1","5e86cadb81f7de310bae6d2d","condC","","<div class=""vertical-center"" style='width:60%;'><img src=""resources/images/CN_flag_100x52.jpg"" style=""width:100px;height:52px;opacity:0.35;""> <br> <br> <p style='font-weight:bold;'>Does the middle word sound more like the first word (A) or the last word (B)?</p> <br> <div class=""container""> <div id=""a-box""> <p class=""title-text"">A</h3></p> </div> <div id=""x-box""> <p class=""title-text"">X<p> </div> <div id=""b-box""> <p class=""title-text"">B</p></div> <br> <div style='float: left;padding-left:30px;'><p>Press '1' for A</p></div><div style='float: right;padding-right:30px;'><p>Press '0' for B</p> </div> </div></div>","null","","","","","","","","","","","","","","","",""
"4659","","test","audio-keyboard-response","30","210522","0.0-9.0-1.1","5e86cadb81f7de310bae6d2d","condC","","resources/audio/wordStim/S3_AI_22_axb_Step-3.wav","48","","","","","","resources/audio/wordStim/S3_AI_22_axb_Step-3.wav","S3","22","axb","3","MI","CN","S3-CN","0","0","true"
"null","","fixation","html-keyboard-response","31","211525","0.0-9.0-0.2","5e86cadb81f7de310bae6d2d","condC","","<div class=""vertical-center"" style='width:60%;'><img src=""resources/images/CN_flag_100x52.jpg"" style=""width:100px;height:52px;opacity:0.35;""> <br> <br> <p style='font-weight:bold;'>Does the middle word sound more like the first word (A) or the last word (B)?</p> <br> <div class=""container""> <div id=""a-box""> <p class=""title-text"">A</h3></p> </div> <div id=""x-box""> <p class=""title-text"">X<p> </div> <div id=""b-box""> <p class=""title-text"">B</p></div> <br> <div style='float: left;padding-left:30px;'><p>Press '1' for A</p></div><div style='float: right;padding-right:30px;'><p>Press '0' for B</p> </div> </div></div>","null","","","","","","","","","","","","","","","",""
"5651","","test","audio-keyboard-response","32","217178","0.0-9.0-1.2","5e86cadb81f7de310bae6d2d","condC","","resources/audio/wordStim/S3_AU_20_axb_Step-5.wav","49","","","","","","resources/audio/wordStim/S3_AU_20_axb_Step-5.wav","S3","20","axb","5","MI","CN","S3-CN","0","1","false"
"null","","fixation","html-keyboard-response","33","218183","0.0-9.0-0.3","5e86cadb81f7de310bae6d2d","condC","","<div class=""vertical-center"" style='width:60%;'><img src=""resources/images/CN_flag_100x52.jpg"" style=""width:100px;height:52px;opacity:0.35;""> <br> <br> <p style='font-weight:bold;'>Does the middle word sound more like the first word (A) or the last word (B)?</p> <br> <div class=""container""> <div id=""a-box""> <p class=""title-text"">A</h3></p> </div> <div id=""x-box""> <p class=""title-text"">X<p> </div> <div id=""b-box""> <p class=""title-text"">B</p></div> <br> <div style='float: left;padding-left:30px;'><p>Press '1' for A</p></div><div style='float: right;padding-right:30px;'><p>Press '0' for B</p> </div> </div></div>","null","","","","","","","","","","","","","","","",""
"3899","","test","audio-keyboard-response","34","222093","0.0-9.0-1.3","5e86cadb81f7de310bae6d2d","condC","","resources/audio/wordStim/S3_AU_18_axb_Step-5.wav","49","","","","","","resources/audio/wordStim/S3_AU_18_axb_Step-5.wav","S3","18","axb","5","MI","CN","S3-CN","0","1","false"
"null","","fixation","html-keyboard-response","35","223097","0.0-9.0-0.4","5e86cadb81f7de310bae6d2d","condC","","<div class=""vertical-center"" style='width:60%;'><img src=""resources/images/CN_flag_100x52.jpg"" style=""width:100px;height:52px;opacity:0.35;""> <br> <br> <p style='font-weight:bold;'>Does the middle word sound more like the first word (A) or the last word (B)?</p> <br> <div class=""container""> <div id=""a-box""> <p class=""title-text"">A</h3></p> </div> <div id=""x-box""> <p class=""title-text"">X<p> </div> <div id=""b-box""> <p class=""title-text"">B</p></div> <br> <div style='float: left;padding-left:30px;'><p>Press '1' for A</p></div><div style='float: right;padding-right:30px;'><p>Press '0' for B</p> </div> </div></div>","null","","","","","","","","","","","","","","","",""
"3451","","test","audio-keyboard-response","36","226548","0.0-9.0-1.4","5e86cadb81f7de310bae6d2d","condC","","resources/audio/wordStim/S3_AI_21_bxa_Step-6.wav","48","","","","","","resources/audio/wordStim/S3_AI_21_bxa_Step-6.wav","S3","21","bxa","6","MI","CN","S3-CN","1","0","false"
"null","","fixation","html-keyboard-response","37","227553","0.0-9.0-0.5","5e86cadb81f7de310bae6d2d","condC","","<div class=""vertical-center"" style='width:60%;'><img src=""resources/images/CN_flag_100x52.jpg"" style=""width:100px;height:52px;opacity:0.35;""> <br> <br> <p style='font-weight:bold;'>Does the middle word sound more like the first word (A) or the last word (B)?</p> <br> <div class=""container""> <div id=""a-box""> <p class=""title-text"">A</h3></p> </div> <div id=""x-box""> <p class=""title-text"">X<p> </div> <div id=""b-box""> <p class=""title-text"">B</p></div> <br> <div style='float: left;padding-left:30px;'><p>Press '1' for A</p></div><div style='float: right;padding-right:30px;'><p>Press '0' for B</p> </div> </div></div>","null","","","","","","","","","","","","","","","",""
"4291","","test","audio-keyboard-response","38","231852","0.0-9.0-1.5","5e86cadb81f7de310bae6d2d","condC","","resources/audio/wordStim/S3_AI_22_bxa_Step-3.wav","49","","","","","","resources/audio/wordStim/S3_AI_22_bxa_Step-3.wav","S3","22","bxa","3","MI","CN","S3-CN","1","1","true"
"null","","fixation","html-keyboard-response","39","232856","0.0-9.0-0.6","5e86cadb81f7de310bae6d2d","condC","","<div class=""vertical-center"" style='width:60%;'><img src=""resources/images/CN_flag_100x52.jpg"" style=""width:100px;height:52px;opacity:0.35;""> <br> <br> <p style='font-weight:bold;'>Does the middle word sound more like the first word (A) or the last word (B)?</p> <br> <div class=""container""> <div id=""a-box""> <p class=""title-text"">A</h3></p> </div> <div id=""x-box""> <p class=""title-text"">X<p> </div> <div id=""b-box""> <p class=""title-text"">B</p></div> <br> <div style='float: left;padding-left:30px;'><p>Press '1' for A</p></div><div style='float: right;padding-right:30px;'><p>Press '0' for B</p> </div> </div></div>","null","","","","","","","","","","","","","","","",""
"2800","","test","audio-keyboard-response","40","235661","0.0-9.0-1.6","5e86cadb81f7de310bae6d2d","condC","","resources/audio/wordStim/S3_AI_21_axb_Step-3.wav","49","","","","","","resources/audio/wordStim/S3_AI_21_axb_Step-3.wav","S3","21","axb","3","MI","CN","S3-CN","0","1","false"
"null","","fixation","html-keyboard-response","41","236664","0.0-9.0-0.7","5e86cadb81f7de310bae6d2d","condC","","<div class=""vertical-center"" style='width:60%;'><img src=""resources/images/CN_flag_100x52.jpg"" style=""width:100px;height:52px;opacity:0.35;""> <br> <br> <p style='font-weight:bold;'>Does the middle word sound more like the first word (A) or the last word (B)?</p> <br> <div class=""container""> <div id=""a-box""> <p class=""title-text"">A</h3></p> </div> <div id=""x-box""> <p class=""title-text"">X<p> </div> <div id=""b-box""> <p class=""title-text"">B</p></div> <br> <div style='float: left;padding-left:30px;'><p>Press '1' for A</p></div><div style='float: right;padding-right:30px;'><p>Press '0' for B</p> </div> </div></div>","null","","","","","","","","","","","","","","","",""
"4080","","test","audio-keyboard-response","42","240748","0.0-9.0-1.7","5e86cadb81f7de310bae6d2d","condC","","resources/audio/wordStim/S3_AI_30_axb_Step-8.wav","48","","","","","","resources/audio/wordStim/S3_AI_30_axb_Step-8.wav","S3","30","axb","8","MI","CN","S3-CN","0","0","true"
"null","","fixation","html-keyboard-response","43","241752","0.0-9.0-0.8","5e86cadb81f7de310bae6d2d","condC","","<div class=""vertical-center"" style='width:60%;'><img src=""resources/images/CN_flag_100x52.jpg"" style=""width:100px;height:52px;opacity:0.35;""> <br> <br> <p style='font-weight:bold;'>Does the middle word sound more like the first word (A) or the last word (B)?</p> <br> <div class=""container""> <div id=""a-box""> <p class=""title-text"">A</h3></p> </div> <div id=""x-box""> <p class=""title-text"">X<p> </div> <div id=""b-box""> <p class=""title-text"">B</p></div> <br> <div style='float: left;padding-left:30px;'><p>Press '1' for A</p></div><div style='float: right;padding-right:30px;'><p>Press '0' for B</p> </div> </div></div>","null","","","","","","","","","","","","","","","",""
"2480","","test","audio-keyboard-response","44","244243","0.0-9.0-1.8","5e86cadb81f7de310bae6d2d","condC","","resources/audio/wordStim/S3_AI_21_bxa_Step-5.wav","49","","","","","","resources/audio/wordStim/S3_AI_21_bxa_Step-5.wav","S3","21","bxa","5","MI","CN","S3-CN","1","1","true"
"null","","fixation","html-keyboard-response","45","245248","0.0-9.0-0.9","5e86cadb81f7de310bae6d2d","condC","","<div class=""vertical-center"" style='width:60%;'><img src=""resources/images/CN_flag_100x52.jpg"" style=""width:100px;height:52px;opacity:0.35;""> <br> <br> <p style='font-weight:bold;'>Does the middle word sound more like the first word (A) or the last word (B)?</p> <br> <div class=""container""> <div id=""a-box""> <p class=""title-text"">A</h3></p> </div> <div id=""x-box""> <p class=""title-text"">X<p> </div> <div id=""b-box""> <p class=""title-text"">B</p></div> <br> <div style='float: left;padding-left:30px;'><p>Press '1' for A</p></div><div style='float: right;padding-right:30px;'><p>Press '0' for B</p> </div> </div></div>","null","","","","","","","","","","","","","","","",""
"3491","","test","audio-keyboard-response","46","248741","0.0-9.0-1.9","5e86cadb81f7de310bae6d2d","condC","","resources/audio/wordStim/S3_AU_18_axb_Step-4.wav","49","","","","","","resources/audio/wordStim/S3_AU_18_axb_Step-4.wav","S3","18","axb","4","MI","CN","S3-CN","0","1","false"
"null","","fixation","html-keyboard-response","47","249747","0.0-9.0-0.10","5e86cadb81f7de310bae6d2d","condC","","<div class=""vertical-center"" style='width:60%;'><img src=""resources/images/CN_flag_100x52.jpg"" style=""width:100px;height:52px;opacity:0.35;""> <br> <br> <p style='font-weight:bold;'>Does the middle word sound more like the first word (A) or the last word (B)?</p> <br> <div class=""container""> <div id=""a-box""> <p class=""title-text"">A</h3></p> </div> <div id=""x-box""> <p class=""title-text"">X<p> </div> <div id=""b-box""> <p class=""title-text"">B</p></div> <br> <div style='float: left;padding-left:30px;'><p>Press '1' for A</p></div><div style='float: right;padding-right:30px;'><p>Press '0' for B</p> </div> </div></div>","null","","","","","","","","","","","","","","","",""
"3229","","test","audio-keyboard-response","48","252979","0.0-9.0-1.10","5e86cadb81f7de310bae6d2d","condC","","resources/audio/wordStim/S3_AI_30_bxa_Step-2.wav","49","","","","","","resources/audio/wordStim/S3_AI_30_bxa_Step-2.wav","S3","30","bxa","2","MI","CN","S3-CN","1","1","true"
"null","","fixation","html-keyboard-response","49","253984","0.0-9.0-0.11","5e86cadb81f7de310bae6d2d","condC","","<div class=""vertical-center"" style='width:60%;'><img src=""resources/images/CN_flag_100x52.jpg"" style=""width:100px;height:52px;opacity:0.35;""> <br> <br> <p style='font-weight:bold;'>Does the middle word sound more like the first word (A) or the last word (B)?</p> <br> <div class=""container""> <div id=""a-box""> <p class=""title-text"">A</h3></p> </div> <div id=""x-box""> <p class=""title-text"">X<p> </div> <div id=""b-box""> <p class=""title-text"">B</p></div> <br> <div style='float: left;padding-left:30px;'><p>Press '1' for A</p></div><div style='float: right;padding-right:30px;'><p>Press '0' for B</p> </div> </div></div>","null","","","","","","","","","","","","","","","",""
"3109","","test","audio-keyboard-response","50","257100","0.0-9.0-1.11","5e86cadb81f7de310bae6d2d","condC","","resources/audio/wordStim/S3_AI_30_bxa_Step-6.wav","49","","","","","","resources/audio/wordStim/S3_AI_30_bxa_Step-6.wav","S3","30","bxa","6","MI","CN","S3-CN","1","1","true"
"null","","fixation","html-keyboard-response","51","258103","0.0-9.0-0.12","5e86cadb81f7de310bae6d2d","condC","","<div class=""vertical-center"" style='width:60%;'><img src=""resources/images/CN_flag_100x52.jpg"" style=""width:100px;height:52px;opacity:0.35;""> <br> <br> <p style='font-weight:bold;'>Does the middle word sound more like the first word (A) or the last word (B)?</p> <br> <div class=""container""> <div id=""a-box""> <p class=""title-text"">A</h3></p> </div> <div id=""x-box""> <p class=""title-text"">X<p> </div> <div id=""b-box""> <p class=""title-text"">B</p></div> <br> <div style='float: left;padding-left:30px;'><p>Press '1' for A</p></div><div style='float: right;padding-right:30px;'><p>Press '0' for B</p> </div> </div></div>","null","","","","","","","","","","","","","","","",""
"3739","","test","audio-keyboard-response","52","261853","0.0-9.0-1.12","5e86cadb81f7de310bae6d2d","condC","","resources/audio/wordStim/S3_AI_22_bxa_Step-4.wav","49","","","","","","resources/audio/wordStim/S3_AI_22_bxa_Step-4.wav","S3","22","bxa","4","MI","CN","S3-CN","1","1","true"
"null","","fixation","html-keyboard-response","53","262860","0.0-9.0-0.13","5e86cadb81f7de310bae6d2d","condC","","<div class=""vertical-center"" style='width:60%;'><img src=""resources/images/CN_flag_100x52.jpg"" style=""width:100px;height:52px;opacity:0.35;""> <br> <br> <p style='font-weight:bold;'>Does the middle word sound more like the first word (A) or the last word (B)?</p> <br> <div class=""container""> <div id=""a-box""> <p class=""title-text"">A</h3></p> </div> <div id=""x-box""> <p class=""title-text"">X<p> </div> <div id=""b-box""> <p class=""title-text"">B</p></div> <br> <div style='float: left;padding-left:30px;'><p>Press '1' for A</p></div><div style='float: right;padding-right:30px;'><p>Press '0' for B</p> </div> </div></div>","null","","","","","","","","","","","","","","","",""
"3411","","test","audio-keyboard-response","54","266267","0.0-9.0-1.13","5e86cadb81f7de310bae6d2d","condC","","resources/audio/wordStim/S3_AI_22_bxa_Step-7.wav","49","","","","","","resources/audio/wordStim/S3_AI_22_bxa_Step-7.wav","S3","22","bxa","7","MI","CN","S3-CN","1","1","true"
"null","","fixation","html-keyboard-response","55","267272","0.0-9.0-0.14","5e86cadb81f7de310bae6d2d","condC","","<div class=""vertical-center"" style='width:60%;'><img src=""resources/images/CN_flag_100x52.jpg"" style=""width:100px;height:52px;opacity:0.35;""> <br> <br> <p style='font-weight:bold;'>Does the middle word sound more like the first word (A) or the last word (B)?</p> <br> <div class=""container""> <div id=""a-box""> <p class=""title-text"">A</h3></p> </div> <div id=""x-box""> <p class=""title-text"">X<p> </div> <div id=""b-box""> <p class=""title-text"">B</p></div> <br> <div style='float: left;padding-left:30px;'><p>Press '1' for A</p></div><div style='float: right;padding-right:30px;'><p>Press '0' for B</p> </div> </div></div>","null","","","","","","","","","","","","","","","",""
"3512","","test","audio-keyboard-response","56","270788","0.0-9.0-1.14","5e86cadb81f7de310bae6d2d","condC","","resources/audio/wordStim/S3_AI_30_axb_Step-2.wav","48","","","","","","resources/audio/wordStim/S3_AI_30_axb_Step-2.wav","S3","30","axb","2","MI","CN","S3-CN","0","0","true"
"null","","fixation","html-keyboard-response","57","271792","0.0-9.0-0.15","5e86cadb81f7de310bae6d2d","condC","","<div class=""vertical-center"" style='width:60%;'><img src=""resources/images/CN_flag_100x52.jpg"" style=""width:100px;height:52px;opacity:0.35;""> <br> <br> <p style='font-weight:bold;'>Does the middle word sound more like the first word (A) or the last word (B)?</p> <br> <div class=""container""> <div id=""a-box""> <p class=""title-text"">A</h3></p> </div> <div id=""x-box""> <p class=""title-text"">X<p> </div> <div id=""b-box""> <p class=""title-text"">B</p></div> <br> <div style='float: left;padding-left:30px;'><p>Press '1' for A</p></div><div style='float: right;padding-right:30px;'><p>Press '0' for B</p> </div> </div></div>","null","","","","","","","","","","","","","","","",""
"2931","","test","audio-keyboard-response","58","274725","0.0-9.0-1.15","5e86cadb81f7de310bae6d2d","condC","","resources/audio/wordStim/S3_AI_30_bxa_Step-4.wav","48","","","","","","resources/audio/wordStim/S3_AI_30_bxa_Step-4.wav","S3","30","bxa","4","MI","CN","S3-CN","1","0","false"
"null","","fixation","html-keyboard-response","59","275729","0.0-9.0-0.16","5e86cadb81f7de310bae6d2d","condC","","<div class=""vertical-center"" style='width:60%;'><img src=""resources/images/CN_flag_100x52.jpg"" style=""width:100px;height:52px;opacity:0.35;""> <br> <br> <p style='font-weight:bold;'>Does the middle word sound more like the first word (A) or the last word (B)?</p> <br> <div class=""container""> <div id=""a-box""> <p class=""title-text"">A</h3></p> </div> <div id=""x-box""> <p class=""title-text"">X<p> </div> <div id=""b-box""> <p class=""title-text"">B</p></div> <br> <div style='float: left;padding-left:30px;'><p>Press '1' for A</p></div><div style='float: right;padding-right:30px;'><p>Press '0' for B</p> </div> </div></div>","null","","","","","","","","","","","","","","","",""
"3189","","test","audio-keyboard-response","60","278923","0.0-9.0-1.16","5e86cadb81f7de310bae6d2d","condC","","resources/audio/wordStim/S3_AI_22_axb_Step-7.wav","49","","","","","","resources/audio/wordStim/S3_AI_22_axb_Step-7.wav","S3","22","axb","7","MI","CN","S3-CN","0","1","false"
"null","","fixation","html-keyboard-response","61","279931","0.0-9.0-0.17","5e86cadb81f7de310bae6d2d","condC","","<div class=""vertical-center"" style='width:60%;'><img src=""resources/images/CN_flag_100x52.jpg"" style=""width:100px;height:52px;opacity:0.35;""> <br> <br> <p style='font-weight:bold;'>Does the middle word sound more like the first word (A) or the last word (B)?</p> <br> <div class=""container""> <div id=""a-box""> <p class=""title-text"">A</h3></p> </div> <div id=""x-box""> <p class=""title-text"">X<p> </div> <div id=""b-box""> <p class=""title-text"">B</p></div> <br> <div style='float: left;padding-left:30px;'><p>Press '1' for A</p></div><div style='float: right;padding-right:30px;'><p>Press '0' for B</p> </div> </div></div>","null","","","","","","","","","","","","","","","",""
"3080","","test","audio-keyboard-response","62","283011","0.0-9.0-1.17","5e86cadb81f7de310bae6d2d","condC","","resources/audio/wordStim/S3_AI_22_bxa_Step-2.wav","49","","","","","","resources/audio/wordStim/S3_AI_22_bxa_Step-2.wav","S3","22","bxa","2","MI","CN","S3-CN","1","1","true"
"null","","fixation","html-keyboard-response","63","284017","0.0-9.0-0.18","5e86cadb81f7de310bae6d2d","condC","","<div class=""vertical-center"" style='width:60%;'><img src=""resources/images/CN_flag_100x52.jpg"" style=""width:100px;height:52px;opacity:0.35;""> <br> <br> <p style='font-weight:bold;'>Does the middle word sound more like the first word (A) or the last word (B)?</p> <br> <div class=""container""> <div id=""a-box""> <p class=""title-text"">A</h3></p> </div> <div id=""x-box""> <p class=""title-text"">X<p> </div> <div id=""b-box""> <p class=""title-text"">B</p></div> <br> <div style='float: left;padding-left:30px;'><p>Press '1' for A</p></div><div style='float: right;padding-right:30px;'><p>Press '0' for B</p> </div> </div></div>","null","","","","","","","","","","","","","","","",""
"3189","","test","audio-keyboard-response","64","287212","0.0-9.0-1.18","5e86cadb81f7de310bae6d2d","condC","","resources/audio/wordStim/S3_AI_30_bxa_Step-5.wav","49","","","","","","resources/audio/wordStim/S3_AI_30_bxa_Step-5.wav","S3","30","bxa","5","MI","CN","S3-CN","1","1","true"
"null","","fixation","html-keyboard-response","65","288217","0.0-9.0-0.19","5e86cadb81f7de310bae6d2d","condC","","<div class=""vertical-center"" style='width:60%;'><img src=""resources/images/CN_flag_100x52.jpg"" style=""width:100px;height:52px;opacity:0.35;""> <br> <br> <p style='font-weight:bold;'>Does the middle word sound more like the first word (A) or the last word (B)?</p> <br> <div class=""container""> <div id=""a-box""> <p class=""title-text"">A</h3></p> </div> <div id=""x-box""> <p class=""title-text"">X<p> </div> <div id=""b-box""> <p class=""title-text"">B</p></div> <br> <div style='float: left;padding-left:30px;'><p>Press '1' for A</p></div><div style='float: right;padding-right:30px;'><p>Press '0' for B</p> </div> </div></div>","null","","","","","","","","","","","","","","","",""
"1899","","test","audio-keyboard-response","66","290123","0.0-9.0-1.19","5e86cadb81f7de310bae6d2d","condC","","resources/audio/wordStim/S3_AI_22_bxa_Step-5.wav","49","","","","","","resources/audio/wordStim/S3_AI_22_bxa_Step-5.wav","S3","22","bxa","5","MI","CN","S3-CN","1","1","true"
"null","","fixation","html-keyboard-response","67","291127","0.0-9.0-0.20","5e86cadb81f7de310bae6d2d","condC","","<div class=""vertical-center"" style='width:60%;'><img src=""resources/images/CN_flag_100x52.jpg"" style=""width:100px;height:52px;opacity:0.35;""> <br> <br> <p style='font-weight:bold;'>Does the middle word sound more like the first word (A) or the last word (B)?</p> <br> <div class=""container""> <div id=""a-box""> <p class=""title-text"">A</h3></p> </div> <div id=""x-box""> <p class=""title-text"">X<p> </div> <div id=""b-box""> <p class=""title-text"">B</p></div> <br> <div style='float: left;padding-left:30px;'><p>Press '1' for A</p></div><div style='float: right;padding-right:30px;'><p>Press '0' for B</p> </div> </div></div>","null","","","","","","","","","","","","","","","",""
"3731","","test","audio-keyboard-response","68","294858","0.0-9.0-1.20","5e86cadb81f7de310bae6d2d","condC","","resources/audio/wordStim/S3_AU_18_bxa_Step-8.wav","48","","","","","","resources/audio/wordStim/S3_AU_18_bxa_Step-8.wav","S3","18","bxa","8","MI","CN","S3-CN","1","0","false"
"4301.210000179708","","break","html-keyboard-response","69","299661","0.0-9.0-2.20-0.20","5e86cadb81f7de310bae6d2d","condC","","<div class=""vertical-center""><p>Feel free to take a break!</p><i>When you're ready to continue, press SPACE to begin the next trial.</i></p></div>","32","","","","","","","","","","","","","","","",""
"null","","fixation","html-keyboard-response","70","300164","0.0-9.0-0.21","5e86cadb81f7de310bae6d2d","condC","","<div class=""vertical-center"" style='width:60%;'><img src=""resources/images/CN_flag_100x52.jpg"" style=""width:100px;height:52px;opacity:0.35;""> <br> <br> <p style='font-weight:bold;'>Does the middle word sound more like the first word (A) or the last word (B)?</p> <br> <div class=""container""> <div id=""a-box""> <p class=""title-text"">A</h3></p> </div> <div id=""x-box""> <p class=""title-text"">X<p> </div> <div id=""b-box""> <p class=""title-text"">B</p></div> <br> <div style='float: left;padding-left:30px;'><p>Press '1' for A</p></div><div style='float: right;padding-right:30px;'><p>Press '0' for B</p> </div> </div></div>","null","","","","","","","","","","","","","","","",""
"3829","","test","audio-keyboard-response","71","304003","0.0-9.0-1.21","5e86cadb81f7de310bae6d2d","condC","","resources/audio/wordStim/S3_AI_30_bxa_Step-3.wav","49","","","","","","resources/audio/wordStim/S3_AI_30_bxa_Step-3.wav","S3","30","bxa","3","MI","CN","S3-CN","1","1","true"
"null","","fixation","html-keyboard-response","72","305008","0.0-9.0-0.22","5e86cadb81f7de310bae6d2d","condC","","<div class=""vertical-center"" style='width:60%;'><img src=""resources/images/CN_flag_100x52.jpg"" style=""width:100px;height:52px;opacity:0.35;""> <br> <br> <p style='font-weight:bold;'>Does the middle word sound more like the first word (A) or the last word (B)?</p> <br> <div class=""container""> <div id=""a-box""> <p class=""title-text"">A</h3></p> </div> <div id=""x-box""> <p class=""title-text"">X<p> </div> <div id=""b-box""> <p class=""title-text"">B</p></div> <br> <div style='float: left;padding-left:30px;'><p>Press '1' for A</p></div><div style='float: right;padding-right:30px;'><p>Press '0' for B</p> </div> </div></div>","null","","","","","","","","","","","","","","","",""
"3301","","test","audio-keyboard-response","73","308307","0.0-9.0-1.22","5e86cadb81f7de310bae6d2d","condC","","resources/audio/wordStim/S3_AI_22_axb_Step-4.wav","49","","","","","","resources/audio/wordStim/S3_AI_22_axb_Step-4.wav","S3","22","axb","4","MI","CN","S3-CN","0","1","false"
"null","","fixation","html-keyboard-response","74","309312","0.0-9.0-0.23","5e86cadb81f7de310bae6d2d","condC","","<div class=""vertical-center"" style='width:60%;'><img src=""resources/images/CN_flag_100x52.jpg"" style=""width:100px;height:52px;opacity:0.35;""> <br> <br> <p style='font-weight:bold;'>Does the middle word sound more like the first word (A) or the last word (B)?</p> <br> <div class=""container""> <div id=""a-box""> <p class=""title-text"">A</h3></p> </div> <div id=""x-box""> <p class=""title-text"">X<p> </div> <div id=""b-box""> <p class=""title-text"">B</p></div> <br> <div style='float: left;padding-left:30px;'><p>Press '1' for A</p></div><div style='float: right;padding-right:30px;'><p>Press '0' for B</p> </div> </div></div>","null","","","","","","","","","","","","","","","",""
"3251","","test","audio-keyboard-response","75","312565","0.0-9.0-1.23","5e86cadb81f7de310bae6d2d","condC","","resources/audio/wordStim/S3_AI_22_axb_Step-6.wav","49","","","","","","resources/audio/wordStim/S3_AI_22_axb_Step-6.wav","S3","22","axb","6","MI","CN","S3-CN","0","1","false"
"null","","fixation","html-keyboard-response","76","313569","0.0-9.0-0.24","5e86cadb81f7de310bae6d2d","condC","","<div class=""vertical-center"" style='width:60%;'><img src=""resources/images/CN_flag_100x52.jpg"" style=""width:100px;height:52px;opacity:0.35;""> <br> <br> <p style='font-weight:bold;'>Does the middle word sound more like the first word (A) or the last word (B)?</p> <br> <div class=""container""> <div id=""a-box""> <p class=""title-text"">A</h3></p> </div> <div id=""x-box""> <p class=""title-text"">X<p> </div> <div id=""b-box""> <p class=""title-text"">B</p></div> <br> <div style='float: left;padding-left:30px;'><p>Press '1' for A</p></div><div style='float: right;padding-right:30px;'><p>Press '0' for B</p> </div> </div></div>","null","","","","","","","","","","","","","","","",""
"3349","","test","audio-keyboard-response","77","316923","0.0-9.0-1.24","5e86cadb81f7de310bae6d2d","condC","","resources/audio/wordStim/S3_AU_19_bxa_Step-3.wav","48","","","","","","resources/audio/wordStim/S3_AU_19_bxa_Step-3.wav","S3","19","bxa","3","MI","CN","S3-CN","1","0","false"
"null","","fixation","html-keyboard-response","78","317928","0.0-9.0-0.25","5e86cadb81f7de310bae6d2d","condC","","<div class=""vertical-center"" style='width:60%;'><img src=""resources/images/CN_flag_100x52.jpg"" style=""width:100px;height:52px;opacity:0.35;""> <br> <br> <p style='font-weight:bold;'>Does the middle word sound more like the first word (A) or the last word (B)?</p> <br> <div class=""container""> <div id=""a-box""> <p class=""title-text"">A</h3></p> </div> <div id=""x-box""> <p class=""title-text"">X<p> </div> <div id=""b-box""> <p class=""title-text"">B</p></div> <br> <div style='float: left;padding-left:30px;'><p>Press '1' for A</p></div><div style='float: right;padding-right:30px;'><p>Press '0' for B</p> </div> </div></div>","null","","","","","","","","","","","","","","","",""
"3029","","test","audio-keyboard-response","79","320955","0.0-9.0-1.25","5e86cadb81f7de310bae6d2d","condC","","resources/audio/wordStim/S3_AU_20_axb_Step-4.wav","49","","","","","","resources/audio/wordStim/S3_AU_20_axb_Step-4.wav","S3","20","axb","4","MI","CN","S3-CN","0","1","false"
"null","","fixation","html-keyboard-response","80","321959","0.0-9.0-0.26","5e86cadb81f7de310bae6d2d","condC","","<div class=""vertical-center"" style='width:60%;'><img src=""resources/images/CN_flag_100x52.jpg"" style=""width:100px;height:52px;opacity:0.35;""> <br> <br> <p style='font-weight:bold;'>Does the middle word sound more like the first word (A) or the last word (B)?</p> <br> <div class=""container""> <div id=""a-box""> <p class=""title-text"">A</h3></p> </div> <div id=""x-box""> <p class=""title-text"">X<p> </div> <div id=""b-box""> <p class=""title-text"">B</p></div> <br> <div style='float: left;padding-left:30px;'><p>Press '1' for A</p></div><div style='float: right;padding-right:30px;'><p>Press '0' for B</p> </div> </div></div>","null","","","","","","","","","","","","","","","",""
"3141","","test","audio-keyboard-response","81","325101","0.0-9.0-1.26","5e86cadb81f7de310bae6d2d","condC","","resources/audio/wordStim/S3_AU_19_bxa_Step-2.wav","48","","","","","","resources/audio/wordStim/S3_AU_19_bxa_Step-2.wav","S3","19","bxa","2","MI","CN","S3-CN","1","0","false"
"null","","fixation","html-keyboard-response","82","326107","0.0-9.0-0.27","5e86cadb81f7de310bae6d2d","condC","","<div class=""vertical-center"" style='width:60%;'><img src=""resources/images/CN_flag_100x52.jpg"" style=""width:100px;height:52px;opacity:0.35;""> <br> <br> <p style='font-weight:bold;'>Does the middle word sound more like the first word (A) or the last word (B)?</p> <br> <div class=""container""> <div id=""a-box""> <p class=""title-text"">A</h3></p> </div> <div id=""x-box""> <p class=""title-text"">X<p> </div> <div id=""b-box""> <p class=""title-text"">B</p></div> <br> <div style='float: left;padding-left:30px;'><p>Press '1' for A</p></div><div style='float: right;padding-right:30px;'><p>Press '0' for B</p> </div> </div></div>","null","","","","","","","","","","","","","","","",""
"2909","","test","audio-keyboard-response","83","329018","0.0-9.0-1.27","5e86cadb81f7de310bae6d2d","condC","","resources/audio/wordStim/S3_AU_19_axb_Step-2.wav","49","","","","","","resources/audio/wordStim/S3_AU_19_axb_Step-2.wav","S3","19","axb","2","MI","CN","S3-CN","0","1","false"
"null","","fixation","html-keyboard-response","84","330024","0.0-9.0-0.28","5e86cadb81f7de310bae6d2d","condC","","<div class=""vertical-center"" style='width:60%;'><img src=""resources/images/CN_flag_100x52.jpg"" style=""width:100px;height:52px;opacity:0.35;""> <br> <br> <p style='font-weight:bold;'>Does the middle word sound more like the first word (A) or the last word (B)?</p> <br> <div class=""container""> <div id=""a-box""> <p class=""title-text"">A</h3></p> </div> <div id=""x-box""> <p class=""title-text"">X<p> </div> <div id=""b-box""> <p class=""title-text"">B</p></div> <br> <div style='float: left;padding-left:30px;'><p>Press '1' for A</p></div><div style='float: right;padding-right:30px;'><p>Press '0' for B</p> </div> </div></div>","null","","","","","","","","","","","","","","","",""
"2949","","test","audio-keyboard-response","85","332979","0.0-9.0-1.28","5e86cadb81f7de310bae6d2d","condC","","resources/audio/wordStim/S3_AI_30_bxa_Step-8.wav","49","","","","","","resources/audio/wordStim/S3_AI_30_bxa_Step-8.wav","S3","30","bxa","8","MI","CN","S3-CN","1","1","true"
"null","","fixation","html-keyboard-response","86","333983","0.0-9.0-0.29","5e86cadb81f7de310bae6d2d","condC","","<div class=""vertical-center"" style='width:60%;'><img src=""resources/images/CN_flag_100x52.jpg"" style=""width:100px;height:52px;opacity:0.35;""> <br> <br> <p style='font-weight:bold;'>Does the middle word sound more like the first word (A) or the last word (B)?</p> <br> <div class=""container""> <div id=""a-box""> <p class=""title-text"">A</h3></p> </div> <div id=""x-box""> <p class=""title-text"">X<p> </div> <div id=""b-box""> <p class=""title-text"">B</p></div> <br> <div style='float: left;padding-left:30px;'><p>Press '1' for A</p></div><div style='float: right;padding-right:30px;'><p>Press '0' for B</p> </div> </div></div>","null","","","","","","","","","","","","","","","",""
"2768","","test","audio-keyboard-response","87","336756","0.0-9.0-1.29","5e86cadb81f7de310bae6d2d","condC","","resources/audio/wordStim/S3_AI_21_axb_Step-8.wav","48","","","","","","resources/audio/wordStim/S3_AI_21_axb_Step-8.wav","S3","21","axb","8","MI","CN","S3-CN","0","0","true"
"null","","fixation","html-keyboard-response","88","337762","0.0-9.0-0.30","5e86cadb81f7de310bae6d2d","condC","","<div class=""vertical-center"" style='width:60%;'><img src=""resources/images/CN_flag_100x52.jpg"" style=""width:100px;height:52px;opacity:0.35;""> <br> <br> <p style='font-weight:bold;'>Does the middle word sound more like the first word (A) or the last word (B)?</p> <br> <div class=""container""> <div id=""a-box""> <p class=""title-text"">A</h3></p> </div> <div id=""x-box""> <p class=""title-text"">X<p> </div> <div id=""b-box""> <p class=""title-text"">B</p></div> <br> <div style='float: left;padding-left:30px;'><p>Press '1' for A</p></div><div style='float: right;padding-right:30px;'><p>Press '0' for B</p> </div> </div></div>","null","","","","","","","","","","","","","","","",""
"2920","","test","audio-keyboard-response","89","340683","0.0-9.0-1.30","5e86cadb81f7de310bae6d2d","condC","","resources/audio/wordStim/S3_AU_20_axb_Step-8.wav","49","","","","","","resources/audio/wordStim/S3_AU_20_axb_Step-8.wav","S3","20","axb","8","MI","CN","S3-CN","0","1","false"
"null","","fixation","html-keyboard-response","90","341688","0.0-9.0-0.31","5e86cadb81f7de310bae6d2d","condC","","<div class=""vertical-center"" style='width:60%;'><img src=""resources/images/CN_flag_100x52.jpg"" style=""width:100px;height:52px;opacity:0.35;""> <br> <br> <p style='font-weight:bold;'>Does the middle word sound more like the first word (A) or the last word (B)?</p> <br> <div class=""container""> <div id=""a-box""> <p class=""title-text"">A</h3></p> </div> <div id=""x-box""> <p class=""title-text"">X<p> </div> <div id=""b-box""> <p class=""title-text"">B</p></div> <br> <div style='float: left;padding-left:30px;'><p>Press '1' for A</p></div><div style='float: right;padding-right:30px;'><p>Press '0' for B</p> </div> </div></div>","null","","","","","","","","","","","","","","","",""
"4011","","test","audio-keyboard-response","91","345699","0.0-9.0-1.31","5e86cadb81f7de310bae6d2d","condC","","resources/audio/wordStim/S3_AU_18_axb_Step-8.wav","48","","","","","","resources/audio/wordStim/S3_AU_18_axb_Step-8.wav","S3","18","axb","8","MI","CN","S3-CN","0","0","true"
"null","","fixation","html-keyboard-response","92","346704","0.0-9.0-0.32","5e86cadb81f7de310bae6d2d","condC","","<div class=""vertical-center"" style='width:60%;'><img src=""resources/images/CN_flag_100x52.jpg"" style=""width:100px;height:52px;opacity:0.35;""> <br> <br> <p style='font-weight:bold;'>Does the middle word sound more like the first word (A) or the last word (B)?</p> <br> <div class=""container""> <div id=""a-box""> <p class=""title-text"">A</h3></p> </div> <div id=""x-box""> <p class=""title-text"">X<p> </div> <div id=""b-box""> <p class=""title-text"">B</p></div> <br> <div style='float: left;padding-left:30px;'><p>Press '1' for A</p></div><div style='float: right;padding-right:30px;'><p>Press '0' for B</p> </div> </div></div>","null","","","","","","","","","","","","","","","",""
"3309","","test","audio-keyboard-response","93","350021","0.0-9.0-1.32","5e86cadb81f7de310bae6d2d","condC","","resources/audio/wordStim/S3_AU_20_bxa_Step-8.wav","49","","","","","","resources/audio/wordStim/S3_AU_20_bxa_Step-8.wav","S3","20","bxa","8","MI","CN","S3-CN","1","1","true"
"null","","fixation","html-keyboard-response","94","351025","0.0-9.0-0.33","5e86cadb81f7de310bae6d2d","condC","","<div class=""vertical-center"" style='width:60%;'><img src=""resources/images/CN_flag_100x52.jpg"" style=""width:100px;height:52px;opacity:0.35;""> <br> <br> <p style='font-weight:bold;'>Does the middle word sound more like the first word (A) or the last word (B)?</p> <br> <div class=""container""> <div id=""a-box""> <p class=""title-text"">A</h3></p> </div> <div id=""x-box""> <p class=""title-text"">X<p> </div> <div id=""b-box""> <p class=""title-text"">B</p></div> <br> <div style='float: left;padding-left:30px;'><p>Press '1' for A</p></div><div style='float: right;padding-right:30px;'><p>Press '0' for B</p> </div> </div></div>","null","","","","","","","","","","","","","","","",""
"3128","","test","audio-keyboard-response","95","354163","0.0-9.0-1.33","5e86cadb81f7de310bae6d2d","condC","","resources/audio/wordStim/S3_AU_19_axb_Step-8.wav","48","","","","","","resources/audio/wordStim/S3_AU_19_axb_Step-8.wav","S3","19","axb","8","MI","CN","S3-CN","0","0","true"
"null","","fixation","html-keyboard-response","96","355167","0.0-9.0-0.34","5e86cadb81f7de310bae6d2d","condC","","<div class=""vertical-center"" style='width:60%;'><img src=""resources/images/CN_flag_100x52.jpg"" style=""width:100px;height:52px;opacity:0.35;""> <br> <br> <p style='font-weight:bold;'>Does the middle word sound more like the first word (A) or the last word (B)?</p> <br> <div class=""container""> <div id=""a-box""> <p class=""title-text"">A</h3></p> </div> <div id=""x-box""> <p class=""title-text"">X<p> </div> <div id=""b-box""> <p class=""title-text"">B</p></div> <br> <div style='float: left;padding-left:30px;'><p>Press '1' for A</p></div><div style='float: right;padding-right:30px;'><p>Press '0' for B</p> </div> </div></div>","null","","","","","","","","","","","","","","","",""
"2760","","test","audio-keyboard-response","97","357923","0.0-9.0-1.34","5e86cadb81f7de310bae6d2d","condC","","resources/audio/wordStim/S3_AU_19_axb_Step-6.wav","48","","","","","","resources/audio/wordStim/S3_AU_19_axb_Step-6.wav","S3","19","axb","6","MI","CN","S3-CN","0","0","true"
"null","","fixation","html-keyboard-response","98","358926","0.0-9.0-0.35","5e86cadb81f7de310bae6d2d","condC","","<div class=""vertical-center"" style='width:60%;'><img src=""resources/images/CN_flag_100x52.jpg"" style=""width:100px;height:52px;opacity:0.35;""> <br> <br> <p style='font-weight:bold;'>Does the middle word sound more like the first word (A) or the last word (B)?</p> <br> <div class=""container""> <div id=""a-box""> <p class=""title-text"">A</h3></p> </div> <div id=""x-box""> <p class=""title-text"">X<p> </div> <div id=""b-box""> <p class=""title-text"">B</p></div> <br> <div style='float: left;padding-left:30px;'><p>Press '1' for A</p></div><div style='float: right;padding-right:30px;'><p>Press '0' for B</p> </div> </div></div>","null","","","","","","","","","","","","","","","",""
"2941","","test","audio-keyboard-response","99","361866","0.0-9.0-1.35","5e86cadb81f7de310bae6d2d","condC","","resources/audio/wordStim/S3_AU_20_axb_Step-6.wav","49","","","","","","resources/audio/wordStim/S3_AU_20_axb_Step-6.wav","S3","20","axb","6","MI","CN","S3-CN","0","1","false"
"null","","fixation","html-keyboard-response","100","362871","0.0-9.0-0.36","5e86cadb81f7de310bae6d2d","condC","","<div class=""vertical-center"" style='width:60%;'><img src=""resources/images/CN_flag_100x52.jpg"" style=""width:100px;height:52px;opacity:0.35;""> <br> <br> <p style='font-weight:bold;'>Does the middle word sound more like the first word (A) or the last word (B)?</p> <br> <div class=""container""> <div id=""a-box""> <p class=""title-text"">A</h3></p> </div> <div id=""x-box""> <p class=""title-text"">X<p> </div> <div id=""b-box""> <p class=""title-text"">B</p></div> <br> <div style='float: left;padding-left:30px;'><p>Press '1' for A</p></div><div style='float: right;padding-right:30px;'><p>Press '0' for B</p> </div> </div></div>","null","","","","","","","","","","","","","","","",""
"1832","","test","audio-keyboard-response","101","364707","0.0-9.0-1.36","5e86cadb81f7de310bae6d2d","condC","","resources/audio/wordStim/S3_AU_20_bxa_Step-7.wav","49","","","","","","resources/audio/wordStim/S3_AU_20_bxa_Step-7.wav","S3","20","bxa","7","MI","CN","S3-CN","1","1","true"
"null","","fixation","html-keyboard-response","102","365715","0.0-9.0-0.37","5e86cadb81f7de310bae6d2d","condC","","<div class=""vertical-center"" style='width:60%;'><img src=""resources/images/CN_flag_100x52.jpg"" style=""width:100px;height:52px;opacity:0.35;""> <br> <br> <p style='font-weight:bold;'>Does the middle word sound more like the first word (A) or the last word (B)?</p> <br> <div class=""container""> <div id=""a-box""> <p class=""title-text"">A</h3></p> </div> <div id=""x-box""> <p class=""title-text"">X<p> </div> <div id=""b-box""> <p class=""title-text"">B</p></div> <br> <div style='float: left;padding-left:30px;'><p>Press '1' for A</p></div><div style='float: right;padding-right:30px;'><p>Press '0' for B</p> </div> </div></div>","null","","","","","","","","","","","","","","","",""
"1960","","test","audio-keyboard-response","103","367675","0.0-9.0-1.37","5e86cadb81f7de310bae6d2d","condC","","resources/audio/wordStim/S3_AU_19_bxa_Step-7.wav","48","","","","","","resources/audio/wordStim/S3_AU_19_bxa_Step-7.wav","S3","19","bxa","7","MI","CN","S3-CN","1","0","false"
"null","","fixation","html-keyboard-response","104","368679","0.0-9.0-0.38","5e86cadb81f7de310bae6d2d","condC","","<div class=""vertical-center"" style='width:60%;'><img src=""resources/images/CN_flag_100x52.jpg"" style=""width:100px;height:52px;opacity:0.35;""> <br> <br> <p style='font-weight:bold;'>Does the middle word sound more like the first word (A) or the last word (B)?</p> <br> <div class=""container""> <div id=""a-box""> <p class=""title-text"">A</h3></p> </div> <div id=""x-box""> <p class=""title-text"">X<p> </div> <div id=""b-box""> <p class=""title-text"">B</p></div> <br> <div style='float: left;padding-left:30px;'><p>Press '1' for A</p></div><div style='float: right;padding-right:30px;'><p>Press '0' for B</p> </div> </div></div>","null","","","","","","","","","","","","","","","",""
"3211","","test","audio-keyboard-response","105","371893","0.0-9.0-1.38","5e86cadb81f7de310bae6d2d","condC","","resources/audio/wordStim/S3_AI_30_bxa_Step-7.wav","49","","","","","","resources/audio/wordStim/S3_AI_30_bxa_Step-7.wav","S3","30","bxa","7","MI","CN","S3-CN","1","1","true"
"null","","fixation","html-keyboard-response","106","372896","0.0-9.0-0.39","5e86cadb81f7de310bae6d2d","condC","","<div class=""vertical-center"" style='width:60%;'><img src=""resources/images/CN_flag_100x52.jpg"" style=""width:100px;height:52px;opacity:0.35;""> <br> <br> <p style='font-weight:bold;'>Does the middle word sound more like the first word (A) or the last word (B)?</p> <br> <div class=""container""> <div id=""a-box""> <p class=""title-text"">A</h3></p> </div> <div id=""x-box""> <p class=""title-text"">X<p> </div> <div id=""b-box""> <p class=""title-text"">B</p></div> <br> <div style='float: left;padding-left:30px;'><p>Press '1' for A</p></div><div style='float: right;padding-right:30px;'><p>Press '0' for B</p> </div> </div></div>","null","","","","","","","","","","","","","","","",""
"3091","","test","audio-keyboard-response","107","375987","0.0-9.0-1.39","5e86cadb81f7de310bae6d2d","condC","","resources/audio/wordStim/S3_AU_19_axb_Step-3.wav","48","","","","","","resources/audio/wordStim/S3_AU_19_axb_Step-3.wav","S3","19","axb","3","MI","CN","S3-CN","0","0","true"
"null","","fixation","html-keyboard-response","108","376990","0.0-9.0-0.40","5e86cadb81f7de310bae6d2d","condC","","<div class=""vertical-center"" style='width:60%;'><img src=""resources/images/CN_flag_100x52.jpg"" style=""width:100px;height:52px;opacity:0.35;""> <br> <br> <p style='font-weight:bold;'>Does the middle word sound more like the first word (A) or the last word (B)?</p> <br> <div class=""container""> <div id=""a-box""> <p class=""title-text"">A</h3></p> </div> <div id=""x-box""> <p class=""title-text"">X<p> </div> <div id=""b-box""> <p class=""title-text"">B</p></div> <br> <div style='float: left;padding-left:30px;'><p>Press '1' for A</p></div><div style='float: right;padding-right:30px;'><p>Press '0' for B</p> </div> </div></div>","null","","","","","","","","","","","","","","","",""
"2728","","test","audio-keyboard-response","109","379723","0.0-9.0-1.40","5e86cadb81f7de310bae6d2d","condC","","resources/audio/wordStim/S3_AU_19_axb_Step-4.wav","48","","","","","","resources/audio/wordStim/S3_AU_19_axb_Step-4.wav","S3","19","axb","4","MI","CN","S3-CN","0","0","true"
"null","","fixation","html-keyboard-response","110","380726","0.0-9.0-0.41","5e86cadb81f7de310bae6d2d","condC","","<div class=""vertical-center"" style='width:60%;'><img src=""resources/images/CN_flag_100x52.jpg"" style=""width:100px;height:52px;opacity:0.35;""> <br> <br> <p style='font-weight:bold;'>Does the middle word sound more like the first word (A) or the last word (B)?</p> <br> <div class=""container""> <div id=""a-box""> <p class=""title-text"">A</h3></p> </div> <div id=""x-box""> <p class=""title-text"">X<p> </div> <div id=""b-box""> <p class=""title-text"">B</p></div> <br> <div style='float: left;padding-left:30px;'><p>Press '1' for A</p></div><div style='float: right;padding-right:30px;'><p>Press '0' for B</p> </div> </div></div>","null","","","","","","","","","","","","","","","",""
"3061","","test","audio-keyboard-response","111","383789","0.0-9.0-1.41","5e86cadb81f7de310bae6d2d","condC","","resources/audio/wordStim/S3_AI_22_bxa_Step-8.wav","49","","","","","","resources/audio/wordStim/S3_AI_22_bxa_Step-8.wav","S3","22","bxa","8","MI","CN","S3-CN","1","1","true"
"7776.585000101477","","break","html-keyboard-response","112","392067","0.0-9.0-2.41-0.41","5e86cadb81f7de310bae6d2d","condC","","<div class=""vertical-center""><p>Feel free to take a break!</p><i>When you're ready to continue, press SPACE to begin the next trial.</i></p></div>","32","","","","","","","","","","","","","","","",""
"null","","fixation","html-keyboard-response","113","392572","0.0-9.0-0.42","5e86cadb81f7de310bae6d2d","condC","","<div class=""vertical-center"" style='width:60%;'><img src=""resources/images/CN_flag_100x52.jpg"" style=""width:100px;height:52px;opacity:0.35;""> <br> <br> <p style='font-weight:bold;'>Does the middle word sound more like the first word (A) or the last word (B)?</p> <br> <div class=""container""> <div id=""a-box""> <p class=""title-text"">A</h3></p> </div> <div id=""x-box""> <p class=""title-text"">X<p> </div> <div id=""b-box""> <p class=""title-text"">B</p></div> <br> <div style='float: left;padding-left:30px;'><p>Press '1' for A</p></div><div style='float: right;padding-right:30px;'><p>Press '0' for B</p> </div> </div></div>","null","","","","","","","","","","","","","","","",""
"3000","","test","audio-keyboard-response","114","395581","0.0-9.0-1.42","5e86cadb81f7de310bae6d2d","condC","","resources/audio/wordStim/S3_AU_20_bxa_Step-5.wav","48","","","","","","resources/audio/wordStim/S3_AU_20_bxa_Step-5.wav","S3","20","bxa","5","MI","CN","S3-CN","1","0","false"
"null","","fixation","html-keyboard-response","115","396587","0.0-9.0-0.43","5e86cadb81f7de310bae6d2d","condC","","<div class=""vertical-center"" style='width:60%;'><img src=""resources/images/CN_flag_100x52.jpg"" style=""width:100px;height:52px;opacity:0.35;""> <br> <br> <p style='font-weight:bold;'>Does the middle word sound more like the first word (A) or the last word (B)?</p> <br> <div class=""container""> <div id=""a-box""> <p class=""title-text"">A</h3></p> </div> <div id=""x-box""> <p class=""title-text"">X<p> </div> <div id=""b-box""> <p class=""title-text"">B</p></div> <br> <div style='float: left;padding-left:30px;'><p>Press '1' for A</p></div><div style='float: right;padding-right:30px;'><p>Press '0' for B</p> </div> </div></div>","null","","","","","","","","","","","","","","","",""
"3019","","test","audio-keyboard-response","116","399612","0.0-9.0-1.43","5e86cadb81f7de310bae6d2d","condC","","resources/audio/wordStim/S3_AU_19_bxa_Step-6.wav","49","","","","","","resources/audio/wordStim/S3_AU_19_bxa_Step-6.wav","S3","19","bxa","6","MI","CN","S3-CN","1","1","true"
"null","","fixation","html-keyboard-response","117","400615","0.0-9.0-0.44","5e86cadb81f7de310bae6d2d","condC","","<div class=""vertical-center"" style='width:60%;'><img src=""resources/images/CN_flag_100x52.jpg"" style=""width:100px;height:52px;opacity:0.35;""> <br> <br> <p style='font-weight:bold;'>Does the middle word sound more like the first word (A) or the last word (B)?</p> <br> <div class=""container""> <div id=""a-box""> <p class=""title-text"">A</h3></p> </div> <div id=""x-box""> <p class=""title-text"">X<p> </div> <div id=""b-box""> <p class=""title-text"">B</p></div> <br> <div style='float: left;padding-left:30px;'><p>Press '1' for A</p></div><div style='float: right;padding-right:30px;'><p>Press '0' for B</p> </div> </div></div>","null","","","","","","","","","","","","","","","",""
"3371","","test","audio-keyboard-response","118","403987","0.0-9.0-1.44","5e86cadb81f7de310bae6d2d","condC","","resources/audio/wordStim/S3_AI_22_bxa_Step-6.wav","48","","","","","","resources/audio/wordStim/S3_AI_22_bxa_Step-6.wav","S3","22","bxa","6","MI","CN","S3-CN","1","0","false"
"null","","fixation","html-keyboard-response","119","404990","0.0-9.0-0.45","5e86cadb81f7de310bae6d2d","condC","","<div class=""vertical-center"" style='width:60%;'><img src=""resources/images/CN_flag_100x52.jpg"" style=""width:100px;height:52px;opacity:0.35;""> <br> <br> <p style='font-weight:bold;'>Does the middle word sound more like the first word (A) or the last word (B)?</p> <br> <div class=""container""> <div id=""a-box""> <p class=""title-text"">A</h3></p> </div> <div id=""x-box""> <p class=""title-text"">X<p> </div> <div id=""b-box""> <p class=""title-text"">B</p></div> <br> <div style='float: left;padding-left:30px;'><p>Press '1' for A</p></div><div style='float: right;padding-right:30px;'><p>Press '0' for B</p> </div> </div></div>","null","","","","","","","","","","","","","","","",""
"2549","","test","audio-keyboard-response","120","407541","0.0-9.0-1.45","5e86cadb81f7de310bae6d2d","condC","","resources/audio/wordStim/S3_AI_21_bxa_Step-8.wav","48","","","","","","resources/audio/wordStim/S3_AI_21_bxa_Step-8.wav","S3","21","bxa","8","MI","CN","S3-CN","1","0","false"
"null","","fixation","html-keyboard-response","121","408546","0.0-9.0-0.46","5e86cadb81f7de310bae6d2d","condC","","<div class=""vertical-center"" style='width:60%;'><img src=""resources/images/CN_flag_100x52.jpg"" style=""width:100px;height:52px;opacity:0.35;""> <br> <br> <p style='font-weight:bold;'>Does the middle word sound more like the first word (A) or the last word (B)?</p> <br> <div class=""container""> <div id=""a-box""> <p class=""title-text"">A</h3></p> </div> <div id=""x-box""> <p class=""title-text"">X<p> </div> <div id=""b-box""> <p class=""title-text"">B</p></div> <br> <div style='float: left;padding-left:30px;'><p>Press '1' for A</p></div><div style='float: right;padding-right:30px;'><p>Press '0' for B</p> </div> </div></div>","null","","","","","","","","","","","","","","","",""
"2848","","test","audio-keyboard-response","122","411395","0.0-9.0-1.46","5e86cadb81f7de310bae6d2d","condC","","resources/audio/wordStim/S3_AU_19_bxa_Step-5.wav","49","","","","","","resources/audio/wordStim/S3_AU_19_bxa_Step-5.wav","S3","19","bxa","5","MI","CN","S3-CN","1","1","true"
"null","","fixation","html-keyboard-response","123","412398","0.0-9.0-0.47","5e86cadb81f7de310bae6d2d","condC","","<div class=""vertical-center"" style='width:60%;'><img src=""resources/images/CN_flag_100x52.jpg"" style=""width:100px;height:52px;opacity:0.35;""> <br> <br> <p style='font-weight:bold;'>Does the middle word sound more like the first word (A) or the last word (B)?</p> <br> <div class=""container""> <div id=""a-box""> <p class=""title-text"">A</h3></p> </div> <div id=""x-box""> <p class=""title-text"">X<p> </div> <div id=""b-box""> <p class=""title-text"">B</p></div> <br> <div style='float: left;padding-left:30px;'><p>Press '1' for A</p></div><div style='float: right;padding-right:30px;'><p>Press '0' for B</p> </div> </div></div>","null","","","","","","","","","","","","","","","",""
"3760","","test","audio-keyboard-response","124","416155","0.0-9.0-1.47","5e86cadb81f7de310bae6d2d","condC","","resources/audio/wordStim/S3_AI_22_axb_Step-5.wav","49","","","","","","resources/audio/wordStim/S3_AI_22_axb_Step-5.wav","S3","22","axb","5","MI","CN","S3-CN","0","1","false"
"null","","fixation","html-keyboard-response","125","417159","0.0-9.0-0.48","5e86cadb81f7de310bae6d2d","condC","","<div class=""vertical-center"" style='width:60%;'><img src=""resources/images/CN_flag_100x52.jpg"" style=""width:100px;height:52px;opacity:0.35;""> <br> <br> <p style='font-weight:bold;'>Does the middle word sound more like the first word (A) or the last word (B)?</p> <br> <div class=""container""> <div id=""a-box""> <p class=""title-text"">A</h3></p> </div> <div id=""x-box""> <p class=""title-text"">X<p> </div> <div id=""b-box""> <p class=""title-text"">B</p></div> <br> <div style='float: left;padding-left:30px;'><p>Press '1' for A</p></div><div style='float: right;padding-right:30px;'><p>Press '0' for B</p> </div> </div></div>","null","","","","","","","","","","","","","","","",""
"3061","","test","audio-keyboard-response","126","420221","0.0-9.0-1.48","5e86cadb81f7de310bae6d2d","condC","","resources/audio/wordStim/S3_AU_20_bxa_Step-6.wav","49","","","","","","resources/audio/wordStim/S3_AU_20_bxa_Step-6.wav","S3","20","bxa","6","MI","CN","S3-CN","1","1","true"
"null","","fixation","html-keyboard-response","127","421225","0.0-9.0-0.49","5e86cadb81f7de310bae6d2d","condC","","<div class=""vertical-center"" style='width:60%;'><img src=""resources/images/CN_flag_100x52.jpg"" style=""width:100px;height:52px;opacity:0.35;""> <br> <br> <p style='font-weight:bold;'>Does the middle word sound more like the first word (A) or the last word (B)?</p> <br> <div class=""container""> <div id=""a-box""> <p class=""title-text"">A</h3></p> </div> <div id=""x-box""> <p class=""title-text"">X<p> </div> <div id=""b-box""> <p class=""title-text"">B</p></div> <br> <div style='float: left;padding-left:30px;'><p>Press '1' for A</p></div><div style='float: right;padding-right:30px;'><p>Press '0' for B</p> </div> </div></div>","null","","","","","","","","","","","","","","","",""
"3688","","test","audio-keyboard-response","128","424915","0.0-9.0-1.49","5e86cadb81f7de310bae6d2d","condC","","resources/audio/wordStim/S3_AU_18_bxa_Step-3.wav","49","","","","","","resources/audio/wordStim/S3_AU_18_bxa_Step-3.wav","S3","18","bxa","3","MI","CN","S3-CN","1","1","true"
"null","","fixation","html-keyboard-response","129","425919","0.0-9.0-0.50","5e86cadb81f7de310bae6d2d","condC","","<div class=""vertical-center"" style='width:60%;'><img src=""resources/images/CN_flag_100x52.jpg"" style=""width:100px;height:52px;opacity:0.35;""> <br> <br> <p style='font-weight:bold;'>Does the middle word sound more like the first word (A) or the last word (B)?</p> <br> <div class=""container""> <div id=""a-box""> <p class=""title-text"">A</h3></p> </div> <div id=""x-box""> <p class=""title-text"">X<p> </div> <div id=""b-box""> <p class=""title-text"">B</p></div> <br> <div style='float: left;padding-left:30px;'><p>Press '1' for A</p></div><div style='float: right;padding-right:30px;'><p>Press '0' for B</p> </div> </div></div>","null","","","","","","","","","","","","","","","",""
"2680","","test","audio-keyboard-response","130","428603","0.0-9.0-1.50","5e86cadb81f7de310bae6d2d","condC","","resources/audio/wordStim/S3_AI_21_bxa_Step-4.wav","48","","","","","","resources/audio/wordStim/S3_AI_21_bxa_Step-4.wav","S3","21","bxa","4","MI","CN","S3-CN","1","0","false"
"null","","fixation","html-keyboard-response","131","429608","0.0-9.0-0.51","5e86cadb81f7de310bae6d2d","condC","","<div class=""vertical-center"" style='width:60%;'><img src=""resources/images/CN_flag_100x52.jpg"" style=""width:100px;height:52px;opacity:0.35;""> <br> <br> <p style='font-weight:bold;'>Does the middle word sound more like the first word (A) or the last word (B)?</p> <br> <div class=""container""> <div id=""a-box""> <p class=""title-text"">A</h3></p> </div> <div id=""x-box""> <p class=""title-text"">X<p> </div> <div id=""b-box""> <p class=""title-text"">B</p></div> <br> <div style='float: left;padding-left:30px;'><p>Press '1' for A</p></div><div style='float: right;padding-right:30px;'><p>Press '0' for B</p> </div> </div></div>","null","","","","","","","","","","","","","","","",""
"4371","","test","audio-keyboard-response","132","433981","0.0-9.0-1.51","5e86cadb81f7de310bae6d2d","condC","","resources/audio/wordStim/S3_AU_18_axb_Step-3.wav","49","","","","","","resources/audio/wordStim/S3_AU_18_axb_Step-3.wav","S3","18","axb","3","MI","CN","S3-CN","0","1","false"
"null","","fixation","html-keyboard-response","133","434986","0.0-9.0-0.52","5e86cadb81f7de310bae6d2d","condC","","<div class=""vertical-center"" style='width:60%;'><img src=""resources/images/CN_flag_100x52.jpg"" style=""width:100px;height:52px;opacity:0.35;""> <br> <br> <p style='font-weight:bold;'>Does the middle word sound more like the first word (A) or the last word (B)?</p> <br> <div class=""container""> <div id=""a-box""> <p class=""title-text"">A</h3></p> </div> <div id=""x-box""> <p class=""title-text"">X<p> </div> <div id=""b-box""> <p class=""title-text"">B</p></div> <br> <div style='float: left;padding-left:30px;'><p>Press '1' for A</p></div><div style='float: right;padding-right:30px;'><p>Press '0' for B</p> </div> </div></div>","null","","","","","","","","","","","","","","","",""
"3019","","test","audio-keyboard-response","134","438011","0.0-9.0-1.52","5e86cadb81f7de310bae6d2d","condC","","resources/audio/wordStim/S3_AU_20_bxa_Step-2.wav","49","","","","","","resources/audio/wordStim/S3_AU_20_bxa_Step-2.wav","S3","20","bxa","2","MI","CN","S3-CN","1","1","true"
"null","","fixation","html-keyboard-response","135","439015","0.0-9.0-0.53","5e86cadb81f7de310bae6d2d","condC","","<div class=""vertical-center"" style='width:60%;'><img src=""resources/images/CN_flag_100x52.jpg"" style=""width:100px;height:52px;opacity:0.35;""> <br> <br> <p style='font-weight:bold;'>Does the middle word sound more like the first word (A) or the last word (B)?</p> <br> <div class=""container""> <div id=""a-box""> <p class=""title-text"">A</h3></p> </div> <div id=""x-box""> <p class=""title-text"">X<p> </div> <div id=""b-box""> <p class=""title-text"">B</p></div> <br> <div style='float: left;padding-left:30px;'><p>Press '1' for A</p></div><div style='float: right;padding-right:30px;'><p>Press '0' for B</p> </div> </div></div>","null","","","","","","","","","","","","","","","",""
"4000","","test","audio-keyboard-response","136","443019","0.0-9.0-1.53","5e86cadb81f7de310bae6d2d","condC","","resources/audio/wordStim/S3_AI_30_axb_Step-7.wav","48","","","","","","resources/audio/wordStim/S3_AI_30_axb_Step-7.wav","S3","30","axb","7","MI","CN","S3-CN","0","0","true"
"null","","fixation","html-keyboard-response","137","444024","0.0-9.0-0.54","5e86cadb81f7de310bae6d2d","condC","","<div class=""vertical-center"" style='width:60%;'><img src=""resources/images/CN_flag_100x52.jpg"" style=""width:100px;height:52px;opacity:0.35;""> <br> <br> <p style='font-weight:bold;'>Does the middle word sound more like the first word (A) or the last word (B)?</p> <br> <div class=""container""> <div id=""a-box""> <p class=""title-text"">A</h3></p> </div> <div id=""x-box""> <p class=""title-text"">X<p> </div> <div id=""b-box""> <p class=""title-text"">B</p></div> <br> <div style='float: left;padding-left:30px;'><p>Press '1' for A</p></div><div style='float: right;padding-right:30px;'><p>Press '0' for B</p> </div> </div></div>","null","","","","","","","","","","","","","","","",""
"3048","","test","audio-keyboard-response","138","447076","0.0-9.0-1.54","5e86cadb81f7de310bae6d2d","condC","","resources/audio/wordStim/S3_AU_20_bxa_Step-4.wav","48","","","","","","resources/audio/wordStim/S3_AU_20_bxa_Step-4.wav","S3","20","bxa","4","MI","CN","S3-CN","1","0","false"
"null","","fixation","html-keyboard-response","139","448081","0.0-9.0-0.55","5e86cadb81f7de310bae6d2d","condC","","<div class=""vertical-center"" style='width:60%;'><img src=""resources/images/CN_flag_100x52.jpg"" style=""width:100px;height:52px;opacity:0.35;""> <br> <br> <p style='font-weight:bold;'>Does the middle word sound more like the first word (A) or the last word (B)?</p> <br> <div class=""container""> <div id=""a-box""> <p class=""title-text"">A</h3></p> </div> <div id=""x-box""> <p class=""title-text"">X<p> </div> <div id=""b-box""> <p class=""title-text"">B</p></div> <br> <div style='float: left;padding-left:30px;'><p>Press '1' for A</p></div><div style='float: right;padding-right:30px;'><p>Press '0' for B</p> </div> </div></div>","null","","","","","","","","","","","","","","","",""
"3221","","test","audio-keyboard-response","140","451307","0.0-9.0-1.55","5e86cadb81f7de310bae6d2d","condC","","resources/audio/wordStim/S3_AI_30_axb_Step-4.wav","49","","","","","","resources/audio/wordStim/S3_AI_30_axb_Step-4.wav","S3","30","axb","4","MI","CN","S3-CN","0","1","false"
"null","","fixation","html-keyboard-response","141","452310","0.0-9.0-0.56","5e86cadb81f7de310bae6d2d","condC","","<div class=""vertical-center"" style='width:60%;'><img src=""resources/images/CN_flag_100x52.jpg"" style=""width:100px;height:52px;opacity:0.35;""> <br> <br> <p style='font-weight:bold;'>Does the middle word sound more like the first word (A) or the last word (B)?</p> <br> <div class=""container""> <div id=""a-box""> <p class=""title-text"">A</h3></p> </div> <div id=""x-box""> <p class=""title-text"">X<p> </div> <div id=""b-box""> <p class=""title-text"">B</p></div> <br> <div style='float: left;padding-left:30px;'><p>Press '1' for A</p></div><div style='float: right;padding-right:30px;'><p>Press '0' for B</p> </div> </div></div>","null","","","","","","","","","","","","","","","",""
"2608","","test","audio-keyboard-response","142","454914","0.0-9.0-1.56","5e86cadb81f7de310bae6d2d","condC","","resources/audio/wordStim/S3_AI_21_axb_Step-4.wav","49","","","","","","resources/audio/wordStim/S3_AI_21_axb_Step-4.wav","S3","21","axb","4","MI","CN","S3-CN","0","1","false"
"null","","fixation","html-keyboard-response","143","455916","0.0-9.0-0.57","5e86cadb81f7de310bae6d2d","condC","","<div class=""vertical-center"" style='width:60%;'><img src=""resources/images/CN_flag_100x52.jpg"" style=""width:100px;height:52px;opacity:0.35;""> <br> <br> <p style='font-weight:bold;'>Does the middle word sound more like the first word (A) or the last word (B)?</p> <br> <div class=""container""> <div id=""a-box""> <p class=""title-text"">A</h3></p> </div> <div id=""x-box""> <p class=""title-text"">X<p> </div> <div id=""b-box""> <p class=""title-text"">B</p></div> <br> <div style='float: left;padding-left:30px;'><p>Press '1' for A</p></div><div style='float: right;padding-right:30px;'><p>Press '0' for B</p> </div> </div></div>","null","","","","","","","","","","","","","","","",""
"3400","","test","audio-keyboard-response","144","459316","0.0-9.0-1.57","5e86cadb81f7de310bae6d2d","condC","","resources/audio/wordStim/S3_AI_22_axb_Step-2.wav","49","","","","","","resources/audio/wordStim/S3_AI_22_axb_Step-2.wav","S3","22","axb","2","MI","CN","S3-CN","0","1","false"
"null","","fixation","html-keyboard-response","145","460321","0.0-9.0-0.58","5e86cadb81f7de310bae6d2d","condC","","<div class=""vertical-center"" style='width:60%;'><img src=""resources/images/CN_flag_100x52.jpg"" style=""width:100px;height:52px;opacity:0.35;""> <br> <br> <p style='font-weight:bold;'>Does the middle word sound more like the first word (A) or the last word (B)?</p> <br> <div class=""container""> <div id=""a-box""> <p class=""title-text"">A</h3></p> </div> <div id=""x-box""> <p class=""title-text"">X<p> </div> <div id=""b-box""> <p class=""title-text"">B</p></div> <br> <div style='float: left;padding-left:30px;'><p>Press '1' for A</p></div><div style='float: right;padding-right:30px;'><p>Press '0' for B</p> </div> </div></div>","null","","","","","","","","","","","","","","","",""
"2509","","test","audio-keyboard-response","146","462835","0.0-9.0-1.58","5e86cadb81f7de310bae6d2d","condC","","resources/audio/wordStim/S3_AI_21_axb_Step-7.wav","49","","","","","","resources/audio/wordStim/S3_AI_21_axb_Step-7.wav","S3","21","axb","7","MI","CN","S3-CN","0","1","false"
"null","","fixation","html-keyboard-response","147","463838","0.0-9.0-0.59","5e86cadb81f7de310bae6d2d","condC","","<div class=""vertical-center"" style='width:60%;'><img src=""resources/images/CN_flag_100x52.jpg"" style=""width:100px;height:52px;opacity:0.35;""> <br> <br> <p style='font-weight:bold;'>Does the middle word sound more like the first word (A) or the last word (B)?</p> <br> <div class=""container""> <div id=""a-box""> <p class=""title-text"">A</h3></p> </div> <div id=""x-box""> <p class=""title-text"">X<p> </div> <div id=""b-box""> <p class=""title-text"">B</p></div> <br> <div style='float: left;padding-left:30px;'><p>Press '1' for A</p></div><div style='float: right;padding-right:30px;'><p>Press '0' for B</p> </div> </div></div>","null","","","","","","","","","","","","","","","",""
"2360","","test","audio-keyboard-response","148","466195","0.0-9.0-1.59","5e86cadb81f7de310bae6d2d","condC","","resources/audio/wordStim/S3_AI_21_bxa_Step-7.wav","49","","","","","","resources/audio/wordStim/S3_AI_21_bxa_Step-7.wav","S3","21","bxa","7","MI","CN","S3-CN","1","1","true"
"null","","fixation","html-keyboard-response","149","467199","0.0-9.0-0.60","5e86cadb81f7de310bae6d2d","condC","","<div class=""vertical-center"" style='width:60%;'><img src=""resources/images/CN_flag_100x52.jpg"" style=""width:100px;height:52px;opacity:0.35;""> <br> <br> <p style='font-weight:bold;'>Does the middle word sound more like the first word (A) or the last word (B)?</p> <br> <div class=""container""> <div id=""a-box""> <p class=""title-text"">A</h3></p> </div> <div id=""x-box""> <p class=""title-text"">X<p> </div> <div id=""b-box""> <p class=""title-text"">B</p></div> <br> <div style='float: left;padding-left:30px;'><p>Press '1' for A</p></div><div style='float: right;padding-right:30px;'><p>Press '0' for B</p> </div> </div></div>","null","","","","","","","","","","","","","","","",""
"2461","","test","audio-keyboard-response","150","469660","0.0-9.0-1.60","5e86cadb81f7de310bae6d2d","condC","","resources/audio/wordStim/S3_AI_21_bxa_Step-2.wav","49","","","","","","resources/audio/wordStim/S3_AI_21_bxa_Step-2.wav","S3","21","bxa","2","MI","CN","S3-CN","1","1","true"
"null","","fixation","html-keyboard-response","151","470664","0.0-9.0-0.61","5e86cadb81f7de310bae6d2d","condC","","<div class=""vertical-center"" style='width:60%;'><img src=""resources/images/CN_flag_100x52.jpg"" style=""width:100px;height:52px;opacity:0.35;""> <br> <br> <p style='font-weight:bold;'>Does the middle word sound more like the first word (A) or the last word (B)?</p> <br> <div class=""container""> <div id=""a-box""> <p class=""title-text"">A</h3></p> </div> <div id=""x-box""> <p class=""title-text"">X<p> </div> <div id=""b-box""> <p class=""title-text"">B</p></div> <br> <div style='float: left;padding-left:30px;'><p>Press '1' for A</p></div><div style='float: right;padding-right:30px;'><p>Press '0' for B</p> </div> </div></div>","null","","","","","","","","","","","","","","","",""
"7728","","test","audio-keyboard-response","152","478395","0.0-9.0-1.61","5e86cadb81f7de310bae6d2d","condC","","resources/audio/wordStim/S3_AU_18_bxa_Step-7.wav","48","","","","","","resources/audio/wordStim/S3_AU_18_bxa_Step-7.wav","S3","18","bxa","7","MI","CN","S3-CN","1","0","false"
"null","","fixation","html-keyboard-response","153","479399","0.0-9.0-0.62","5e86cadb81f7de310bae6d2d","condC","","<div class=""vertical-center"" style='width:60%;'><img src=""resources/images/CN_flag_100x52.jpg"" style=""width:100px;height:52px;opacity:0.35;""> <br> <br> <p style='font-weight:bold;'>Does the middle word sound more like the first word (A) or the last word (B)?</p> <br> <div class=""container""> <div id=""a-box""> <p class=""title-text"">A</h3></p> </div> <div id=""x-box""> <p class=""title-text"">X<p> </div> <div id=""b-box""> <p class=""title-text"">B</p></div> <br> <div style='float: left;padding-left:30px;'><p>Press '1' for A</p></div><div style='float: right;padding-right:30px;'><p>Press '0' for B</p> </div> </div></div>","null","","","","","","","","","","","","","","","",""
"4251","","test","audio-keyboard-response","154","483652","0.0-9.0-1.62","5e86cadb81f7de310bae6d2d","condC","","resources/audio/wordStim/S3_AU_18_bxa_Step-5.wav","49","","","","","","resources/audio/wordStim/S3_AU_18_bxa_Step-5.wav","S3","18","bxa","5","MI","CN","S3-CN","1","1","true"
"3383.9100000914186","","break","html-keyboard-response","155","487539","0.0-9.0-2.62-0.62","5e86cadb81f7de310bae6d2d","condC","","<div class=""vertical-center""><p>Feel free to take a break!</p><i>When you're ready to continue, press SPACE to begin the next trial.</i></p></div>","32","","","","","","","","","","","","","","","",""
"null","","fixation","html-keyboard-response","156","488042","0.0-9.0-0.63","5e86cadb81f7de310bae6d2d","condC","","<div class=""vertical-center"" style='width:60%;'><img src=""resources/images/CN_flag_100x52.jpg"" style=""width:100px;height:52px;opacity:0.35;""> <br> <br> <p style='font-weight:bold;'>Does the middle word sound more like the first word (A) or the last word (B)?</p> <br> <div class=""container""> <div id=""a-box""> <p class=""title-text"">A</h3></p> </div> <div id=""x-box""> <p class=""title-text"">X<p> </div> <div id=""b-box""> <p class=""title-text"">B</p></div> <br> <div style='float: left;padding-left:30px;'><p>Press '1' for A</p></div><div style='float: right;padding-right:30px;'><p>Press '0' for B</p> </div> </div></div>","null","","","","","","","","","","","","","","","",""
"3291","","test","audio-keyboard-response","157","491339","0.0-9.0-1.63","5e86cadb81f7de310bae6d2d","condC","","resources/audio/wordStim/S3_AI_30_axb_Step-3.wav","49","","","","","","resources/audio/wordStim/S3_AI_30_axb_Step-3.wav","S3","30","axb","3","MI","CN","S3-CN","0","1","false"
"null","","fixation","html-keyboard-response","158","492343","0.0-9.0-0.64","5e86cadb81f7de310bae6d2d","condC","","<div class=""vertical-center"" style='width:60%;'><img src=""resources/images/CN_flag_100x52.jpg"" style=""width:100px;height:52px;opacity:0.35;""> <br> <br> <p style='font-weight:bold;'>Does the middle word sound more like the first word (A) or the last word (B)?</p> <br> <div class=""container""> <div id=""a-box""> <p class=""title-text"">A</h3></p> </div> <div id=""x-box""> <p class=""title-text"">X<p> </div> <div id=""b-box""> <p class=""title-text"">B</p></div> <br> <div style='float: left;padding-left:30px;'><p>Press '1' for A</p></div><div style='float: right;padding-right:30px;'><p>Press '0' for B</p> </div> </div></div>","null","","","","","","","","","","","","","","","",""
"2640","","test","audio-keyboard-response","159","494988","0.0-9.0-1.64","5e86cadb81f7de310bae6d2d","condC","","resources/audio/wordStim/S3_AI_21_axb_Step-2.wav","49","","","","","","resources/audio/wordStim/S3_AI_21_axb_Step-2.wav","S3","21","axb","2","MI","CN","S3-CN","0","1","false"
"null","","fixation","html-keyboard-response","160","495996","0.0-9.0-0.65","5e86cadb81f7de310bae6d2d","condC","","<div class=""vertical-center"" style='width:60%;'><img src=""resources/images/CN_flag_100x52.jpg"" style=""width:100px;height:52px;opacity:0.35;""> <br> <br> <p style='font-weight:bold;'>Does the middle word sound more like the first word (A) or the last word (B)?</p> <br> <div class=""container""> <div id=""a-box""> <p class=""title-text"">A</h3></p> </div> <div id=""x-box""> <p class=""title-text"">X<p> </div> <div id=""b-box""> <p class=""title-text"">B</p></div> <br> <div style='float: left;padding-left:30px;'><p>Press '1' for A</p></div><div style='float: right;padding-right:30px;'><p>Press '0' for B</p> </div> </div></div>","null","","","","","","","","","","","","","","","",""
"4640","","test","audio-keyboard-response","161","500635","0.0-9.0-1.65","5e86cadb81f7de310bae6d2d","condC","","resources/audio/wordStim/S3_AU_19_bxa_Step-8.wav","48","","","","","","resources/audio/wordStim/S3_AU_19_bxa_Step-8.wav","S3","19","bxa","8","MI","CN","S3-CN","1","0","false"
"null","","fixation","html-keyboard-response","162","501640","0.0-9.0-0.66","5e86cadb81f7de310bae6d2d","condC","","<div class=""vertical-center"" style='width:60%;'><img src=""resources/images/CN_flag_100x52.jpg"" style=""width:100px;height:52px;opacity:0.35;""> <br> <br> <p style='font-weight:bold;'>Does the middle word sound more like the first word (A) or the last word (B)?</p> <br> <div class=""container""> <div id=""a-box""> <p class=""title-text"">A</h3></p> </div> <div id=""x-box""> <p class=""title-text"">X<p> </div> <div id=""b-box""> <p class=""title-text"">B</p></div> <br> <div style='float: left;padding-left:30px;'><p>Press '1' for A</p></div><div style='float: right;padding-right:30px;'><p>Press '0' for B</p> </div> </div></div>","null","","","","","","","","","","","","","","","",""
"3920","","test","audio-keyboard-response","163","505556","0.0-9.0-1.66","5e86cadb81f7de310bae6d2d","condC","","resources/audio/wordStim/S3_AU_18_axb_Step-7.wav","48","","","","","","resources/audio/wordStim/S3_AU_18_axb_Step-7.wav","S3","18","axb","7","MI","CN","S3-CN","0","0","true"
"null","","fixation","html-keyboard-response","164","506562","0.0-9.0-0.67","5e86cadb81f7de310bae6d2d","condC","","<div class=""vertical-center"" style='width:60%;'><img src=""resources/images/CN_flag_100x52.jpg"" style=""width:100px;height:52px;opacity:0.35;""> <br> <br> <p style='font-weight:bold;'>Does the middle word sound more like the first word (A) or the last word (B)?</p> <br> <div class=""container""> <div id=""a-box""> <p class=""title-text"">A</h3></p> </div> <div id=""x-box""> <p class=""title-text"">X<p> </div> <div id=""b-box""> <p class=""title-text"">B</p></div> <br> <div style='float: left;padding-left:30px;'><p>Press '1' for A</p></div><div style='float: right;padding-right:30px;'><p>Press '0' for B</p> </div> </div></div>","null","","","","","","","","","","","","","","","",""
"3571","","test","audio-keyboard-response","165","510139","0.0-9.0-1.67","5e86cadb81f7de310bae6d2d","condC","","resources/audio/wordStim/S3_AI_22_axb_Step-8.wav","49","","","","","","resources/audio/wordStim/S3_AI_22_axb_Step-8.wav","S3","22","axb","8","MI","CN","S3-CN","0","1","false"
"null","","fixation","html-keyboard-response","166","511144","0.0-9.0-0.68","5e86cadb81f7de310bae6d2d","condC","","<div class=""vertical-center"" style='width:60%;'><img src=""resources/images/CN_flag_100x52.jpg"" style=""width:100px;height:52px;opacity:0.35;""> <br> <br> <p style='font-weight:bold;'>Does the middle word sound more like the first word (A) or the last word (B)?</p> <br> <div class=""container""> <div id=""a-box""> <p class=""title-text"">A</h3></p> </div> <div id=""x-box""> <p class=""title-text"">X<p> </div> <div id=""b-box""> <p class=""title-text"">B</p></div> <br> <div style='float: left;padding-left:30px;'><p>Press '1' for A</p></div><div style='float: right;padding-right:30px;'><p>Press '0' for B</p> </div> </div></div>","null","","","","","","","","","","","","","","","",""
"4219","","test","audio-keyboard-response","167","515371","0.0-9.0-1.68","5e86cadb81f7de310bae6d2d","condC","","resources/audio/wordStim/S3_AU_18_bxa_Step-2.wav","48","","","","","","resources/audio/wordStim/S3_AU_18_bxa_Step-2.wav","S3","18","bxa","2","MI","CN","S3-CN","1","0","false"
"null","","fixation","html-keyboard-response","168","516376","0.0-9.0-0.69","5e86cadb81f7de310bae6d2d","condC","","<div class=""vertical-center"" style='width:60%;'><img src=""resources/images/CN_flag_100x52.jpg"" style=""width:100px;height:52px;opacity:0.35;""> <br> <br> <p style='font-weight:bold;'>Does the middle word sound more like the first word (A) or the last word (B)?</p> <br> <div class=""container""> <div id=""a-box""> <p class=""title-text"">A</h3></p> </div> <div id=""x-box""> <p class=""title-text"">X<p> </div> <div id=""b-box""> <p class=""title-text"">B</p></div> <br> <div style='float: left;padding-left:30px;'><p>Press '1' for A</p></div><div style='float: right;padding-right:30px;'><p>Press '0' for B</p> </div> </div></div>","null","","","","","","","","","","","","","","","",""
"2909","","test","audio-keyboard-response","169","519284","0.0-9.0-1.69","5e86cadb81f7de310bae6d2d","condC","","resources/audio/wordStim/S3_AI_21_axb_Step-5.wav","48","","","","","","resources/audio/wordStim/S3_AI_21_axb_Step-5.wav","S3","21","axb","5","MI","CN","S3-CN","0","0","true"
"null","","fixation","html-keyboard-response","170","520289","0.0-9.0-0.70","5e86cadb81f7de310bae6d2d","condC","","<div class=""vertical-center"" style='width:60%;'><img src=""resources/images/CN_flag_100x52.jpg"" style=""width:100px;height:52px;opacity:0.35;""> <br> <br> <p style='font-weight:bold;'>Does the middle word sound more like the first word (A) or the last word (B)?</p> <br> <div class=""container""> <div id=""a-box""> <p class=""title-text"">A</h3></p> </div> <div id=""x-box""> <p class=""title-text"">X<p> </div> <div id=""b-box""> <p class=""title-text"">B</p></div> <br> <div style='float: left;padding-left:30px;'><p>Press '1' for A</p></div><div style='float: right;padding-right:30px;'><p>Press '0' for B</p> </div> </div></div>","null","","","","","","","","","","","","","","","",""
"4181","","test","audio-keyboard-response","171","524467","0.0-9.0-1.70","5e86cadb81f7de310bae6d2d","condC","","resources/audio/wordStim/S3_AU_19_axb_Step-7.wav","48","","","","","","resources/audio/wordStim/S3_AU_19_axb_Step-7.wav","S3","19","axb","7","MI","CN","S3-CN","0","0","true"
"null","","fixation","html-keyboard-response","172","525471","0.0-9.0-0.71","5e86cadb81f7de310bae6d2d","condC","","<div class=""vertical-center"" style='width:60%;'><img src=""resources/images/CN_flag_100x52.jpg"" style=""width:100px;height:52px;opacity:0.35;""> <br> <br> <p style='font-weight:bold;'>Does the middle word sound more like the first word (A) or the last word (B)?</p> <br> <div class=""container""> <div id=""a-box""> <p class=""title-text"">A</h3></p> </div> <div id=""x-box""> <p class=""title-text"">X<p> </div> <div id=""b-box""> <p class=""title-text"">B</p></div> <br> <div style='float: left;padding-left:30px;'><p>Press '1' for A</p></div><div style='float: right;padding-right:30px;'><p>Press '0' for B</p> </div> </div></div>","null","","","","","","","","","","","","","","","",""
"3600","","test","audio-keyboard-response","173","529085","0.0-9.0-1.71","5e86cadb81f7de310bae6d2d","condC","","resources/audio/wordStim/S3_AI_30_axb_Step-6.wav","49","","","","","","resources/audio/wordStim/S3_AI_30_axb_Step-6.wav","S3","30","axb","6","MI","CN","S3-CN","0","1","false"
"null","","fixation","html-keyboard-response","174","530090","0.0-9.0-0.72","5e86cadb81f7de310bae6d2d","condC","","<div class=""vertical-center"" style='width:60%;'><img src=""resources/images/CN_flag_100x52.jpg"" style=""width:100px;height:52px;opacity:0.35;""> <br> <br> <p style='font-weight:bold;'>Does the middle word sound more like the first word (A) or the last word (B)?</p> <br> <div class=""container""> <div id=""a-box""> <p class=""title-text"">A</h3></p> </div> <div id=""x-box""> <p class=""title-text"">X<p> </div> <div id=""b-box""> <p class=""title-text"">B</p></div> <br> <div style='float: left;padding-left:30px;'><p>Press '1' for A</p></div><div style='float: right;padding-right:30px;'><p>Press '0' for B</p> </div> </div></div>","null","","","","","","","","","","","","","","","",""
"2840","","test","audio-keyboard-response","175","532932","0.0-9.0-1.72","5e86cadb81f7de310bae6d2d","condC","","resources/audio/wordStim/S3_AI_21_axb_Step-6.wav","48","","","","","","resources/audio/wordStim/S3_AI_21_axb_Step-6.wav","S3","21","axb","6","MI","CN","S3-CN","0","0","true"
"null","","fixation","html-keyboard-response","176","533937","0.0-9.0-0.73","5e86cadb81f7de310bae6d2d","condC","","<div class=""vertical-center"" style='width:60%;'><img src=""resources/images/CN_flag_100x52.jpg"" style=""width:100px;height:52px;opacity:0.35;""> <br> <br> <p style='font-weight:bold;'>Does the middle word sound more like the first word (A) or the last word (B)?</p> <br> <div class=""container""> <div id=""a-box""> <p class=""title-text"">A</h3></p> </div> <div id=""x-box""> <p class=""title-text"">X<p> </div> <div id=""b-box""> <p class=""title-text"">B</p></div> <br> <div style='float: left;padding-left:30px;'><p>Press '1' for A</p></div><div style='float: right;padding-right:30px;'><p>Press '0' for B</p> </div> </div></div>","null","","","","","","","","","","","","","","","",""
"2829","","test","audio-keyboard-response","177","536771","0.0-9.0-1.73","5e86cadb81f7de310bae6d2d","condC","","resources/audio/wordStim/S3_AU_19_axb_Step-5.wav","49","","","","","","resources/audio/wordStim/S3_AU_19_axb_Step-5.wav","S3","19","axb","5","MI","CN","S3-CN","0","1","false"
"null","","fixation","html-keyboard-response","178","537777","0.0-9.0-0.74","5e86cadb81f7de310bae6d2d","condC","","<div class=""vertical-center"" style='width:60%;'><img src=""resources/images/CN_flag_100x52.jpg"" style=""width:100px;height:52px;opacity:0.35;""> <br> <br> <p style='font-weight:bold;'>Does the middle word sound more like the first word (A) or the last word (B)?</p> <br> <div class=""container""> <div id=""a-box""> <p class=""title-text"">A</h3></p> </div> <div id=""x-box""> <p class=""title-text"">X<p> </div> <div id=""b-box""> <p class=""title-text"">B</p></div> <br> <div style='float: left;padding-left:30px;'><p>Press '1' for A</p></div><div style='float: right;padding-right:30px;'><p>Press '0' for B</p> </div> </div></div>","null","","","","","","","","","","","","","","","",""
"3899","","test","audio-keyboard-response","179","541683","0.0-9.0-1.74","5e86cadb81f7de310bae6d2d","condC","","resources/audio/wordStim/S3_AU_18_axb_Step-6.wav","48","","","","","","resources/audio/wordStim/S3_AU_18_axb_Step-6.wav","S3","18","axb","6","MI","CN","S3-CN","0","0","true"
"null","","fixation","html-keyboard-response","180","542687","0.0-9.0-0.75","5e86cadb81f7de310bae6d2d","condC","","<div class=""vertical-center"" style='width:60%;'><img src=""resources/images/CN_flag_100x52.jpg"" style=""width:100px;height:52px;opacity:0.35;""> <br> <br> <p style='font-weight:bold;'>Does the middle word sound more like the first word (A) or the last word (B)?</p> <br> <div class=""container""> <div id=""a-box""> <p class=""title-text"">A</h3></p> </div> <div id=""x-box""> <p class=""title-text"">X<p> </div> <div id=""b-box""> <p class=""title-text"">B</p></div> <br> <div style='float: left;padding-left:30px;'><p>Press '1' for A</p></div><div style='float: right;padding-right:30px;'><p>Press '0' for B</p> </div> </div></div>","null","","","","","","","","","","","","","","","",""
"3101","","test","audio-keyboard-response","181","545789","0.0-9.0-1.75","5e86cadb81f7de310bae6d2d","condC","","resources/audio/wordStim/S3_AU_20_axb_Step-3.wav","49","","","","","","resources/audio/wordStim/S3_AU_20_axb_Step-3.wav","S3","20","axb","3","MI","CN","S3-CN","0","1","false"
"null","","fixation","html-keyboard-response","182","546794","0.0-9.0-0.76","5e86cadb81f7de310bae6d2d","condC","","<div class=""vertical-center"" style='width:60%;'><img src=""resources/images/CN_flag_100x52.jpg"" style=""width:100px;height:52px;opacity:0.35;""> <br> <br> <p style='font-weight:bold;'>Does the middle word sound more like the first word (A) or the last word (B)?</p> <br> <div class=""container""> <div id=""a-box""> <p class=""title-text"">A</h3></p> </div> <div id=""x-box""> <p class=""title-text"">X<p> </div> <div id=""b-box""> <p class=""title-text"">B</p></div> <br> <div style='float: left;padding-left:30px;'><p>Press '1' for A</p></div><div style='float: right;padding-right:30px;'><p>Press '0' for B</p> </div> </div></div>","null","","","","","","","","","","","","","","","",""
"3000","","test","audio-keyboard-response","183","549804","0.0-9.0-1.76","5e86cadb81f7de310bae6d2d","condC","","resources/audio/wordStim/S3_AU_20_axb_Step-2.wav","49","","","","","","resources/audio/wordStim/S3_AU_20_axb_Step-2.wav","S3","20","axb","2","MI","CN","S3-CN","0","1","false"
"null","","fixation","html-keyboard-response","184","550808","0.0-9.0-0.77","5e86cadb81f7de310bae6d2d","condC","","<div class=""vertical-center"" style='width:60%;'><img src=""resources/images/CN_flag_100x52.jpg"" style=""width:100px;height:52px;opacity:0.35;""> <br> <br> <p style='font-weight:bold;'>Does the middle word sound more like the first word (A) or the last word (B)?</p> <br> <div class=""container""> <div id=""a-box""> <p class=""title-text"">A</h3></p> </div> <div id=""x-box""> <p class=""title-text"">X<p> </div> <div id=""b-box""> <p class=""title-text"">B</p></div> <br> <div style='float: left;padding-left:30px;'><p>Press '1' for A</p></div><div style='float: right;padding-right:30px;'><p>Press '0' for B</p> </div> </div></div>","null","","","","","","","","","","","","","","","",""
"3040","","test","audio-keyboard-response","185","553850","0.0-9.0-1.77","5e86cadb81f7de310bae6d2d","condC","","resources/audio/wordStim/S3_AU_19_bxa_Step-4.wav","49","","","","","","resources/audio/wordStim/S3_AU_19_bxa_Step-4.wav","S3","19","bxa","4","MI","CN","S3-CN","1","1","true"
"null","","fixation","html-keyboard-response","186","554854","0.0-9.0-0.78","5e86cadb81f7de310bae6d2d","condC","","<div class=""vertical-center"" style='width:60%;'><img src=""resources/images/CN_flag_100x52.jpg"" style=""width:100px;height:52px;opacity:0.35;""> <br> <br> <p style='font-weight:bold;'>Does the middle word sound more like the first word (A) or the last word (B)?</p> <br> <div class=""container""> <div id=""a-box""> <p class=""title-text"">A</h3></p> </div> <div id=""x-box""> <p class=""title-text"">X<p> </div> <div id=""b-box""> <p class=""title-text"">B</p></div> <br> <div style='float: left;padding-left:30px;'><p>Press '1' for A</p></div><div style='float: right;padding-right:30px;'><p>Press '0' for B</p> </div> </div></div>","null","","","","","","","","","","","","","","","",""
"4149","","test","audio-keyboard-response","187","559005","0.0-9.0-1.78","5e86cadb81f7de310bae6d2d","condC","","resources/audio/wordStim/S3_AU_18_bxa_Step-6.wav","49","","","","","","resources/audio/wordStim/S3_AU_18_bxa_Step-6.wav","S3","18","bxa","6","MI","CN","S3-CN","1","1","true"
"null","","fixation","html-keyboard-response","188","560011","0.0-9.0-0.79","5e86cadb81f7de310bae6d2d","condC","","<div class=""vertical-center"" style='width:60%;'><img src=""resources/images/CN_flag_100x52.jpg"" style=""width:100px;height:52px;opacity:0.35;""> <br> <br> <p style='font-weight:bold;'>Does the middle word sound more like the first word (A) or the last word (B)?</p> <br> <div class=""container""> <div id=""a-box""> <p class=""title-text"">A</h3></p> </div> <div id=""x-box""> <p class=""title-text"">X<p> </div> <div id=""b-box""> <p class=""title-text"">B</p></div> <br> <div style='float: left;padding-left:30px;'><p>Press '1' for A</p></div><div style='float: right;padding-right:30px;'><p>Press '0' for B</p> </div> </div></div>","null","","","","","","","","","","","","","","","",""
"3349","","test","audio-keyboard-response","189","563363","0.0-9.0-1.79","5e86cadb81f7de310bae6d2d","condC","","resources/audio/wordStim/S3_AI_30_axb_Step-5.wav","49","","","","","","resources/audio/wordStim/S3_AI_30_axb_Step-5.wav","S3","30","axb","5","MI","CN","S3-CN","0","1","false"
"null","","fixation","html-keyboard-response","190","564368","0.0-9.0-0.80","5e86cadb81f7de310bae6d2d","condC","","<div class=""vertical-center"" style='width:60%;'><img src=""resources/images/CN_flag_100x52.jpg"" style=""width:100px;height:52px;opacity:0.35;""> <br> <br> <p style='font-weight:bold;'>Does the middle word sound more like the first word (A) or the last word (B)?</p> <br> <div class=""container""> <div id=""a-box""> <p class=""title-text"">A</h3></p> </div> <div id=""x-box""> <p class=""title-text"">X<p> </div> <div id=""b-box""> <p class=""title-text"">B</p></div> <br> <div style='float: left;padding-left:30px;'><p>Press '1' for A</p></div><div style='float: right;padding-right:30px;'><p>Press '0' for B</p> </div> </div></div>","null","","","","","","","","","","","","","","","",""
"3571","","test","audio-keyboard-response","191","567939","0.0-9.0-1.80","5e86cadb81f7de310bae6d2d","condC","","resources/audio/wordStim/S3_AU_20_axb_Step-7.wav","49","","","","","","resources/audio/wordStim/S3_AU_20_axb_Step-7.wav","S3","20","axb","7","MI","CN","S3-CN","0","1","false"
"null","","fixation","html-keyboard-response","192","568943","0.0-9.0-0.81","5e86cadb81f7de310bae6d2d","condC","","<div class=""vertical-center"" style='width:60%;'><img src=""resources/images/CN_flag_100x52.jpg"" style=""width:100px;height:52px;opacity:0.35;""> <br> <br> <p style='font-weight:bold;'>Does the middle word sound more like the first word (A) or the last word (B)?</p> <br> <div class=""container""> <div id=""a-box""> <p class=""title-text"">A</h3></p> </div> <div id=""x-box""> <p class=""title-text"">X<p> </div> <div id=""b-box""> <p class=""title-text"">B</p></div> <br> <div style='float: left;padding-left:30px;'><p>Press '1' for A</p></div><div style='float: right;padding-right:30px;'><p>Press '0' for B</p> </div> </div></div>","null","","","","","","","","","","","","","","","",""
"3069","","test","audio-keyboard-response","193","572020","0.0-9.0-1.81","5e86cadb81f7de310bae6d2d","condC","","resources/audio/wordStim/S3_AU_20_bxa_Step-3.wav","48","","","","","","resources/audio/wordStim/S3_AU_20_bxa_Step-3.wav","S3","20","bxa","3","MI","CN","S3-CN","1","0","false"
