"rt","url","trial_role","trial_type","trial_index","time_elapsed","internal_node_id","participantId","conditionId","view_history","stimulus","key_press","button_pressed","correct_answer","correct_response","success","vowel","wordStim","speaker","sentNum","order","step","speakerIdentity","speakerGuise","guiseName","raised_answer","key_response","raised_response"
"11967.740001156926","micr.axb.consent.html","consent","external-html","0","12037","0.0-0.0","5f35cc94e0a84d611c36bf80","condC","","","","","","","","","","","","","","","","","","",""
"27206.2649987638","","instructions","instructions","1","39249","0.0-1.0","5f35cc94e0a84d611c36bf80","condC","[{""page_index"":0,""viewing_time"":3421.085000038147},{""page_index"":1,""viewing_time"":11253.425000235438},{""page_index"":2,""viewing_time"":12530.91499954462}]","","","","","","","","","","","","","","","","","",""
"null","","fixation","html-keyboard-response","2","39752","0.0-2.0-0.0","5f35cc94e0a84d611c36bf80","condC","","<div class=""vertical-center"" style=""font-size:60px;"">+</div>","null","","","","","","","","","","","","","","","",""
"5443.645000457764","","tonetest","audio-button-response","3","45199","0.0-2.0-1.0","5f35cc94e0a84d611c36bf80","condC","","../../src/audio/toneTest_1.wav","","2","2","true","","","","","","","","","","","","",""
"null","","fixation","html-keyboard-response","4","45703","0.0-2.0-0.1","5f35cc94e0a84d611c36bf80","condC","","<div class=""vertical-center"" style=""font-size:60px;"">+</div>","null","","","","","","","","","","","","","","","",""
"11648.48499931395","","tonetest","audio-button-response","5","57353","0.0-2.0-1.1","5f35cc94e0a84d611c36bf80","condC","","../../src/audio/toneTest_5.wav","","0","0","true","","","","","","","","","","","","",""
"null","","fixation","html-keyboard-response","6","57862","0.0-2.0-0.2","5f35cc94e0a84d611c36bf80","condC","","<div class=""vertical-center"" style=""font-size:60px;"">+</div>","null","","","","","","","","","","","","","","","",""
"4652.334999293089","","tonetest","audio-button-response","7","62517","0.0-2.0-1.2","5f35cc94e0a84d611c36bf80","condC","","../../src/audio/toneTest_2.wav","","1","1","true","","","","","","","","","","","","",""
"null","","fixation","html-keyboard-response","8","63022","0.0-2.0-0.3","5f35cc94e0a84d611c36bf80","condC","","<div class=""vertical-center"" style=""font-size:60px;"">+</div>","null","","","","","","","","","","","","","","","",""
"4630.054999142885","","tonetest","audio-button-response","9","67656","0.0-2.0-1.3","5f35cc94e0a84d611c36bf80","condC","","../../src/audio/toneTest_2.wav","","1","1","true","","","","","","","","","","","","",""
"null","","fixation","html-keyboard-response","10","68163","0.0-2.0-0.4","5f35cc94e0a84d611c36bf80","condC","","<div class=""vertical-center"" style=""font-size:60px;"">+</div>","null","","","","","","","","","","","","","","","",""
"4351.35000012815","","tonetest","audio-button-response","11","72517","0.0-2.0-1.4","5f35cc94e0a84d611c36bf80","condC","","../../src/audio/toneTest_6.wav","","0","0","true","","","","","","","","","","","","",""
"null","","fixation","html-keyboard-response","12","73022","0.0-2.0-0.5","5f35cc94e0a84d611c36bf80","condC","","<div class=""vertical-center"" style=""font-size:60px;"">+</div>","null","","","","","","","","","","","","","","","",""
"6486.495001241565","","tonetest","audio-button-response","13","79511","0.0-2.0-1.5","5f35cc94e0a84d611c36bf80","condC","","../../src/audio/toneTest_3.wav","","2","2","true","","","","","","","","","","","","",""
"9785.214999690652","","instructions","html-keyboard-response","14","89299","0.0-3.0","5f35cc94e0a84d611c36bf80","condC","","<div class=""vertical-center""><p><b>Your score was 6/6.</b></p><p>If you scored below 6, please ensure that you are wearing properly functioning headphones and in a quiet location free of distractions.</p><p><i>To continue to the main experiment, press SPACE.</i></p></div>","32","","","","","","","","","","","","","","","",""
"","","","fullscreen","15","92292","0.0-4.0","5f35cc94e0a84d611c36bf80","condC","","","","","","","true","","","","","","","","","","","",""
"10828.385001048446","","instructions","instructions","16","103118","0.0-5.0","5f35cc94e0a84d611c36bf80","condC","[{""page_index"":0,""viewing_time"":10828.020000830293}]","","","","","","","","","","","","","","","","","",""
"null","","fixation","html-keyboard-response","17","103629","0.0-6.0-0.0","5f35cc94e0a84d611c36bf80","condC","","<div class=""vertical-center"" style='width:60%;'><p style='font-weight:bold;'>Does the middle word sound more like the first word (A) or the last word (B)?</p> <br> <div class=""container""> <div id=""a-box""> <p class=""title-text"">A</h3></p> </div> <div id=""x-box""> <p class=""title-text"">X<p> </div> <div id=""b-box""> <p class=""title-text"">B</p></div> <br> <div style='float: left;padding-left:30px;'><p>Press '1' for A</p></div><div style='float: right;padding-right:30px;'><p>Press '0' for B</p> </div> </div></div>","null","","","","","","","","","","","","","","","",""
"7869","","practice","audio-keyboard-response","18","111499","0.0-6.0-1.0","5f35cc94e0a84d611c36bf80","condC","","resources/audio/practiceStim/S1_AI_21_bxa_Step-6.wav","49","","","","","","","","","","","","","","","",""
"null","","fixation","html-keyboard-response","19","112520","0.0-6.0-0.1","5f35cc94e0a84d611c36bf80","condC","","<div class=""vertical-center"" style='width:60%;'><p style='font-weight:bold;'>Does the middle word sound more like the first word (A) or the last word (B)?</p> <br> <div class=""container""> <div id=""a-box""> <p class=""title-text"">A</h3></p> </div> <div id=""x-box""> <p class=""title-text"">X<p> </div> <div id=""b-box""> <p class=""title-text"">B</p></div> <br> <div style='float: left;padding-left:30px;'><p>Press '1' for A</p></div><div style='float: right;padding-right:30px;'><p>Press '0' for B</p> </div> </div></div>","null","","","","","","","","","","","","","","","",""
"3240","","practice","audio-keyboard-response","20","115756","0.0-6.0-1.1","5f35cc94e0a84d611c36bf80","condC","","resources/audio/practiceStim/S1_AI_21_axb_Step-6.wav","49","","","","","","","","","","","","","","","",""
"null","","fixation","html-keyboard-response","21","116770","0.0-6.0-0.2","5f35cc94e0a84d611c36bf80","condC","","<div class=""vertical-center"" style='width:60%;'><p style='font-weight:bold;'>Does the middle word sound more like the first word (A) or the last word (B)?</p> <br> <div class=""container""> <div id=""a-box""> <p class=""title-text"">A</h3></p> </div> <div id=""x-box""> <p class=""title-text"">X<p> </div> <div id=""b-box""> <p class=""title-text"">B</p></div> <br> <div style='float: left;padding-left:30px;'><p>Press '1' for A</p></div><div style='float: right;padding-right:30px;'><p>Press '0' for B</p> </div> </div></div>","null","","","","","","","","","","","","","","","",""
"3091","","practice","audio-keyboard-response","22","119862","0.0-6.0-1.2","5f35cc94e0a84d611c36bf80","condC","","resources/audio/practiceStim/S1_AU_14_axb_Step-6.wav","49","","","","","","","","","","","","","","","",""
"null","","fixation","html-keyboard-response","23","120879","0.0-6.0-0.3","5f35cc94e0a84d611c36bf80","condC","","<div class=""vertical-center"" style='width:60%;'><p style='font-weight:bold;'>Does the middle word sound more like the first word (A) or the last word (B)?</p> <br> <div class=""container""> <div id=""a-box""> <p class=""title-text"">A</h3></p> </div> <div id=""x-box""> <p class=""title-text"">X<p> </div> <div id=""b-box""> <p class=""title-text"">B</p></div> <br> <div style='float: left;padding-left:30px;'><p>Press '1' for A</p></div><div style='float: right;padding-right:30px;'><p>Press '0' for B</p> </div> </div></div>","null","","","","","","","","","","","","","","","",""
"2608","","practice","audio-keyboard-response","24","123491","0.0-6.0-1.3","5f35cc94e0a84d611c36bf80","condC","","resources/audio/practiceStim/S1_AU_14_bxa_Step-6.wav","48","","","","","","","","","","","","","","","",""
"2164.0649996697903","","instructions","instructions","25","126163","0.0-7.0","5f35cc94e0a84d611c36bf80","condC","[{""page_index"":0,""viewing_time"":2162.654999643564}]","","","","","","","","","","","","","","","","","",""
"2584.289999678731","","","html-keyboard-response","26","128749","0.0-8.0","5f35cc94e0a84d611c36bf80","condC","","<div class=""vertical-center""><img src=""resources/images/CN_face_a.png"" style=""width:450px;height:300px;""><p>This is the speaker you're about to hear. She is from Vancouver, Canada.</p><p> <br> <i>Press SPACE to continue.</i></p></div>","32","","","","","","","","","","","","","","","",""
"null","","fixation","html-keyboard-response","27","129259","0.0-9.0-0.0","5f35cc94e0a84d611c36bf80","condC","","<div class=""vertical-center"" style='width:60%;'><img src=""resources/images/CN_flag_100x52.jpg"" style=""width:100px;height:52px;opacity:0.35;""> <br> <br> <p style='font-weight:bold;'>Does the middle word sound more like the first word (A) or the last word (B)?</p> <br> <div class=""container""> <div id=""a-box""> <p class=""title-text"">A</h3></p> </div> <div id=""x-box""> <p class=""title-text"">X<p> </div> <div id=""b-box""> <p class=""title-text"">B</p></div> <br> <div style='float: left;padding-left:30px;'><p>Press '1' for A</p></div><div style='float: right;padding-right:30px;'><p>Press '0' for B</p> </div> </div></div>","null","","","","","","","","","","","","","","","",""
"3920","","test","audio-keyboard-response","28","133174","0.0-9.0-1.0","5f35cc94e0a84d611c36bf80","condC","","resources/audio/wordStim/S3_AU_20_axb_Step-2.wav","49","","","","","","resources/audio/wordStim/S3_AU_20_axb_Step-2.wav","S3","20","axb","2","MI","CN","S3-CN","0","1","false"
"null","","fixation","html-keyboard-response","29","134184","0.0-9.0-0.1","5f35cc94e0a84d611c36bf80","condC","","<div class=""vertical-center"" style='width:60%;'><img src=""resources/images/CN_flag_100x52.jpg"" style=""width:100px;height:52px;opacity:0.35;""> <br> <br> <p style='font-weight:bold;'>Does the middle word sound more like the first word (A) or the last word (B)?</p> <br> <div class=""container""> <div id=""a-box""> <p class=""title-text"">A</h3></p> </div> <div id=""x-box""> <p class=""title-text"">X<p> </div> <div id=""b-box""> <p class=""title-text"">B</p></div> <br> <div style='float: left;padding-left:30px;'><p>Press '1' for A</p></div><div style='float: right;padding-right:30px;'><p>Press '0' for B</p> </div> </div></div>","null","","","","","","","","","","","","","","","",""
"3931","","test","audio-keyboard-response","30","138115","0.0-9.0-1.1","5f35cc94e0a84d611c36bf80","condC","","resources/audio/wordStim/S3_AU_18_axb_Step-2.wav","49","","","","","","resources/audio/wordStim/S3_AU_18_axb_Step-2.wav","S3","18","axb","2","MI","CN","S3-CN","0","1","false"
"null","","fixation","html-keyboard-response","31","139129","0.0-9.0-0.2","5f35cc94e0a84d611c36bf80","condC","","<div class=""vertical-center"" style='width:60%;'><img src=""resources/images/CN_flag_100x52.jpg"" style=""width:100px;height:52px;opacity:0.35;""> <br> <br> <p style='font-weight:bold;'>Does the middle word sound more like the first word (A) or the last word (B)?</p> <br> <div class=""container""> <div id=""a-box""> <p class=""title-text"">A</h3></p> </div> <div id=""x-box""> <p class=""title-text"">X<p> </div> <div id=""b-box""> <p class=""title-text"">B</p></div> <br> <div style='float: left;padding-left:30px;'><p>Press '1' for A</p></div><div style='float: right;padding-right:30px;'><p>Press '0' for B</p> </div> </div></div>","null","","","","","","","","","","","","","","","",""
"3360","","test","audio-keyboard-response","32","142482","0.0-9.0-1.2","5f35cc94e0a84d611c36bf80","condC","","resources/audio/wordStim/S3_AI_30_bxa_Step-2.wav","49","","","","","","resources/audio/wordStim/S3_AI_30_bxa_Step-2.wav","S3","30","bxa","2","MI","CN","S3-CN","1","1","true"
"null","","fixation","html-keyboard-response","33","143496","0.0-9.0-0.3","5f35cc94e0a84d611c36bf80","condC","","<div class=""vertical-center"" style='width:60%;'><img src=""resources/images/CN_flag_100x52.jpg"" style=""width:100px;height:52px;opacity:0.35;""> <br> <br> <p style='font-weight:bold;'>Does the middle word sound more like the first word (A) or the last word (B)?</p> <br> <div class=""container""> <div id=""a-box""> <p class=""title-text"">A</h3></p> </div> <div id=""x-box""> <p class=""title-text"">X<p> </div> <div id=""b-box""> <p class=""title-text"">B</p></div> <br> <div style='float: left;padding-left:30px;'><p>Press '1' for A</p></div><div style='float: right;padding-right:30px;'><p>Press '0' for B</p> </div> </div></div>","null","","","","","","","","","","","","","","","",""
"2960","","test","audio-keyboard-response","34","146459","0.0-9.0-1.3","5f35cc94e0a84d611c36bf80","condC","","resources/audio/wordStim/S3_AI_21_axb_Step-3.wav","49","","","","","","resources/audio/wordStim/S3_AI_21_axb_Step-3.wav","S3","21","axb","3","MI","CN","S3-CN","0","1","false"
"null","","fixation","html-keyboard-response","35","147468","0.0-9.0-0.4","5f35cc94e0a84d611c36bf80","condC","","<div class=""vertical-center"" style='width:60%;'><img src=""resources/images/CN_flag_100x52.jpg"" style=""width:100px;height:52px;opacity:0.35;""> <br> <br> <p style='font-weight:bold;'>Does the middle word sound more like the first word (A) or the last word (B)?</p> <br> <div class=""container""> <div id=""a-box""> <p class=""title-text"">A</h3></p> </div> <div id=""x-box""> <p class=""title-text"">X<p> </div> <div id=""b-box""> <p class=""title-text"">B</p></div> <br> <div style='float: left;padding-left:30px;'><p>Press '1' for A</p></div><div style='float: right;padding-right:30px;'><p>Press '0' for B</p> </div> </div></div>","null","","","","","","","","","","","","","","","",""
"3779","","test","audio-keyboard-response","36","151242","0.0-9.0-1.4","5f35cc94e0a84d611c36bf80","condC","","resources/audio/wordStim/S3_AU_18_bxa_Step-5.wav","49","","","","","","resources/audio/wordStim/S3_AU_18_bxa_Step-5.wav","S3","18","bxa","5","MI","CN","S3-CN","1","1","true"
"null","","fixation","html-keyboard-response","37","152259","0.0-9.0-0.5","5f35cc94e0a84d611c36bf80","condC","","<div class=""vertical-center"" style='width:60%;'><img src=""resources/images/CN_flag_100x52.jpg"" style=""width:100px;height:52px;opacity:0.35;""> <br> <br> <p style='font-weight:bold;'>Does the middle word sound more like the first word (A) or the last word (B)?</p> <br> <div class=""container""> <div id=""a-box""> <p class=""title-text"">A</h3></p> </div> <div id=""x-box""> <p class=""title-text"">X<p> </div> <div id=""b-box""> <p class=""title-text"">B</p></div> <br> <div style='float: left;padding-left:30px;'><p>Press '1' for A</p></div><div style='float: right;padding-right:30px;'><p>Press '0' for B</p> </div> </div></div>","null","","","","","","","","","","","","","","","",""
"4261","","test","audio-keyboard-response","38","156511","0.0-9.0-1.5","5f35cc94e0a84d611c36bf80","condC","","resources/audio/wordStim/S3_AI_22_axb_Step-5.wav","49","","","","","","resources/audio/wordStim/S3_AI_22_axb_Step-5.wav","S3","22","axb","5","MI","CN","S3-CN","0","1","false"
"null","","fixation","html-keyboard-response","39","157529","0.0-9.0-0.6","5f35cc94e0a84d611c36bf80","condC","","<div class=""vertical-center"" style='width:60%;'><img src=""resources/images/CN_flag_100x52.jpg"" style=""width:100px;height:52px;opacity:0.35;""> <br> <br> <p style='font-weight:bold;'>Does the middle word sound more like the first word (A) or the last word (B)?</p> <br> <div class=""container""> <div id=""a-box""> <p class=""title-text"">A</h3></p> </div> <div id=""x-box""> <p class=""title-text"">X<p> </div> <div id=""b-box""> <p class=""title-text"">B</p></div> <br> <div style='float: left;padding-left:30px;'><p>Press '1' for A</p></div><div style='float: right;padding-right:30px;'><p>Press '0' for B</p> </div> </div></div>","null","","","","","","","","","","","","","","","",""
"3651","","test","audio-keyboard-response","40","161174","0.0-9.0-1.6","5f35cc94e0a84d611c36bf80","condC","","resources/audio/wordStim/S3_AU_19_bxa_Step-4.wav","49","","","","","","resources/audio/wordStim/S3_AU_19_bxa_Step-4.wav","S3","19","bxa","4","MI","CN","S3-CN","1","1","true"
"null","","fixation","html-keyboard-response","41","162196","0.0-9.0-0.7","5f35cc94e0a84d611c36bf80","condC","","<div class=""vertical-center"" style='width:60%;'><img src=""resources/images/CN_flag_100x52.jpg"" style=""width:100px;height:52px;opacity:0.35;""> <br> <br> <p style='font-weight:bold;'>Does the middle word sound more like the first word (A) or the last word (B)?</p> <br> <div class=""container""> <div id=""a-box""> <p class=""title-text"">A</h3></p> </div> <div id=""x-box""> <p class=""title-text"">X<p> </div> <div id=""b-box""> <p class=""title-text"">B</p></div> <br> <div style='float: left;padding-left:30px;'><p>Press '1' for A</p></div><div style='float: right;padding-right:30px;'><p>Press '0' for B</p> </div> </div></div>","null","","","","","","","","","","","","","","","",""
"3920","","test","audio-keyboard-response","42","166116","0.0-9.0-1.7","5f35cc94e0a84d611c36bf80","condC","","resources/audio/wordStim/S3_AU_18_bxa_Step-8.wav","49","","","","","","resources/audio/wordStim/S3_AU_18_bxa_Step-8.wav","S3","18","bxa","8","MI","CN","S3-CN","1","1","true"
"null","","fixation","html-keyboard-response","43","167135","0.0-9.0-0.8","5f35cc94e0a84d611c36bf80","condC","","<div class=""vertical-center"" style='width:60%;'><img src=""resources/images/CN_flag_100x52.jpg"" style=""width:100px;height:52px;opacity:0.35;""> <br> <br> <p style='font-weight:bold;'>Does the middle word sound more like the first word (A) or the last word (B)?</p> <br> <div class=""container""> <div id=""a-box""> <p class=""title-text"">A</h3></p> </div> <div id=""x-box""> <p class=""title-text"">X<p> </div> <div id=""b-box""> <p class=""title-text"">B</p></div> <br> <div style='float: left;padding-left:30px;'><p>Press '1' for A</p></div><div style='float: right;padding-right:30px;'><p>Press '0' for B</p> </div> </div></div>","null","","","","","","","","","","","","","","","",""
"4651","","test","audio-keyboard-response","44","171786","0.0-9.0-1.8","5f35cc94e0a84d611c36bf80","condC","","resources/audio/wordStim/S3_AU_18_axb_Step-7.wav","48","","","","","","resources/audio/wordStim/S3_AU_18_axb_Step-7.wav","S3","18","axb","7","MI","CN","S3-CN","0","0","true"
"null","","fixation","html-keyboard-response","45","172806","0.0-9.0-0.9","5f35cc94e0a84d611c36bf80","condC","","<div class=""vertical-center"" style='width:60%;'><img src=""resources/images/CN_flag_100x52.jpg"" style=""width:100px;height:52px;opacity:0.35;""> <br> <br> <p style='font-weight:bold;'>Does the middle word sound more like the first word (A) or the last word (B)?</p> <br> <div class=""container""> <div id=""a-box""> <p class=""title-text"">A</h3></p> </div> <div id=""x-box""> <p class=""title-text"">X<p> </div> <div id=""b-box""> <p class=""title-text"">B</p></div> <br> <div style='float: left;padding-left:30px;'><p>Press '1' for A</p></div><div style='float: right;padding-right:30px;'><p>Press '0' for B</p> </div> </div></div>","null","","","","","","","","","","","","","","","",""
"3219","","test","audio-keyboard-response","46","176028","0.0-9.0-1.9","5f35cc94e0a84d611c36bf80","condC","","resources/audio/wordStim/S3_AI_21_bxa_Step-7.wav","48","","","","","","resources/audio/wordStim/S3_AI_21_bxa_Step-7.wav","S3","21","bxa","7","MI","CN","S3-CN","1","0","false"
"null","","fixation","html-keyboard-response","47","177046","0.0-9.0-0.10","5f35cc94e0a84d611c36bf80","condC","","<div class=""vertical-center"" style='width:60%;'><img src=""resources/images/CN_flag_100x52.jpg"" style=""width:100px;height:52px;opacity:0.35;""> <br> <br> <p style='font-weight:bold;'>Does the middle word sound more like the first word (A) or the last word (B)?</p> <br> <div class=""container""> <div id=""a-box""> <p class=""title-text"">A</h3></p> </div> <div id=""x-box""> <p class=""title-text"">X<p> </div> <div id=""b-box""> <p class=""title-text"">B</p></div> <br> <div style='float: left;padding-left:30px;'><p>Press '1' for A</p></div><div style='float: right;padding-right:30px;'><p>Press '0' for B</p> </div> </div></div>","null","","","","","","","","","","","","","","","",""
"3448","","test","audio-keyboard-response","48","180497","0.0-9.0-1.10","5f35cc94e0a84d611c36bf80","condC","","resources/audio/wordStim/S3_AI_22_bxa_Step-6.wav","49","","","","","","resources/audio/wordStim/S3_AI_22_bxa_Step-6.wav","S3","22","bxa","6","MI","CN","S3-CN","1","1","true"
"null","","fixation","html-keyboard-response","49","181516","0.0-9.0-0.11","5f35cc94e0a84d611c36bf80","condC","","<div class=""vertical-center"" style='width:60%;'><img src=""resources/images/CN_flag_100x52.jpg"" style=""width:100px;height:52px;opacity:0.35;""> <br> <br> <p style='font-weight:bold;'>Does the middle word sound more like the first word (A) or the last word (B)?</p> <br> <div class=""container""> <div id=""a-box""> <p class=""title-text"">A</h3></p> </div> <div id=""x-box""> <p class=""title-text"">X<p> </div> <div id=""b-box""> <p class=""title-text"">B</p></div> <br> <div style='float: left;padding-left:30px;'><p>Press '1' for A</p></div><div style='float: right;padding-right:30px;'><p>Press '0' for B</p> </div> </div></div>","null","","","","","","","","","","","","","","","",""
"3691","","test","audio-keyboard-response","50","185201","0.0-9.0-1.11","5f35cc94e0a84d611c36bf80","condC","","resources/audio/wordStim/S3_AU_18_bxa_Step-3.wav","48","","","","","","resources/audio/wordStim/S3_AU_18_bxa_Step-3.wav","S3","18","bxa","3","MI","CN","S3-CN","1","0","false"
"null","","fixation","html-keyboard-response","51","186216","0.0-9.0-0.12","5f35cc94e0a84d611c36bf80","condC","","<div class=""vertical-center"" style='width:60%;'><img src=""resources/images/CN_flag_100x52.jpg"" style=""width:100px;height:52px;opacity:0.35;""> <br> <br> <p style='font-weight:bold;'>Does the middle word sound more like the first word (A) or the last word (B)?</p> <br> <div class=""container""> <div id=""a-box""> <p class=""title-text"">A</h3></p> </div> <div id=""x-box""> <p class=""title-text"">X<p> </div> <div id=""b-box""> <p class=""title-text"">B</p></div> <br> <div style='float: left;padding-left:30px;'><p>Press '1' for A</p></div><div style='float: right;padding-right:30px;'><p>Press '0' for B</p> </div> </div></div>","null","","","","","","","","","","","","","","","",""
"3000","","test","audio-keyboard-response","52","189212","0.0-9.0-1.12","5f35cc94e0a84d611c36bf80","condC","","resources/audio/wordStim/S3_AI_21_bxa_Step-8.wav","49","","","","","","resources/audio/wordStim/S3_AI_21_bxa_Step-8.wav","S3","21","bxa","8","MI","CN","S3-CN","1","1","true"
"null","","fixation","html-keyboard-response","53","190235","0.0-9.0-0.13","5f35cc94e0a84d611c36bf80","condC","","<div class=""vertical-center"" style='width:60%;'><img src=""resources/images/CN_flag_100x52.jpg"" style=""width:100px;height:52px;opacity:0.35;""> <br> <br> <p style='font-weight:bold;'>Does the middle word sound more like the first word (A) or the last word (B)?</p> <br> <div class=""container""> <div id=""a-box""> <p class=""title-text"">A</h3></p> </div> <div id=""x-box""> <p class=""title-text"">X<p> </div> <div id=""b-box""> <p class=""title-text"">B</p></div> <br> <div style='float: left;padding-left:30px;'><p>Press '1' for A</p></div><div style='float: right;padding-right:30px;'><p>Press '0' for B</p> </div> </div></div>","null","","","","","","","","","","","","","","","",""
"3560","","test","audio-keyboard-response","54","193798","0.0-9.0-1.13","5f35cc94e0a84d611c36bf80","condC","","resources/audio/wordStim/S3_AU_20_axb_Step-8.wav","49","","","","","","resources/audio/wordStim/S3_AU_20_axb_Step-8.wav","S3","20","axb","8","MI","CN","S3-CN","0","1","false"
"null","","fixation","html-keyboard-response","55","194816","0.0-9.0-0.14","5f35cc94e0a84d611c36bf80","condC","","<div class=""vertical-center"" style='width:60%;'><img src=""resources/images/CN_flag_100x52.jpg"" style=""width:100px;height:52px;opacity:0.35;""> <br> <br> <p style='font-weight:bold;'>Does the middle word sound more like the first word (A) or the last word (B)?</p> <br> <div class=""container""> <div id=""a-box""> <p class=""title-text"">A</h3></p> </div> <div id=""x-box""> <p class=""title-text"">X<p> </div> <div id=""b-box""> <p class=""title-text"">B</p></div> <br> <div style='float: left;padding-left:30px;'><p>Press '1' for A</p></div><div style='float: right;padding-right:30px;'><p>Press '0' for B</p> </div> </div></div>","null","","","","","","","","","","","","","","","",""
"3432","","test","audio-keyboard-response","56","198248","0.0-9.0-1.14","5f35cc94e0a84d611c36bf80","condC","","resources/audio/wordStim/S3_AI_30_axb_Step-3.wav","49","","","","","","resources/audio/wordStim/S3_AI_30_axb_Step-3.wav","S3","30","axb","3","MI","CN","S3-CN","0","1","false"
"null","","fixation","html-keyboard-response","57","199267","0.0-9.0-0.15","5f35cc94e0a84d611c36bf80","condC","","<div class=""vertical-center"" style='width:60%;'><img src=""resources/images/CN_flag_100x52.jpg"" style=""width:100px;height:52px;opacity:0.35;""> <br> <br> <p style='font-weight:bold;'>Does the middle word sound more like the first word (A) or the last word (B)?</p> <br> <div class=""container""> <div id=""a-box""> <p class=""title-text"">A</h3></p> </div> <div id=""x-box""> <p class=""title-text"">X<p> </div> <div id=""b-box""> <p class=""title-text"">B</p></div> <br> <div style='float: left;padding-left:30px;'><p>Press '1' for A</p></div><div style='float: right;padding-right:30px;'><p>Press '0' for B</p> </div> </div></div>","null","","","","","","","","","","","","","","","",""
"3309","","test","audio-keyboard-response","58","202588","0.0-9.0-1.15","5f35cc94e0a84d611c36bf80","condC","","resources/audio/wordStim/S3_AI_22_axb_Step-8.wav","48","","","","","","resources/audio/wordStim/S3_AI_22_axb_Step-8.wav","S3","22","axb","8","MI","CN","S3-CN","0","0","true"
"null","","fixation","html-keyboard-response","59","203605","0.0-9.0-0.16","5f35cc94e0a84d611c36bf80","condC","","<div class=""vertical-center"" style='width:60%;'><img src=""resources/images/CN_flag_100x52.jpg"" style=""width:100px;height:52px;opacity:0.35;""> <br> <br> <p style='font-weight:bold;'>Does the middle word sound more like the first word (A) or the last word (B)?</p> <br> <div class=""container""> <div id=""a-box""> <p class=""title-text"">A</h3></p> </div> <div id=""x-box""> <p class=""title-text"">X<p> </div> <div id=""b-box""> <p class=""title-text"">B</p></div> <br> <div style='float: left;padding-left:30px;'><p>Press '1' for A</p></div><div style='float: right;padding-right:30px;'><p>Press '0' for B</p> </div> </div></div>","null","","","","","","","","","","","","","","","",""
"3339","","test","audio-keyboard-response","60","206942","0.0-9.0-1.16","5f35cc94e0a84d611c36bf80","condC","","resources/audio/wordStim/S3_AI_30_axb_Step-8.wav","49","","","","","","resources/audio/wordStim/S3_AI_30_axb_Step-8.wav","S3","30","axb","8","MI","CN","S3-CN","0","1","false"
"null","","fixation","html-keyboard-response","61","207955","0.0-9.0-0.17","5f35cc94e0a84d611c36bf80","condC","","<div class=""vertical-center"" style='width:60%;'><img src=""resources/images/CN_flag_100x52.jpg"" style=""width:100px;height:52px;opacity:0.35;""> <br> <br> <p style='font-weight:bold;'>Does the middle word sound more like the first word (A) or the last word (B)?</p> <br> <div class=""container""> <div id=""a-box""> <p class=""title-text"">A</h3></p> </div> <div id=""x-box""> <p class=""title-text"">X<p> </div> <div id=""b-box""> <p class=""title-text"">B</p></div> <br> <div style='float: left;padding-left:30px;'><p>Press '1' for A</p></div><div style='float: right;padding-right:30px;'><p>Press '0' for B</p> </div> </div></div>","null","","","","","","","","","","","","","","","",""
"3091","","test","audio-keyboard-response","62","211048","0.0-9.0-1.17","5f35cc94e0a84d611c36bf80","condC","","resources/audio/wordStim/S3_AU_19_bxa_Step-6.wav","49","","","","","","resources/audio/wordStim/S3_AU_19_bxa_Step-6.wav","S3","19","bxa","6","MI","CN","S3-CN","1","1","true"
"null","","fixation","html-keyboard-response","63","212066","0.0-9.0-0.18","5f35cc94e0a84d611c36bf80","condC","","<div class=""vertical-center"" style='width:60%;'><img src=""resources/images/CN_flag_100x52.jpg"" style=""width:100px;height:52px;opacity:0.35;""> <br> <br> <p style='font-weight:bold;'>Does the middle word sound more like the first word (A) or the last word (B)?</p> <br> <div class=""container""> <div id=""a-box""> <p class=""title-text"">A</h3></p> </div> <div id=""x-box""> <p class=""title-text"">X<p> </div> <div id=""b-box""> <p class=""title-text"">B</p></div> <br> <div style='float: left;padding-left:30px;'><p>Press '1' for A</p></div><div style='float: right;padding-right:30px;'><p>Press '0' for B</p> </div> </div></div>","null","","","","","","","","","","","","","","","",""
"3760","","test","audio-keyboard-response","64","215819","0.0-9.0-1.18","5f35cc94e0a84d611c36bf80","condC","","resources/audio/wordStim/S3_AI_22_bxa_Step-7.wav","49","","","","","","resources/audio/wordStim/S3_AI_22_bxa_Step-7.wav","S3","22","bxa","7","MI","CN","S3-CN","1","1","true"
"null","","fixation","html-keyboard-response","65","216836","0.0-9.0-0.19","5f35cc94e0a84d611c36bf80","condC","","<div class=""vertical-center"" style='width:60%;'><img src=""resources/images/CN_flag_100x52.jpg"" style=""width:100px;height:52px;opacity:0.35;""> <br> <br> <p style='font-weight:bold;'>Does the middle word sound more like the first word (A) or the last word (B)?</p> <br> <div class=""container""> <div id=""a-box""> <p class=""title-text"">A</h3></p> </div> <div id=""x-box""> <p class=""title-text"">X<p> </div> <div id=""b-box""> <p class=""title-text"">B</p></div> <br> <div style='float: left;padding-left:30px;'><p>Press '1' for A</p></div><div style='float: right;padding-right:30px;'><p>Press '0' for B</p> </div> </div></div>","null","","","","","","","","","","","","","","","",""
"3000","","test","audio-keyboard-response","66","219847","0.0-9.0-1.19","5f35cc94e0a84d611c36bf80","condC","","resources/audio/wordStim/S3_AU_19_axb_Step-8.wav","48","","","","","","resources/audio/wordStim/S3_AU_19_axb_Step-8.wav","S3","19","axb","8","MI","CN","S3-CN","0","0","true"
"null","","fixation","html-keyboard-response","67","220865","0.0-9.0-0.20","5f35cc94e0a84d611c36bf80","condC","","<div class=""vertical-center"" style='width:60%;'><img src=""resources/images/CN_flag_100x52.jpg"" style=""width:100px;height:52px;opacity:0.35;""> <br> <br> <p style='font-weight:bold;'>Does the middle word sound more like the first word (A) or the last word (B)?</p> <br> <div class=""container""> <div id=""a-box""> <p class=""title-text"">A</h3></p> </div> <div id=""x-box""> <p class=""title-text"">X<p> </div> <div id=""b-box""> <p class=""title-text"">B</p></div> <br> <div style='float: left;padding-left:30px;'><p>Press '1' for A</p></div><div style='float: right;padding-right:30px;'><p>Press '0' for B</p> </div> </div></div>","null","","","","","","","","","","","","","","","",""
"3541","","test","audio-keyboard-response","68","224398","0.0-9.0-1.20","5f35cc94e0a84d611c36bf80","condC","","resources/audio/wordStim/S3_AU_18_bxa_Step-2.wav","48","","","","","","resources/audio/wordStim/S3_AU_18_bxa_Step-2.wav","S3","18","bxa","2","MI","CN","S3-CN","1","0","false"
"1120.6999998539686","","break","html-keyboard-response","69","226028","0.0-9.0-2.20-0.20","5f35cc94e0a84d611c36bf80","condC","","<div class=""vertical-center""><p>Feel free to take a break!</p><i>When you're ready to continue, press SPACE to begin the next trial.</i></p></div>","32","","","","","","","","","","","","","","","",""
"null","","fixation","html-keyboard-response","70","226535","0.0-9.0-0.21","5f35cc94e0a84d611c36bf80","condC","","<div class=""vertical-center"" style='width:60%;'><img src=""resources/images/CN_flag_100x52.jpg"" style=""width:100px;height:52px;opacity:0.35;""> <br> <br> <p style='font-weight:bold;'>Does the middle word sound more like the first word (A) or the last word (B)?</p> <br> <div class=""container""> <div id=""a-box""> <p class=""title-text"">A</h3></p> </div> <div id=""x-box""> <p class=""title-text"">X<p> </div> <div id=""b-box""> <p class=""title-text"">B</p></div> <br> <div style='float: left;padding-left:30px;'><p>Press '1' for A</p></div><div style='float: right;padding-right:30px;'><p>Press '0' for B</p> </div> </div></div>","null","","","","","","","","","","","","","","","",""
"2752","","test","audio-keyboard-response","71","229281","0.0-9.0-1.21","5f35cc94e0a84d611c36bf80","condC","","resources/audio/wordStim/S3_AI_21_bxa_Step-4.wav","49","","","","","","resources/audio/wordStim/S3_AI_21_bxa_Step-4.wav","S3","21","bxa","4","MI","CN","S3-CN","1","1","true"
"null","","fixation","html-keyboard-response","72","230295","0.0-9.0-0.22","5f35cc94e0a84d611c36bf80","condC","","<div class=""vertical-center"" style='width:60%;'><img src=""resources/images/CN_flag_100x52.jpg"" style=""width:100px;height:52px;opacity:0.35;""> <br> <br> <p style='font-weight:bold;'>Does the middle word sound more like the first word (A) or the last word (B)?</p> <br> <div class=""container""> <div id=""a-box""> <p class=""title-text"">A</h3></p> </div> <div id=""x-box""> <p class=""title-text"">X<p> </div> <div id=""b-box""> <p class=""title-text"">B</p></div> <br> <div style='float: left;padding-left:30px;'><p>Press '1' for A</p></div><div style='float: right;padding-right:30px;'><p>Press '0' for B</p> </div> </div></div>","null","","","","","","","","","","","","","","","",""
"4021","","test","audio-keyboard-response","73","234310","0.0-9.0-1.22","5f35cc94e0a84d611c36bf80","condC","","resources/audio/wordStim/S3_AU_18_bxa_Step-4.wav","49","","","","","","resources/audio/wordStim/S3_AU_18_bxa_Step-4.wav","S3","18","bxa","4","MI","CN","S3-CN","1","1","true"
"null","","fixation","html-keyboard-response","74","235325","0.0-9.0-0.23","5f35cc94e0a84d611c36bf80","condC","","<div class=""vertical-center"" style='width:60%;'><img src=""resources/images/CN_flag_100x52.jpg"" style=""width:100px;height:52px;opacity:0.35;""> <br> <br> <p style='font-weight:bold;'>Does the middle word sound more like the first word (A) or the last word (B)?</p> <br> <div class=""container""> <div id=""a-box""> <p class=""title-text"">A</h3></p> </div> <div id=""x-box""> <p class=""title-text"">X<p> </div> <div id=""b-box""> <p class=""title-text"">B</p></div> <br> <div style='float: left;padding-left:30px;'><p>Press '1' for A</p></div><div style='float: right;padding-right:30px;'><p>Press '0' for B</p> </div> </div></div>","null","","","","","","","","","","","","","","","",""
"3819","","test","audio-keyboard-response","75","239149","0.0-9.0-1.23","5f35cc94e0a84d611c36bf80","condC","","resources/audio/wordStim/S3_AU_18_axb_Step-8.wav","48","","","","","","resources/audio/wordStim/S3_AU_18_axb_Step-8.wav","S3","18","axb","8","MI","CN","S3-CN","0","0","true"
"null","","fixation","html-keyboard-response","76","240165","0.0-9.0-0.24","5f35cc94e0a84d611c36bf80","condC","","<div class=""vertical-center"" style='width:60%;'><img src=""resources/images/CN_flag_100x52.jpg"" style=""width:100px;height:52px;opacity:0.35;""> <br> <br> <p style='font-weight:bold;'>Does the middle word sound more like the first word (A) or the last word (B)?</p> <br> <div class=""container""> <div id=""a-box""> <p class=""title-text"">A</h3></p> </div> <div id=""x-box""> <p class=""title-text"">X<p> </div> <div id=""b-box""> <p class=""title-text"">B</p></div> <br> <div style='float: left;padding-left:30px;'><p>Press '1' for A</p></div><div style='float: right;padding-right:30px;'><p>Press '0' for B</p> </div> </div></div>","null","","","","","","","","","","","","","","","",""
"3339","","test","audio-keyboard-response","77","243502","0.0-9.0-1.24","5f35cc94e0a84d611c36bf80","condC","","resources/audio/wordStim/S3_AI_30_bxa_Step-4.wav","49","","","","","","resources/audio/wordStim/S3_AI_30_bxa_Step-4.wav","S3","30","bxa","4","MI","CN","S3-CN","1","1","true"
"null","","fixation","html-keyboard-response","78","244517","0.0-9.0-0.25","5f35cc94e0a84d611c36bf80","condC","","<div class=""vertical-center"" style='width:60%;'><img src=""resources/images/CN_flag_100x52.jpg"" style=""width:100px;height:52px;opacity:0.35;""> <br> <br> <p style='font-weight:bold;'>Does the middle word sound more like the first word (A) or the last word (B)?</p> <br> <div class=""container""> <div id=""a-box""> <p class=""title-text"">A</h3></p> </div> <div id=""x-box""> <p class=""title-text"">X<p> </div> <div id=""b-box""> <p class=""title-text"">B</p></div> <br> <div style='float: left;padding-left:30px;'><p>Press '1' for A</p></div><div style='float: right;padding-right:30px;'><p>Press '0' for B</p> </div> </div></div>","null","","","","","","","","","","","","","","","",""
"2629","","test","audio-keyboard-response","79","247156","0.0-9.0-1.25","5f35cc94e0a84d611c36bf80","condC","","resources/audio/wordStim/S3_AI_21_bxa_Step-3.wav","49","","","","","","resources/audio/wordStim/S3_AI_21_bxa_Step-3.wav","S3","21","bxa","3","MI","CN","S3-CN","1","1","true"
"null","","fixation","html-keyboard-response","80","248176","0.0-9.0-0.26","5f35cc94e0a84d611c36bf80","condC","","<div class=""vertical-center"" style='width:60%;'><img src=""resources/images/CN_flag_100x52.jpg"" style=""width:100px;height:52px;opacity:0.35;""> <br> <br> <p style='font-weight:bold;'>Does the middle word sound more like the first word (A) or the last word (B)?</p> <br> <div class=""container""> <div id=""a-box""> <p class=""title-text"">A</h3></p> </div> <div id=""x-box""> <p class=""title-text"">X<p> </div> <div id=""b-box""> <p class=""title-text"">B</p></div> <br> <div style='float: left;padding-left:30px;'><p>Press '1' for A</p></div><div style='float: right;padding-right:30px;'><p>Press '0' for B</p> </div> </div></div>","null","","","","","","","","","","","","","","","",""
"3192","","test","audio-keyboard-response","81","251361","0.0-9.0-1.26","5f35cc94e0a84d611c36bf80","condC","","resources/audio/wordStim/S3_AU_20_bxa_Step-6.wav","49","","","","","","resources/audio/wordStim/S3_AU_20_bxa_Step-6.wav","S3","20","bxa","6","MI","CN","S3-CN","1","1","true"
"null","","fixation","html-keyboard-response","82","252375","0.0-9.0-0.27","5f35cc94e0a84d611c36bf80","condC","","<div class=""vertical-center"" style='width:60%;'><img src=""resources/images/CN_flag_100x52.jpg"" style=""width:100px;height:52px;opacity:0.35;""> <br> <br> <p style='font-weight:bold;'>Does the middle word sound more like the first word (A) or the last word (B)?</p> <br> <div class=""container""> <div id=""a-box""> <p class=""title-text"">A</h3></p> </div> <div id=""x-box""> <p class=""title-text"">X<p> </div> <div id=""b-box""> <p class=""title-text"">B</p></div> <br> <div style='float: left;padding-left:30px;'><p>Press '1' for A</p></div><div style='float: right;padding-right:30px;'><p>Press '0' for B</p> </div> </div></div>","null","","","","","","","","","","","","","","","",""
"2531","","test","audio-keyboard-response","83","254902","0.0-9.0-1.27","5f35cc94e0a84d611c36bf80","condC","","resources/audio/wordStim/S3_AI_21_axb_Step-7.wav","49","","","","","","resources/audio/wordStim/S3_AI_21_axb_Step-7.wav","S3","21","axb","7","MI","CN","S3-CN","0","1","false"
"null","","fixation","html-keyboard-response","84","255915","0.0-9.0-0.28","5f35cc94e0a84d611c36bf80","condC","","<div class=""vertical-center"" style='width:60%;'><img src=""resources/images/CN_flag_100x52.jpg"" style=""width:100px;height:52px;opacity:0.35;""> <br> <br> <p style='font-weight:bold;'>Does the middle word sound more like the first word (A) or the last word (B)?</p> <br> <div class=""container""> <div id=""a-box""> <p class=""title-text"">A</h3></p> </div> <div id=""x-box""> <p class=""title-text"">X<p> </div> <div id=""b-box""> <p class=""title-text"">B</p></div> <br> <div style='float: left;padding-left:30px;'><p>Press '1' for A</p></div><div style='float: right;padding-right:30px;'><p>Press '0' for B</p> </div> </div></div>","null","","","","","","","","","","","","","","","",""
"2539","","test","audio-keyboard-response","85","258458","0.0-9.0-1.28","5f35cc94e0a84d611c36bf80","condC","","resources/audio/wordStim/S3_AI_21_bxa_Step-5.wav","49","","","","","","resources/audio/wordStim/S3_AI_21_bxa_Step-5.wav","S3","21","bxa","5","MI","CN","S3-CN","1","1","true"
"null","","fixation","html-keyboard-response","86","259476","0.0-9.0-0.29","5f35cc94e0a84d611c36bf80","condC","","<div class=""vertical-center"" style='width:60%;'><img src=""resources/images/CN_flag_100x52.jpg"" style=""width:100px;height:52px;opacity:0.35;""> <br> <br> <p style='font-weight:bold;'>Does the middle word sound more like the first word (A) or the last word (B)?</p> <br> <div class=""container""> <div id=""a-box""> <p class=""title-text"">A</h3></p> </div> <div id=""x-box""> <p class=""title-text"">X<p> </div> <div id=""b-box""> <p class=""title-text"">B</p></div> <br> <div style='float: left;padding-left:30px;'><p>Press '1' for A</p></div><div style='float: right;padding-right:30px;'><p>Press '0' for B</p> </div> </div></div>","null","","","","","","","","","","","","","","","",""
"3099","","test","audio-keyboard-response","87","262574","0.0-9.0-1.29","5f35cc94e0a84d611c36bf80","condC","","resources/audio/wordStim/S3_AU_19_bxa_Step-2.wav","48","","","","","","resources/audio/wordStim/S3_AU_19_bxa_Step-2.wav","S3","19","bxa","2","MI","CN","S3-CN","1","0","false"
"null","","fixation","html-keyboard-response","88","263586","0.0-9.0-0.30","5f35cc94e0a84d611c36bf80","condC","","<div class=""vertical-center"" style='width:60%;'><img src=""resources/images/CN_flag_100x52.jpg"" style=""width:100px;height:52px;opacity:0.35;""> <br> <br> <p style='font-weight:bold;'>Does the middle word sound more like the first word (A) or the last word (B)?</p> <br> <div class=""container""> <div id=""a-box""> <p class=""title-text"">A</h3></p> </div> <div id=""x-box""> <p class=""title-text"">X<p> </div> <div id=""b-box""> <p class=""title-text"">B</p></div> <br> <div style='float: left;padding-left:30px;'><p>Press '1' for A</p></div><div style='float: right;padding-right:30px;'><p>Press '0' for B</p> </div> </div></div>","null","","","","","","","","","","","","","","","",""
"3101","","test","audio-keyboard-response","89","266689","0.0-9.0-1.30","5f35cc94e0a84d611c36bf80","condC","","resources/audio/wordStim/S3_AU_20_bxa_Step-3.wav","49","","","","","","resources/audio/wordStim/S3_AU_20_bxa_Step-3.wav","S3","20","bxa","3","MI","CN","S3-CN","1","1","true"
"null","","fixation","html-keyboard-response","90","267706","0.0-9.0-0.31","5f35cc94e0a84d611c36bf80","condC","","<div class=""vertical-center"" style='width:60%;'><img src=""resources/images/CN_flag_100x52.jpg"" style=""width:100px;height:52px;opacity:0.35;""> <br> <br> <p style='font-weight:bold;'>Does the middle word sound more like the first word (A) or the last word (B)?</p> <br> <div class=""container""> <div id=""a-box""> <p class=""title-text"">A</h3></p> </div> <div id=""x-box""> <p class=""title-text"">X<p> </div> <div id=""b-box""> <p class=""title-text"">B</p></div> <br> <div style='float: left;padding-left:30px;'><p>Press '1' for A</p></div><div style='float: right;padding-right:30px;'><p>Press '0' for B</p> </div> </div></div>","null","","","","","","","","","","","","","","","",""
"3219","","test","audio-keyboard-response","91","270938","0.0-9.0-1.31","5f35cc94e0a84d611c36bf80","condC","","resources/audio/wordStim/S3_AU_19_bxa_Step-8.wav","49","","","","","","resources/audio/wordStim/S3_AU_19_bxa_Step-8.wav","S3","19","bxa","8","MI","CN","S3-CN","1","1","true"
"null","","fixation","html-keyboard-response","92","271955","0.0-9.0-0.32","5f35cc94e0a84d611c36bf80","condC","","<div class=""vertical-center"" style='width:60%;'><img src=""resources/images/CN_flag_100x52.jpg"" style=""width:100px;height:52px;opacity:0.35;""> <br> <br> <p style='font-weight:bold;'>Does the middle word sound more like the first word (A) or the last word (B)?</p> <br> <div class=""container""> <div id=""a-box""> <p class=""title-text"">A</h3></p> </div> <div id=""x-box""> <p class=""title-text"">X<p> </div> <div id=""b-box""> <p class=""title-text"">B</p></div> <br> <div style='float: left;padding-left:30px;'><p>Press '1' for A</p></div><div style='float: right;padding-right:30px;'><p>Press '0' for B</p> </div> </div></div>","null","","","","","","","","","","","","","","","",""
"3840","","test","audio-keyboard-response","93","275798","0.0-9.0-1.32","5f35cc94e0a84d611c36bf80","condC","","resources/audio/wordStim/S3_AU_19_bxa_Step-7.wav","49","","","","","","resources/audio/wordStim/S3_AU_19_bxa_Step-7.wav","S3","19","bxa","7","MI","CN","S3-CN","1","1","true"
"null","","fixation","html-keyboard-response","94","276815","0.0-9.0-0.33","5f35cc94e0a84d611c36bf80","condC","","<div class=""vertical-center"" style='width:60%;'><img src=""resources/images/CN_flag_100x52.jpg"" style=""width:100px;height:52px;opacity:0.35;""> <br> <br> <p style='font-weight:bold;'>Does the middle word sound more like the first word (A) or the last word (B)?</p> <br> <div class=""container""> <div id=""a-box""> <p class=""title-text"">A</h3></p> </div> <div id=""x-box""> <p class=""title-text"">X<p> </div> <div id=""b-box""> <p class=""title-text"">B</p></div> <br> <div style='float: left;padding-left:30px;'><p>Press '1' for A</p></div><div style='float: right;padding-right:30px;'><p>Press '0' for B</p> </div> </div></div>","null","","","","","","","","","","","","","","","",""
"2632","","test","audio-keyboard-response","95","279446","0.0-9.0-1.33","5f35cc94e0a84d611c36bf80","condC","","resources/audio/wordStim/S3_AI_21_axb_Step-8.wav","48","","","","","","resources/audio/wordStim/S3_AI_21_axb_Step-8.wav","S3","21","axb","8","MI","CN","S3-CN","0","0","true"
"null","","fixation","html-keyboard-response","96","280465","0.0-9.0-0.34","5f35cc94e0a84d611c36bf80","condC","","<div class=""vertical-center"" style='width:60%;'><img src=""resources/images/CN_flag_100x52.jpg"" style=""width:100px;height:52px;opacity:0.35;""> <br> <br> <p style='font-weight:bold;'>Does the middle word sound more like the first word (A) or the last word (B)?</p> <br> <div class=""container""> <div id=""a-box""> <p class=""title-text"">A</h3></p> </div> <div id=""x-box""> <p class=""title-text"">X<p> </div> <div id=""b-box""> <p class=""title-text"">B</p></div> <br> <div style='float: left;padding-left:30px;'><p>Press '1' for A</p></div><div style='float: right;padding-right:30px;'><p>Press '0' for B</p> </div> </div></div>","null","","","","","","","","","","","","","","","",""
"3061","","test","audio-keyboard-response","97","283527","0.0-9.0-1.34","5f35cc94e0a84d611c36bf80","condC","","resources/audio/wordStim/S3_AU_20_bxa_Step-8.wav","49","","","","","","resources/audio/wordStim/S3_AU_20_bxa_Step-8.wav","S3","20","bxa","8","MI","CN","S3-CN","1","1","true"
"null","","fixation","html-keyboard-response","98","284548","0.0-9.0-0.35","5f35cc94e0a84d611c36bf80","condC","","<div class=""vertical-center"" style='width:60%;'><img src=""resources/images/CN_flag_100x52.jpg"" style=""width:100px;height:52px;opacity:0.35;""> <br> <br> <p style='font-weight:bold;'>Does the middle word sound more like the first word (A) or the last word (B)?</p> <br> <div class=""container""> <div id=""a-box""> <p class=""title-text"">A</h3></p> </div> <div id=""x-box""> <p class=""title-text"">X<p> </div> <div id=""b-box""> <p class=""title-text"">B</p></div> <br> <div style='float: left;padding-left:30px;'><p>Press '1' for A</p></div><div style='float: right;padding-right:30px;'><p>Press '0' for B</p> </div> </div></div>","null","","","","","","","","","","","","","","","",""
"3691","","test","audio-keyboard-response","99","288235","0.0-9.0-1.35","5f35cc94e0a84d611c36bf80","condC","","resources/audio/wordStim/S3_AU_18_axb_Step-6.wav","48","","","","","","resources/audio/wordStim/S3_AU_18_axb_Step-6.wav","S3","18","axb","6","MI","CN","S3-CN","0","0","true"
"null","","fixation","html-keyboard-response","100","289247","0.0-9.0-0.36","5f35cc94e0a84d611c36bf80","condC","","<div class=""vertical-center"" style='width:60%;'><img src=""resources/images/CN_flag_100x52.jpg"" style=""width:100px;height:52px;opacity:0.35;""> <br> <br> <p style='font-weight:bold;'>Does the middle word sound more like the first word (A) or the last word (B)?</p> <br> <div class=""container""> <div id=""a-box""> <p class=""title-text"">A</h3></p> </div> <div id=""x-box""> <p class=""title-text"">X<p> </div> <div id=""b-box""> <p class=""title-text"">B</p></div> <br> <div style='float: left;padding-left:30px;'><p>Press '1' for A</p></div><div style='float: right;padding-right:30px;'><p>Press '0' for B</p> </div> </div></div>","null","","","","","","","","","","","","","","","",""
"3168","","test","audio-keyboard-response","101","292417","0.0-9.0-1.36","5f35cc94e0a84d611c36bf80","condC","","resources/audio/wordStim/S3_AU_20_bxa_Step-5.wav","49","","","","","","resources/audio/wordStim/S3_AU_20_bxa_Step-5.wav","S3","20","bxa","5","MI","CN","S3-CN","1","1","true"
"null","","fixation","html-keyboard-response","102","293437","0.0-9.0-0.37","5f35cc94e0a84d611c36bf80","condC","","<div class=""vertical-center"" style='width:60%;'><img src=""resources/images/CN_flag_100x52.jpg"" style=""width:100px;height:52px;opacity:0.35;""> <br> <br> <p style='font-weight:bold;'>Does the middle word sound more like the first word (A) or the last word (B)?</p> <br> <div class=""container""> <div id=""a-box""> <p class=""title-text"">A</h3></p> </div> <div id=""x-box""> <p class=""title-text"">X<p> </div> <div id=""b-box""> <p class=""title-text"">B</p></div> <br> <div style='float: left;padding-left:30px;'><p>Press '1' for A</p></div><div style='float: right;padding-right:30px;'><p>Press '0' for B</p> </div> </div></div>","null","","","","","","","","","","","","","","","",""
"3371","","test","audio-keyboard-response","103","296801","0.0-9.0-1.37","5f35cc94e0a84d611c36bf80","condC","","resources/audio/wordStim/S3_AU_19_axb_Step-4.wav","49","","","","","","resources/audio/wordStim/S3_AU_19_axb_Step-4.wav","S3","19","axb","4","MI","CN","S3-CN","0","1","false"
"null","","fixation","html-keyboard-response","104","297818","0.0-9.0-0.38","5f35cc94e0a84d611c36bf80","condC","","<div class=""vertical-center"" style='width:60%;'><img src=""resources/images/CN_flag_100x52.jpg"" style=""width:100px;height:52px;opacity:0.35;""> <br> <br> <p style='font-weight:bold;'>Does the middle word sound more like the first word (A) or the last word (B)?</p> <br> <div class=""container""> <div id=""a-box""> <p class=""title-text"">A</h3></p> </div> <div id=""x-box""> <p class=""title-text"">X<p> </div> <div id=""b-box""> <p class=""title-text"">B</p></div> <br> <div style='float: left;padding-left:30px;'><p>Press '1' for A</p></div><div style='float: right;padding-right:30px;'><p>Press '0' for B</p> </div> </div></div>","null","","","","","","","","","","","","","","","",""
"2581","","test","audio-keyboard-response","105","300398","0.0-9.0-1.38","5f35cc94e0a84d611c36bf80","condC","","resources/audio/wordStim/S3_AI_21_axb_Step-5.wav","49","","","","","","resources/audio/wordStim/S3_AI_21_axb_Step-5.wav","S3","21","axb","5","MI","CN","S3-CN","0","1","false"
"null","","fixation","html-keyboard-response","106","301417","0.0-9.0-0.39","5f35cc94e0a84d611c36bf80","condC","","<div class=""vertical-center"" style='width:60%;'><img src=""resources/images/CN_flag_100x52.jpg"" style=""width:100px;height:52px;opacity:0.35;""> <br> <br> <p style='font-weight:bold;'>Does the middle word sound more like the first word (A) or the last word (B)?</p> <br> <div class=""container""> <div id=""a-box""> <p class=""title-text"">A</h3></p> </div> <div id=""x-box""> <p class=""title-text"">X<p> </div> <div id=""b-box""> <p class=""title-text"">B</p></div> <br> <div style='float: left;padding-left:30px;'><p>Press '1' for A</p></div><div style='float: right;padding-right:30px;'><p>Press '0' for B</p> </div> </div></div>","null","","","","","","","","","","","","","","","",""
"3120","","test","audio-keyboard-response","107","304531","0.0-9.0-1.39","5f35cc94e0a84d611c36bf80","condC","","resources/audio/wordStim/S3_AI_30_axb_Step-6.wav","49","","","","","","resources/audio/wordStim/S3_AI_30_axb_Step-6.wav","S3","30","axb","6","MI","CN","S3-CN","0","1","false"
"null","","fixation","html-keyboard-response","108","305547","0.0-9.0-0.40","5f35cc94e0a84d611c36bf80","condC","","<div class=""vertical-center"" style='width:60%;'><img src=""resources/images/CN_flag_100x52.jpg"" style=""width:100px;height:52px;opacity:0.35;""> <br> <br> <p style='font-weight:bold;'>Does the middle word sound more like the first word (A) or the last word (B)?</p> <br> <div class=""container""> <div id=""a-box""> <p class=""title-text"">A</h3></p> </div> <div id=""x-box""> <p class=""title-text"">X<p> </div> <div id=""b-box""> <p class=""title-text"">B</p></div> <br> <div style='float: left;padding-left:30px;'><p>Press '1' for A</p></div><div style='float: right;padding-right:30px;'><p>Press '0' for B</p> </div> </div></div>","null","","","","","","","","","","","","","","","",""
"3120","","test","audio-keyboard-response","109","308668","0.0-9.0-1.40","5f35cc94e0a84d611c36bf80","condC","","resources/audio/wordStim/S3_AU_20_axb_Step-7.wav","48","","","","","","resources/audio/wordStim/S3_AU_20_axb_Step-7.wav","S3","20","axb","7","MI","CN","S3-CN","0","0","true"
"null","","fixation","html-keyboard-response","110","309687","0.0-9.0-0.41","5f35cc94e0a84d611c36bf80","condC","","<div class=""vertical-center"" style='width:60%;'><img src=""resources/images/CN_flag_100x52.jpg"" style=""width:100px;height:52px;opacity:0.35;""> <br> <br> <p style='font-weight:bold;'>Does the middle word sound more like the first word (A) or the last word (B)?</p> <br> <div class=""container""> <div id=""a-box""> <p class=""title-text"">A</h3></p> </div> <div id=""x-box""> <p class=""title-text"">X<p> </div> <div id=""b-box""> <p class=""title-text"">B</p></div> <br> <div style='float: left;padding-left:30px;'><p>Press '1' for A</p></div><div style='float: right;padding-right:30px;'><p>Press '0' for B</p> </div> </div></div>","null","","","","","","","","","","","","","","","",""
"3512","","test","audio-keyboard-response","111","313210","0.0-9.0-1.41","5f35cc94e0a84d611c36bf80","condC","","resources/audio/wordStim/S3_AI_22_axb_Step-2.wav","49","","","","","","resources/audio/wordStim/S3_AI_22_axb_Step-2.wav","S3","22","axb","2","MI","CN","S3-CN","0","1","false"
"1429.024999961257","","break","html-keyboard-response","112","315146","0.0-9.0-2.41-0.41","5f35cc94e0a84d611c36bf80","condC","","<div class=""vertical-center""><p>Feel free to take a break!</p><i>When you're ready to continue, press SPACE to begin the next trial.</i></p></div>","32","","","","","","","","","","","","","","","",""
"null","","fixation","html-keyboard-response","113","315658","0.0-9.0-0.42","5f35cc94e0a84d611c36bf80","condC","","<div class=""vertical-center"" style='width:60%;'><img src=""resources/images/CN_flag_100x52.jpg"" style=""width:100px;height:52px;opacity:0.35;""> <br> <br> <p style='font-weight:bold;'>Does the middle word sound more like the first word (A) or the last word (B)?</p> <br> <div class=""container""> <div id=""a-box""> <p class=""title-text"">A</h3></p> </div> <div id=""x-box""> <p class=""title-text"">X<p> </div> <div id=""b-box""> <p class=""title-text"">B</p></div> <br> <div style='float: left;padding-left:30px;'><p>Press '1' for A</p></div><div style='float: right;padding-right:30px;'><p>Press '0' for B</p> </div> </div></div>","null","","","","","","","","","","","","","","","",""
"3261","","test","audio-keyboard-response","114","318917","0.0-9.0-1.42","5f35cc94e0a84d611c36bf80","condC","","resources/audio/wordStim/S3_AU_20_axb_Step-3.wav","49","","","","","","resources/audio/wordStim/S3_AU_20_axb_Step-3.wav","S3","20","axb","3","MI","CN","S3-CN","0","1","false"
"null","","fixation","html-keyboard-response","115","319937","0.0-9.0-0.43","5f35cc94e0a84d611c36bf80","condC","","<div class=""vertical-center"" style='width:60%;'><img src=""resources/images/CN_flag_100x52.jpg"" style=""width:100px;height:52px;opacity:0.35;""> <br> <br> <p style='font-weight:bold;'>Does the middle word sound more like the first word (A) or the last word (B)?</p> <br> <div class=""container""> <div id=""a-box""> <p class=""title-text"">A</h3></p> </div> <div id=""x-box""> <p class=""title-text"">X<p> </div> <div id=""b-box""> <p class=""title-text"">B</p></div> <br> <div style='float: left;padding-left:30px;'><p>Press '1' for A</p></div><div style='float: right;padding-right:30px;'><p>Press '0' for B</p> </div> </div></div>","null","","","","","","","","","","","","","","","",""
"2920","","test","audio-keyboard-response","116","322854","0.0-9.0-1.43","5f35cc94e0a84d611c36bf80","condC","","resources/audio/wordStim/S3_AU_19_axb_Step-5.wav","49","","","","","","resources/audio/wordStim/S3_AU_19_axb_Step-5.wav","S3","19","axb","5","MI","CN","S3-CN","0","1","false"
"null","","fixation","html-keyboard-response","117","323864","0.0-9.0-0.44","5f35cc94e0a84d611c36bf80","condC","","<div class=""vertical-center"" style='width:60%;'><img src=""resources/images/CN_flag_100x52.jpg"" style=""width:100px;height:52px;opacity:0.35;""> <br> <br> <p style='font-weight:bold;'>Does the middle word sound more like the first word (A) or the last word (B)?</p> <br> <div class=""container""> <div id=""a-box""> <p class=""title-text"">A</h3></p> </div> <div id=""x-box""> <p class=""title-text"">X<p> </div> <div id=""b-box""> <p class=""title-text"">B</p></div> <br> <div style='float: left;padding-left:30px;'><p>Press '1' for A</p></div><div style='float: right;padding-right:30px;'><p>Press '0' for B</p> </div> </div></div>","null","","","","","","","","","","","","","","","",""
"3269","","test","audio-keyboard-response","118","327136","0.0-9.0-1.44","5f35cc94e0a84d611c36bf80","condC","","resources/audio/wordStim/S3_AI_30_bxa_Step-5.wav","49","","","","","","resources/audio/wordStim/S3_AI_30_bxa_Step-5.wav","S3","30","bxa","5","MI","CN","S3-CN","1","1","true"
"null","","fixation","html-keyboard-response","119","328147","0.0-9.0-0.45","5f35cc94e0a84d611c36bf80","condC","","<div class=""vertical-center"" style='width:60%;'><img src=""resources/images/CN_flag_100x52.jpg"" style=""width:100px;height:52px;opacity:0.35;""> <br> <br> <p style='font-weight:bold;'>Does the middle word sound more like the first word (A) or the last word (B)?</p> <br> <div class=""container""> <div id=""a-box""> <p class=""title-text"">A</h3></p> </div> <div id=""x-box""> <p class=""title-text"">X<p> </div> <div id=""b-box""> <p class=""title-text"">B</p></div> <br> <div style='float: left;padding-left:30px;'><p>Press '1' for A</p></div><div style='float: right;padding-right:30px;'><p>Press '0' for B</p> </div> </div></div>","null","","","","","","","","","","","","","","","",""
"3451","","test","audio-keyboard-response","120","331599","0.0-9.0-1.45","5f35cc94e0a84d611c36bf80","condC","","resources/audio/wordStim/S3_AI_22_bxa_Step-3.wav","48","","","","","","resources/audio/wordStim/S3_AI_22_bxa_Step-3.wav","S3","22","bxa","3","MI","CN","S3-CN","1","0","false"
"null","","fixation","html-keyboard-response","121","332617","0.0-9.0-0.46","5f35cc94e0a84d611c36bf80","condC","","<div class=""vertical-center"" style='width:60%;'><img src=""resources/images/CN_flag_100x52.jpg"" style=""width:100px;height:52px;opacity:0.35;""> <br> <br> <p style='font-weight:bold;'>Does the middle word sound more like the first word (A) or the last word (B)?</p> <br> <div class=""container""> <div id=""a-box""> <p class=""title-text"">A</h3></p> </div> <div id=""x-box""> <p class=""title-text"">X<p> </div> <div id=""b-box""> <p class=""title-text"">B</p></div> <br> <div style='float: left;padding-left:30px;'><p>Press '1' for A</p></div><div style='float: right;padding-right:30px;'><p>Press '0' for B</p> </div> </div></div>","null","","","","","","","","","","","","","","","",""
"3312","","test","audio-keyboard-response","122","335925","0.0-9.0-1.46","5f35cc94e0a84d611c36bf80","condC","","resources/audio/wordStim/S3_AI_22_bxa_Step-8.wav","49","","","","","","resources/audio/wordStim/S3_AI_22_bxa_Step-8.wav","S3","22","bxa","8","MI","CN","S3-CN","1","1","true"
"null","","fixation","html-keyboard-response","123","336938","0.0-9.0-0.47","5f35cc94e0a84d611c36bf80","condC","","<div class=""vertical-center"" style='width:60%;'><img src=""resources/images/CN_flag_100x52.jpg"" style=""width:100px;height:52px;opacity:0.35;""> <br> <br> <p style='font-weight:bold;'>Does the middle word sound more like the first word (A) or the last word (B)?</p> <br> <div class=""container""> <div id=""a-box""> <p class=""title-text"">A</h3></p> </div> <div id=""x-box""> <p class=""title-text"">X<p> </div> <div id=""b-box""> <p class=""title-text"">B</p></div> <br> <div style='float: left;padding-left:30px;'><p>Press '1' for A</p></div><div style='float: right;padding-right:30px;'><p>Press '0' for B</p> </div> </div></div>","null","","","","","","","","","","","","","","","",""
"3309","","test","audio-keyboard-response","124","340252","0.0-9.0-1.47","5f35cc94e0a84d611c36bf80","condC","","resources/audio/wordStim/S3_AI_22_bxa_Step-4.wav","49","","","","","","resources/audio/wordStim/S3_AI_22_bxa_Step-4.wav","S3","22","bxa","4","MI","CN","S3-CN","1","1","true"
"null","","fixation","html-keyboard-response","125","341267","0.0-9.0-0.48","5f35cc94e0a84d611c36bf80","condC","","<div class=""vertical-center"" style='width:60%;'><img src=""resources/images/CN_flag_100x52.jpg"" style=""width:100px;height:52px;opacity:0.35;""> <br> <br> <p style='font-weight:bold;'>Does the middle word sound more like the first word (A) or the last word (B)?</p> <br> <div class=""container""> <div id=""a-box""> <p class=""title-text"">A</h3></p> </div> <div id=""x-box""> <p class=""title-text"">X<p> </div> <div id=""b-box""> <p class=""title-text"">B</p></div> <br> <div style='float: left;padding-left:30px;'><p>Press '1' for A</p></div><div style='float: right;padding-right:30px;'><p>Press '0' for B</p> </div> </div></div>","null","","","","","","","","","","","","","","","",""
"3309","","test","audio-keyboard-response","126","344568","0.0-9.0-1.48","5f35cc94e0a84d611c36bf80","condC","","resources/audio/wordStim/S3_AU_20_bxa_Step-4.wav","49","","","","","","resources/audio/wordStim/S3_AU_20_bxa_Step-4.wav","S3","20","bxa","4","MI","CN","S3-CN","1","1","true"
"null","","fixation","html-keyboard-response","127","345583","0.0-9.0-0.49","5f35cc94e0a84d611c36bf80","condC","","<div class=""vertical-center"" style='width:60%;'><img src=""resources/images/CN_flag_100x52.jpg"" style=""width:100px;height:52px;opacity:0.35;""> <br> <br> <p style='font-weight:bold;'>Does the middle word sound more like the first word (A) or the last word (B)?</p> <br> <div class=""container""> <div id=""a-box""> <p class=""title-text"">A</h3></p> </div> <div id=""x-box""> <p class=""title-text"">X<p> </div> <div id=""b-box""> <p class=""title-text"">B</p></div> <br> <div style='float: left;padding-left:30px;'><p>Press '1' for A</p></div><div style='float: right;padding-right:30px;'><p>Press '0' for B</p> </div> </div></div>","null","","","","","","","","","","","","","","","",""
"3061","","test","audio-keyboard-response","128","348638","0.0-9.0-1.49","5f35cc94e0a84d611c36bf80","condC","","resources/audio/wordStim/S3_AU_20_axb_Step-4.wav","49","","","","","","resources/audio/wordStim/S3_AU_20_axb_Step-4.wav","S3","20","axb","4","MI","CN","S3-CN","0","1","false"
"null","","fixation","html-keyboard-response","129","349654","0.0-9.0-0.50","5f35cc94e0a84d611c36bf80","condC","","<div class=""vertical-center"" style='width:60%;'><img src=""resources/images/CN_flag_100x52.jpg"" style=""width:100px;height:52px;opacity:0.35;""> <br> <br> <p style='font-weight:bold;'>Does the middle word sound more like the first word (A) or the last word (B)?</p> <br> <div class=""container""> <div id=""a-box""> <p class=""title-text"">A</h3></p> </div> <div id=""x-box""> <p class=""title-text"">X<p> </div> <div id=""b-box""> <p class=""title-text"">B</p></div> <br> <div style='float: left;padding-left:30px;'><p>Press '1' for A</p></div><div style='float: right;padding-right:30px;'><p>Press '0' for B</p> </div> </div></div>","null","","","","","","","","","","","","","","","",""
"3261","","test","audio-keyboard-response","130","352919","0.0-9.0-1.50","5f35cc94e0a84d611c36bf80","condC","","resources/audio/wordStim/S3_AI_30_axb_Step-5.wav","49","","","","","","resources/audio/wordStim/S3_AI_30_axb_Step-5.wav","S3","30","axb","5","MI","CN","S3-CN","0","1","false"
"null","","fixation","html-keyboard-response","131","353933","0.0-9.0-0.51","5f35cc94e0a84d611c36bf80","condC","","<div class=""vertical-center"" style='width:60%;'><img src=""resources/images/CN_flag_100x52.jpg"" style=""width:100px;height:52px;opacity:0.35;""> <br> <br> <p style='font-weight:bold;'>Does the middle word sound more like the first word (A) or the last word (B)?</p> <br> <div class=""container""> <div id=""a-box""> <p class=""title-text"">A</h3></p> </div> <div id=""x-box""> <p class=""title-text"">X<p> </div> <div id=""b-box""> <p class=""title-text"">B</p></div> <br> <div style='float: left;padding-left:30px;'><p>Press '1' for A</p></div><div style='float: right;padding-right:30px;'><p>Press '0' for B</p> </div> </div></div>","null","","","","","","","","","","","","","","","",""
"3552","","test","audio-keyboard-response","132","357478","0.0-9.0-1.51","5f35cc94e0a84d611c36bf80","condC","","resources/audio/wordStim/S3_AI_22_bxa_Step-2.wav","48","","","","","","resources/audio/wordStim/S3_AI_22_bxa_Step-2.wav","S3","22","bxa","2","MI","CN","S3-CN","1","0","false"
"null","","fixation","html-keyboard-response","133","358492","0.0-9.0-0.52","5f35cc94e0a84d611c36bf80","condC","","<div class=""vertical-center"" style='width:60%;'><img src=""resources/images/CN_flag_100x52.jpg"" style=""width:100px;height:52px;opacity:0.35;""> <br> <br> <p style='font-weight:bold;'>Does the middle word sound more like the first word (A) or the last word (B)?</p> <br> <div class=""container""> <div id=""a-box""> <p class=""title-text"">A</h3></p> </div> <div id=""x-box""> <p class=""title-text"">X<p> </div> <div id=""b-box""> <p class=""title-text"">B</p></div> <br> <div style='float: left;padding-left:30px;'><p>Press '1' for A</p></div><div style='float: right;padding-right:30px;'><p>Press '0' for B</p> </div> </div></div>","null","","","","","","","","","","","","","","","",""
"3112","","test","audio-keyboard-response","134","361600","0.0-9.0-1.52","5f35cc94e0a84d611c36bf80","condC","","resources/audio/wordStim/S3_AU_20_axb_Step-5.wav","49","","","","","","resources/audio/wordStim/S3_AU_20_axb_Step-5.wav","S3","20","axb","5","MI","CN","S3-CN","0","1","false"
"null","","fixation","html-keyboard-response","135","362613","0.0-9.0-0.53","5f35cc94e0a84d611c36bf80","condC","","<div class=""vertical-center"" style='width:60%;'><img src=""resources/images/CN_flag_100x52.jpg"" style=""width:100px;height:52px;opacity:0.35;""> <br> <br> <p style='font-weight:bold;'>Does the middle word sound more like the first word (A) or the last word (B)?</p> <br> <div class=""container""> <div id=""a-box""> <p class=""title-text"">A</h3></p> </div> <div id=""x-box""> <p class=""title-text"">X<p> </div> <div id=""b-box""> <p class=""title-text"">B</p></div> <br> <div style='float: left;padding-left:30px;'><p>Press '1' for A</p></div><div style='float: right;padding-right:30px;'><p>Press '0' for B</p> </div> </div></div>","null","","","","","","","","","","","","","","","",""
"3272","","test","audio-keyboard-response","136","365880","0.0-9.0-1.53","5f35cc94e0a84d611c36bf80","condC","","resources/audio/wordStim/S3_AU_19_axb_Step-3.wav","49","","","","","","resources/audio/wordStim/S3_AU_19_axb_Step-3.wav","S3","19","axb","3","MI","CN","S3-CN","0","1","false"
"null","","fixation","html-keyboard-response","137","366893","0.0-9.0-0.54","5f35cc94e0a84d611c36bf80","condC","","<div class=""vertical-center"" style='width:60%;'><img src=""resources/images/CN_flag_100x52.jpg"" style=""width:100px;height:52px;opacity:0.35;""> <br> <br> <p style='font-weight:bold;'>Does the middle word sound more like the first word (A) or the last word (B)?</p> <br> <div class=""container""> <div id=""a-box""> <p class=""title-text"">A</h3></p> </div> <div id=""x-box""> <p class=""title-text"">X<p> </div> <div id=""b-box""> <p class=""title-text"">B</p></div> <br> <div style='float: left;padding-left:30px;'><p>Press '1' for A</p></div><div style='float: right;padding-right:30px;'><p>Press '0' for B</p> </div> </div></div>","null","","","","","","","","","","","","","","","",""
"3432","","test","audio-keyboard-response","138","370324","0.0-9.0-1.54","5f35cc94e0a84d611c36bf80","condC","","resources/audio/wordStim/S3_AI_30_axb_Step-7.wav","48","","","","","","resources/audio/wordStim/S3_AI_30_axb_Step-7.wav","S3","30","axb","7","MI","CN","S3-CN","0","0","true"
"null","","fixation","html-keyboard-response","139","371343","0.0-9.0-0.55","5f35cc94e0a84d611c36bf80","condC","","<div class=""vertical-center"" style='width:60%;'><img src=""resources/images/CN_flag_100x52.jpg"" style=""width:100px;height:52px;opacity:0.35;""> <br> <br> <p style='font-weight:bold;'>Does the middle word sound more like the first word (A) or the last word (B)?</p> <br> <div class=""container""> <div id=""a-box""> <p class=""title-text"">A</h3></p> </div> <div id=""x-box""> <p class=""title-text"">X<p> </div> <div id=""b-box""> <p class=""title-text"">B</p></div> <br> <div style='float: left;padding-left:30px;'><p>Press '1' for A</p></div><div style='float: right;padding-right:30px;'><p>Press '0' for B</p> </div> </div></div>","null","","","","","","","","","","","","","","","",""
"2869","","test","audio-keyboard-response","140","374213","0.0-9.0-1.55","5f35cc94e0a84d611c36bf80","condC","","resources/audio/wordStim/S3_AI_21_axb_Step-4.wav","49","","","","","","resources/audio/wordStim/S3_AI_21_axb_Step-4.wav","S3","21","axb","4","MI","CN","S3-CN","0","1","false"
"null","","fixation","html-keyboard-response","141","375232","0.0-9.0-0.56","5f35cc94e0a84d611c36bf80","condC","","<div class=""vertical-center"" style='width:60%;'><img src=""resources/images/CN_flag_100x52.jpg"" style=""width:100px;height:52px;opacity:0.35;""> <br> <br> <p style='font-weight:bold;'>Does the middle word sound more like the first word (A) or the last word (B)?</p> <br> <div class=""container""> <div id=""a-box""> <p class=""title-text"">A</h3></p> </div> <div id=""x-box""> <p class=""title-text"">X<p> </div> <div id=""b-box""> <p class=""title-text"">B</p></div> <br> <div style='float: left;padding-left:30px;'><p>Press '1' for A</p></div><div style='float: right;padding-right:30px;'><p>Press '0' for B</p> </div> </div></div>","null","","","","","","","","","","","","","","","",""
"3491","","test","audio-keyboard-response","142","378726","0.0-9.0-1.56","5f35cc94e0a84d611c36bf80","condC","","resources/audio/wordStim/S3_AU_20_axb_Step-6.wav","48","","","","","","resources/audio/wordStim/S3_AU_20_axb_Step-6.wav","S3","20","axb","6","MI","CN","S3-CN","0","0","true"
"null","","fixation","html-keyboard-response","143","379743","0.0-9.0-0.57","5f35cc94e0a84d611c36bf80","condC","","<div class=""vertical-center"" style='width:60%;'><img src=""resources/images/CN_flag_100x52.jpg"" style=""width:100px;height:52px;opacity:0.35;""> <br> <br> <p style='font-weight:bold;'>Does the middle word sound more like the first word (A) or the last word (B)?</p> <br> <div class=""container""> <div id=""a-box""> <p class=""title-text"">A</h3></p> </div> <div id=""x-box""> <p class=""title-text"">X<p> </div> <div id=""b-box""> <p class=""title-text"">B</p></div> <br> <div style='float: left;padding-left:30px;'><p>Press '1' for A</p></div><div style='float: right;padding-right:30px;'><p>Press '0' for B</p> </div> </div></div>","null","","","","","","","","","","","","","","","",""
"3139","","test","audio-keyboard-response","144","382888","0.0-9.0-1.57","5f35cc94e0a84d611c36bf80","condC","","resources/audio/wordStim/S3_AU_19_axb_Step-7.wav","48","","","","","","resources/audio/wordStim/S3_AU_19_axb_Step-7.wav","S3","19","axb","7","MI","CN","S3-CN","0","0","true"
"null","","fixation","html-keyboard-response","145","383903","0.0-9.0-0.58","5f35cc94e0a84d611c36bf80","condC","","<div class=""vertical-center"" style='width:60%;'><img src=""resources/images/CN_flag_100x52.jpg"" style=""width:100px;height:52px;opacity:0.35;""> <br> <br> <p style='font-weight:bold;'>Does the middle word sound more like the first word (A) or the last word (B)?</p> <br> <div class=""container""> <div id=""a-box""> <p class=""title-text"">A</h3></p> </div> <div id=""x-box""> <p class=""title-text"">X<p> </div> <div id=""b-box""> <p class=""title-text"">B</p></div> <br> <div style='float: left;padding-left:30px;'><p>Press '1' for A</p></div><div style='float: right;padding-right:30px;'><p>Press '0' for B</p> </div> </div></div>","null","","","","","","","","","","","","","","","",""
"2989","","test","audio-keyboard-response","146","386896","0.0-9.0-1.58","5f35cc94e0a84d611c36bf80","condC","","resources/audio/wordStim/S3_AI_21_bxa_Step-2.wav","48","","","","","","resources/audio/wordStim/S3_AI_21_bxa_Step-2.wav","S3","21","bxa","2","MI","CN","S3-CN","1","0","false"
"null","","fixation","html-keyboard-response","147","387913","0.0-9.0-0.59","5f35cc94e0a84d611c36bf80","condC","","<div class=""vertical-center"" style='width:60%;'><img src=""resources/images/CN_flag_100x52.jpg"" style=""width:100px;height:52px;opacity:0.35;""> <br> <br> <p style='font-weight:bold;'>Does the middle word sound more like the first word (A) or the last word (B)?</p> <br> <div class=""container""> <div id=""a-box""> <p class=""title-text"">A</h3></p> </div> <div id=""x-box""> <p class=""title-text"">X<p> </div> <div id=""b-box""> <p class=""title-text"">B</p></div> <br> <div style='float: left;padding-left:30px;'><p>Press '1' for A</p></div><div style='float: right;padding-right:30px;'><p>Press '0' for B</p> </div> </div></div>","null","","","","","","","","","","","","","","","",""
"2731","","test","audio-keyboard-response","148","390640","0.0-9.0-1.59","5f35cc94e0a84d611c36bf80","condC","","resources/audio/wordStim/S3_AI_21_bxa_Step-6.wav","49","","","","","","resources/audio/wordStim/S3_AI_21_bxa_Step-6.wav","S3","21","bxa","6","MI","CN","S3-CN","1","1","true"
"null","","fixation","html-keyboard-response","149","391653","0.0-9.0-0.60","5f35cc94e0a84d611c36bf80","condC","","<div class=""vertical-center"" style='width:60%;'><img src=""resources/images/CN_flag_100x52.jpg"" style=""width:100px;height:52px;opacity:0.35;""> <br> <br> <p style='font-weight:bold;'>Does the middle word sound more like the first word (A) or the last word (B)?</p> <br> <div class=""container""> <div id=""a-box""> <p class=""title-text"">A</h3></p> </div> <div id=""x-box""> <p class=""title-text"">X<p> </div> <div id=""b-box""> <p class=""title-text"">B</p></div> <br> <div style='float: left;padding-left:30px;'><p>Press '1' for A</p></div><div style='float: right;padding-right:30px;'><p>Press '0' for B</p> </div> </div></div>","null","","","","","","","","","","","","","","","",""
"3211","","test","audio-keyboard-response","150","394857","0.0-9.0-1.60","5f35cc94e0a84d611c36bf80","condC","","resources/audio/wordStim/S3_AI_30_bxa_Step-7.wav","49","","","","","","resources/audio/wordStim/S3_AI_30_bxa_Step-7.wav","S3","30","bxa","7","MI","CN","S3-CN","1","1","true"
"null","","fixation","html-keyboard-response","151","395872","0.0-9.0-0.61","5f35cc94e0a84d611c36bf80","condC","","<div class=""vertical-center"" style='width:60%;'><img src=""resources/images/CN_flag_100x52.jpg"" style=""width:100px;height:52px;opacity:0.35;""> <br> <br> <p style='font-weight:bold;'>Does the middle word sound more like the first word (A) or the last word (B)?</p> <br> <div class=""container""> <div id=""a-box""> <p class=""title-text"">A</h3></p> </div> <div id=""x-box""> <p class=""title-text"">X<p> </div> <div id=""b-box""> <p class=""title-text"">B</p></div> <br> <div style='float: left;padding-left:30px;'><p>Press '1' for A</p></div><div style='float: right;padding-right:30px;'><p>Press '0' for B</p> </div> </div></div>","null","","","","","","","","","","","","","","","",""
"3640","","test","audio-keyboard-response","152","399516","0.0-9.0-1.61","5f35cc94e0a84d611c36bf80","condC","","resources/audio/wordStim/S3_AI_30_bxa_Step-6.wav","49","","","","","","resources/audio/wordStim/S3_AI_30_bxa_Step-6.wav","S3","30","bxa","6","MI","CN","S3-CN","1","1","true"
"null","","fixation","html-keyboard-response","153","400533","0.0-9.0-0.62","5f35cc94e0a84d611c36bf80","condC","","<div class=""vertical-center"" style='width:60%;'><img src=""resources/images/CN_flag_100x52.jpg"" style=""width:100px;height:52px;opacity:0.35;""> <br> <br> <p style='font-weight:bold;'>Does the middle word sound more like the first word (A) or the last word (B)?</p> <br> <div class=""container""> <div id=""a-box""> <p class=""title-text"">A</h3></p> </div> <div id=""x-box""> <p class=""title-text"">X<p> </div> <div id=""b-box""> <p class=""title-text"">B</p></div> <br> <div style='float: left;padding-left:30px;'><p>Press '1' for A</p></div><div style='float: right;padding-right:30px;'><p>Press '0' for B</p> </div> </div></div>","null","","","","","","","","","","","","","","","",""
"3640","","test","audio-keyboard-response","154","404175","0.0-9.0-1.62","5f35cc94e0a84d611c36bf80","condC","","resources/audio/wordStim/S3_AU_18_bxa_Step-6.wav","48","","","","","","resources/audio/wordStim/S3_AU_18_bxa_Step-6.wav","S3","18","bxa","6","MI","CN","S3-CN","1","0","false"
"1887.5149991363287","","break","html-keyboard-response","155","406572","0.0-9.0-2.62-0.62","5f35cc94e0a84d611c36bf80","condC","","<div class=""vertical-center""><p>Feel free to take a break!</p><i>When you're ready to continue, press SPACE to begin the next trial.</i></p></div>","32","","","","","","","","","","","","","","","",""
"null","","fixation","html-keyboard-response","156","407084","0.0-9.0-0.63","5f35cc94e0a84d611c36bf80","condC","","<div class=""vertical-center"" style='width:60%;'><img src=""resources/images/CN_flag_100x52.jpg"" style=""width:100px;height:52px;opacity:0.35;""> <br> <br> <p style='font-weight:bold;'>Does the middle word sound more like the first word (A) or the last word (B)?</p> <br> <div class=""container""> <div id=""a-box""> <p class=""title-text"">A</h3></p> </div> <div id=""x-box""> <p class=""title-text"">X<p> </div> <div id=""b-box""> <p class=""title-text"">B</p></div> <br> <div style='float: left;padding-left:30px;'><p>Press '1' for A</p></div><div style='float: right;padding-right:30px;'><p>Press '0' for B</p> </div> </div></div>","null","","","","","","","","","","","","","","","",""
"6051","","test","audio-keyboard-response","157","413147","0.0-9.0-1.63","5f35cc94e0a84d611c36bf80","condC","","resources/audio/wordStim/S3_AI_22_bxa_Step-5.wav","48","","","","","","resources/audio/wordStim/S3_AI_22_bxa_Step-5.wav","S3","22","bxa","5","MI","CN","S3-CN","1","0","false"
"null","","fixation","html-keyboard-response","158","414155","0.0-9.0-0.64","5f35cc94e0a84d611c36bf80","condC","","<div class=""vertical-center"" style='width:60%;'><img src=""resources/images/CN_flag_100x52.jpg"" style=""width:100px;height:52px;opacity:0.35;""> <br> <br> <p style='font-weight:bold;'>Does the middle word sound more like the first word (A) or the last word (B)?</p> <br> <div class=""container""> <div id=""a-box""> <p class=""title-text"">A</h3></p> </div> <div id=""x-box""> <p class=""title-text"">X<p> </div> <div id=""b-box""> <p class=""title-text"">B</p></div> <br> <div style='float: left;padding-left:30px;'><p>Press '1' for A</p></div><div style='float: right;padding-right:30px;'><p>Press '0' for B</p> </div> </div></div>","null","","","","","","","","","","","","","","","",""
"3259","","test","audio-keyboard-response","159","417428","0.0-9.0-1.64","5f35cc94e0a84d611c36bf80","condC","","resources/audio/wordStim/S3_AU_20_bxa_Step-7.wav","49","","","","","","resources/audio/wordStim/S3_AU_20_bxa_Step-7.wav","S3","20","bxa","7","MI","CN","S3-CN","1","1","true"
"null","","fixation","html-keyboard-response","160","418444","0.0-9.0-0.65","5f35cc94e0a84d611c36bf80","condC","","<div class=""vertical-center"" style='width:60%;'><img src=""resources/images/CN_flag_100x52.jpg"" style=""width:100px;height:52px;opacity:0.35;""> <br> <br> <p style='font-weight:bold;'>Does the middle word sound more like the first word (A) or the last word (B)?</p> <br> <div class=""container""> <div id=""a-box""> <p class=""title-text"">A</h3></p> </div> <div id=""x-box""> <p class=""title-text"">X<p> </div> <div id=""b-box""> <p class=""title-text"">B</p></div> <br> <div style='float: left;padding-left:30px;'><p>Press '1' for A</p></div><div style='float: right;padding-right:30px;'><p>Press '0' for B</p> </div> </div></div>","null","","","","","","","","","","","","","","","",""
"3379","","test","audio-keyboard-response","161","421827","0.0-9.0-1.65","5f35cc94e0a84d611c36bf80","condC","","resources/audio/wordStim/S3_AU_19_bxa_Step-3.wav","49","","","","","","resources/audio/wordStim/S3_AU_19_bxa_Step-3.wav","S3","19","bxa","3","MI","CN","S3-CN","1","1","true"
"null","","fixation","html-keyboard-response","162","422844","0.0-9.0-0.66","5f35cc94e0a84d611c36bf80","condC","","<div class=""vertical-center"" style='width:60%;'><img src=""resources/images/CN_flag_100x52.jpg"" style=""width:100px;height:52px;opacity:0.35;""> <br> <br> <p style='font-weight:bold;'>Does the middle word sound more like the first word (A) or the last word (B)?</p> <br> <div class=""container""> <div id=""a-box""> <p class=""title-text"">A</h3></p> </div> <div id=""x-box""> <p class=""title-text"">X<p> </div> <div id=""b-box""> <p class=""title-text"">B</p></div> <br> <div style='float: left;padding-left:30px;'><p>Press '1' for A</p></div><div style='float: right;padding-right:30px;'><p>Press '0' for B</p> </div> </div></div>","null","","","","","","","","","","","","","","","",""
"3939","","test","audio-keyboard-response","163","426779","0.0-9.0-1.66","5f35cc94e0a84d611c36bf80","condC","","resources/audio/wordStim/S3_AI_22_axb_Step-7.wav","49","","","","","","resources/audio/wordStim/S3_AI_22_axb_Step-7.wav","S3","22","axb","7","MI","CN","S3-CN","0","1","false"
"null","","fixation","html-keyboard-response","164","427794","0.0-9.0-0.67","5f35cc94e0a84d611c36bf80","condC","","<div class=""vertical-center"" style='width:60%;'><img src=""resources/images/CN_flag_100x52.jpg"" style=""width:100px;height:52px;opacity:0.35;""> <br> <br> <p style='font-weight:bold;'>Does the middle word sound more like the first word (A) or the last word (B)?</p> <br> <div class=""container""> <div id=""a-box""> <p class=""title-text"">A</h3></p> </div> <div id=""x-box""> <p class=""title-text"">X<p> </div> <div id=""b-box""> <p class=""title-text"">B</p></div> <br> <div style='float: left;padding-left:30px;'><p>Press '1' for A</p></div><div style='float: right;padding-right:30px;'><p>Press '0' for B</p> </div> </div></div>","null","","","","","","","","","","","","","","","",""
"3051","","test","audio-keyboard-response","165","430843","0.0-9.0-1.67","5f35cc94e0a84d611c36bf80","condC","","resources/audio/wordStim/S3_AU_20_bxa_Step-2.wav","49","","","","","","resources/audio/wordStim/S3_AU_20_bxa_Step-2.wav","S3","20","bxa","2","MI","CN","S3-CN","1","1","true"
"null","","fixation","html-keyboard-response","166","431855","0.0-9.0-0.68","5f35cc94e0a84d611c36bf80","condC","","<div class=""vertical-center"" style='width:60%;'><img src=""resources/images/CN_flag_100x52.jpg"" style=""width:100px;height:52px;opacity:0.35;""> <br> <br> <p style='font-weight:bold;'>Does the middle word sound more like the first word (A) or the last word (B)?</p> <br> <div class=""container""> <div id=""a-box""> <p class=""title-text"">A</h3></p> </div> <div id=""x-box""> <p class=""title-text"">X<p> </div> <div id=""b-box""> <p class=""title-text"">B</p></div> <br> <div style='float: left;padding-left:30px;'><p>Press '1' for A</p></div><div style='float: right;padding-right:30px;'><p>Press '0' for B</p> </div> </div></div>","null","","","","","","","","","","","","","","","",""
"3792","","test","audio-keyboard-response","167","435640","0.0-9.0-1.68","5f35cc94e0a84d611c36bf80","condC","","resources/audio/wordStim/S3_AU_19_bxa_Step-5.wav","49","","","","","","resources/audio/wordStim/S3_AU_19_bxa_Step-5.wav","S3","19","bxa","5","MI","CN","S3-CN","1","1","true"
"null","","fixation","html-keyboard-response","168","436655","0.0-9.0-0.69","5f35cc94e0a84d611c36bf80","condC","","<div class=""vertical-center"" style='width:60%;'><img src=""resources/images/CN_flag_100x52.jpg"" style=""width:100px;height:52px;opacity:0.35;""> <br> <br> <p style='font-weight:bold;'>Does the middle word sound more like the first word (A) or the last word (B)?</p> <br> <div class=""container""> <div id=""a-box""> <p class=""title-text"">A</h3></p> </div> <div id=""x-box""> <p class=""title-text"">X<p> </div> <div id=""b-box""> <p class=""title-text"">B</p></div> <br> <div style='float: left;padding-left:30px;'><p>Press '1' for A</p></div><div style='float: right;padding-right:30px;'><p>Press '0' for B</p> </div> </div></div>","null","","","","","","","","","","","","","","","",""
"3992","","test","audio-keyboard-response","169","440643","0.0-9.0-1.69","5f35cc94e0a84d611c36bf80","condC","","resources/audio/wordStim/S3_AU_18_axb_Step-4.wav","49","","","","","","resources/audio/wordStim/S3_AU_18_axb_Step-4.wav","S3","18","axb","4","MI","CN","S3-CN","0","1","false"
"null","","fixation","html-keyboard-response","170","441665","0.0-9.0-0.70","5f35cc94e0a84d611c36bf80","condC","","<div class=""vertical-center"" style='width:60%;'><img src=""resources/images/CN_flag_100x52.jpg"" style=""width:100px;height:52px;opacity:0.35;""> <br> <br> <p style='font-weight:bold;'>Does the middle word sound more like the first word (A) or the last word (B)?</p> <br> <div class=""container""> <div id=""a-box""> <p class=""title-text"">A</h3></p> </div> <div id=""x-box""> <p class=""title-text"">X<p> </div> <div id=""b-box""> <p class=""title-text"">B</p></div> <br> <div style='float: left;padding-left:30px;'><p>Press '1' for A</p></div><div style='float: right;padding-right:30px;'><p>Press '0' for B</p> </div> </div></div>","null","","","","","","","","","","","","","","","",""
"3699","","test","audio-keyboard-response","171","445370","0.0-9.0-1.70","5f35cc94e0a84d611c36bf80","condC","","resources/audio/wordStim/S3_AI_22_axb_Step-3.wav","49","","","","","","resources/audio/wordStim/S3_AI_22_axb_Step-3.wav","S3","22","axb","3","MI","CN","S3-CN","0","1","false"
"null","","fixation","html-keyboard-response","172","446384","0.0-9.0-0.71","5f35cc94e0a84d611c36bf80","condC","","<div class=""vertical-center"" style='width:60%;'><img src=""resources/images/CN_flag_100x52.jpg"" style=""width:100px;height:52px;opacity:0.35;""> <br> <br> <p style='font-weight:bold;'>Does the middle word sound more like the first word (A) or the last word (B)?</p> <br> <div class=""container""> <div id=""a-box""> <p class=""title-text"">A</h3></p> </div> <div id=""x-box""> <p class=""title-text"">X<p> </div> <div id=""b-box""> <p class=""title-text"">B</p></div> <br> <div style='float: left;padding-left:30px;'><p>Press '1' for A</p></div><div style='float: right;padding-right:30px;'><p>Press '0' for B</p> </div> </div></div>","null","","","","","","","","","","","","","","","",""
"3189","","test","audio-keyboard-response","173","449577","0.0-9.0-1.71","5f35cc94e0a84d611c36bf80","condC","","resources/audio/wordStim/S3_AU_19_axb_Step-2.wav","49","","","","","","resources/audio/wordStim/S3_AU_19_axb_Step-2.wav","S3","19","axb","2","MI","CN","S3-CN","0","1","false"
"null","","fixation","html-keyboard-response","174","450587","0.0-9.0-0.72","5f35cc94e0a84d611c36bf80","condC","","<div class=""vertical-center"" style='width:60%;'><img src=""resources/images/CN_flag_100x52.jpg"" style=""width:100px;height:52px;opacity:0.35;""> <br> <br> <p style='font-weight:bold;'>Does the middle word sound more like the first word (A) or the last word (B)?</p> <br> <div class=""container""> <div id=""a-box""> <p class=""title-text"">A</h3></p> </div> <div id=""x-box""> <p class=""title-text"">X<p> </div> <div id=""b-box""> <p class=""title-text"">B</p></div> <br> <div style='float: left;padding-left:30px;'><p>Press '1' for A</p></div><div style='float: right;padding-right:30px;'><p>Press '0' for B</p> </div> </div></div>","null","","","","","","","","","","","","","","","",""
"4120","","test","audio-keyboard-response","175","454711","0.0-9.0-1.72","5f35cc94e0a84d611c36bf80","condC","","resources/audio/wordStim/S3_AU_18_axb_Step-3.wav","49","","","","","","resources/audio/wordStim/S3_AU_18_axb_Step-3.wav","S3","18","axb","3","MI","CN","S3-CN","0","1","false"
"null","","fixation","html-keyboard-response","176","455724","0.0-9.0-0.73","5f35cc94e0a84d611c36bf80","condC","","<div class=""vertical-center"" style='width:60%;'><img src=""resources/images/CN_flag_100x52.jpg"" style=""width:100px;height:52px;opacity:0.35;""> <br> <br> <p style='font-weight:bold;'>Does the middle word sound more like the first word (A) or the last word (B)?</p> <br> <div class=""container""> <div id=""a-box""> <p class=""title-text"">A</h3></p> </div> <div id=""x-box""> <p class=""title-text"">X<p> </div> <div id=""b-box""> <p class=""title-text"">B</p></div> <br> <div style='float: left;padding-left:30px;'><p>Press '1' for A</p></div><div style='float: right;padding-right:30px;'><p>Press '0' for B</p> </div> </div></div>","null","","","","","","","","","","","","","","","",""
"3109","","test","audio-keyboard-response","177","458834","0.0-9.0-1.73","5f35cc94e0a84d611c36bf80","condC","","resources/audio/wordStim/S3_AU_19_axb_Step-6.wav","48","","","","","","resources/audio/wordStim/S3_AU_19_axb_Step-6.wav","S3","19","axb","6","MI","CN","S3-CN","0","0","true"
"null","","fixation","html-keyboard-response","178","459854","0.0-9.0-0.74","5f35cc94e0a84d611c36bf80","condC","","<div class=""vertical-center"" style='width:60%;'><img src=""resources/images/CN_flag_100x52.jpg"" style=""width:100px;height:52px;opacity:0.35;""> <br> <br> <p style='font-weight:bold;'>Does the middle word sound more like the first word (A) or the last word (B)?</p> <br> <div class=""container""> <div id=""a-box""> <p class=""title-text"">A</h3></p> </div> <div id=""x-box""> <p class=""title-text"">X<p> </div> <div id=""b-box""> <p class=""title-text"">B</p></div> <br> <div style='float: left;padding-left:30px;'><p>Press '1' for A</p></div><div style='float: right;padding-right:30px;'><p>Press '0' for B</p> </div> </div></div>","null","","","","","","","","","","","","","","","",""
"3891","","test","audio-keyboard-response","179","463738","0.0-9.0-1.74","5f35cc94e0a84d611c36bf80","condC","","resources/audio/wordStim/S3_AI_22_axb_Step-6.wav","48","","","","","","resources/audio/wordStim/S3_AI_22_axb_Step-6.wav","S3","22","axb","6","MI","CN","S3-CN","0","0","true"
"null","","fixation","html-keyboard-response","180","464757","0.0-9.0-0.75","5f35cc94e0a84d611c36bf80","condC","","<div class=""vertical-center"" style='width:60%;'><img src=""resources/images/CN_flag_100x52.jpg"" style=""width:100px;height:52px;opacity:0.35;""> <br> <br> <p style='font-weight:bold;'>Does the middle word sound more like the first word (A) or the last word (B)?</p> <br> <div class=""container""> <div id=""a-box""> <p class=""title-text"">A</h3></p> </div> <div id=""x-box""> <p class=""title-text"">X<p> </div> <div id=""b-box""> <p class=""title-text"">B</p></div> <br> <div style='float: left;padding-left:30px;'><p>Press '1' for A</p></div><div style='float: right;padding-right:30px;'><p>Press '0' for B</p> </div> </div></div>","null","","","","","","","","","","","","","","","",""
"3211","","test","audio-keyboard-response","181","467965","0.0-9.0-1.75","5f35cc94e0a84d611c36bf80","condC","","resources/audio/wordStim/S3_AI_30_bxa_Step-8.wav","49","","","","","","resources/audio/wordStim/S3_AI_30_bxa_Step-8.wav","S3","30","bxa","8","MI","CN","S3-CN","1","1","true"
"null","","fixation","html-keyboard-response","182","468978","0.0-9.0-0.76","5f35cc94e0a84d611c36bf80","condC","","<div class=""vertical-center"" style='width:60%;'><img src=""resources/images/CN_flag_100x52.jpg"" style=""width:100px;height:52px;opacity:0.35;""> <br> <br> <p style='font-weight:bold;'>Does the middle word sound more like the first word (A) or the last word (B)?</p> <br> <div class=""container""> <div id=""a-box""> <p class=""title-text"">A</h3></p> </div> <div id=""x-box""> <p class=""title-text"">X<p> </div> <div id=""b-box""> <p class=""title-text"">B</p></div> <br> <div style='float: left;padding-left:30px;'><p>Press '1' for A</p></div><div style='float: right;padding-right:30px;'><p>Press '0' for B</p> </div> </div></div>","null","","","","","","","","","","","","","","","",""
"3640","","test","audio-keyboard-response","183","472620","0.0-9.0-1.76","5f35cc94e0a84d611c36bf80","condC","","resources/audio/wordStim/S3_AU_18_bxa_Step-7.wav","49","","","","","","resources/audio/wordStim/S3_AU_18_bxa_Step-7.wav","S3","18","bxa","7","MI","CN","S3-CN","1","1","true"
"null","","fixation","html-keyboard-response","184","473638","0.0-9.0-0.77","5f35cc94e0a84d611c36bf80","condC","","<div class=""vertical-center"" style='width:60%;'><img src=""resources/images/CN_flag_100x52.jpg"" style=""width:100px;height:52px;opacity:0.35;""> <br> <br> <p style='font-weight:bold;'>Does the middle word sound more like the first word (A) or the last word (B)?</p> <br> <div class=""container""> <div id=""a-box""> <p class=""title-text"">A</h3></p> </div> <div id=""x-box""> <p class=""title-text"">X<p> </div> <div id=""b-box""> <p class=""title-text"">B</p></div> <br> <div style='float: left;padding-left:30px;'><p>Press '1' for A</p></div><div style='float: right;padding-right:30px;'><p>Press '0' for B</p> </div> </div></div>","null","","","","","","","","","","","","","","","",""
"3509","","test","audio-keyboard-response","185","477146","0.0-9.0-1.77","5f35cc94e0a84d611c36bf80","condC","","resources/audio/wordStim/S3_AI_30_axb_Step-2.wav","49","","","","","","resources/audio/wordStim/S3_AI_30_axb_Step-2.wav","S3","30","axb","2","MI","CN","S3-CN","0","1","false"
"null","","fixation","html-keyboard-response","186","478157","0.0-9.0-0.78","5f35cc94e0a84d611c36bf80","condC","","<div class=""vertical-center"" style='width:60%;'><img src=""resources/images/CN_flag_100x52.jpg"" style=""width:100px;height:52px;opacity:0.35;""> <br> <br> <p style='font-weight:bold;'>Does the middle word sound more like the first word (A) or the last word (B)?</p> <br> <div class=""container""> <div id=""a-box""> <p class=""title-text"">A</h3></p> </div> <div id=""x-box""> <p class=""title-text"">X<p> </div> <div id=""b-box""> <p class=""title-text"">B</p></div> <br> <div style='float: left;padding-left:30px;'><p>Press '1' for A</p></div><div style='float: right;padding-right:30px;'><p>Press '0' for B</p> </div> </div></div>","null","","","","","","","","","","","","","","","",""
"3760","","test","audio-keyboard-response","187","481919","0.0-9.0-1.78","5f35cc94e0a84d611c36bf80","condC","","resources/audio/wordStim/S3_AU_18_axb_Step-5.wav","49","","","","","","resources/audio/wordStim/S3_AU_18_axb_Step-5.wav","S3","18","axb","5","MI","CN","S3-CN","0","1","false"
"null","","fixation","html-keyboard-response","188","482938","0.0-9.0-0.79","5f35cc94e0a84d611c36bf80","condC","","<div class=""vertical-center"" style='width:60%;'><img src=""resources/images/CN_flag_100x52.jpg"" style=""width:100px;height:52px;opacity:0.35;""> <br> <br> <p style='font-weight:bold;'>Does the middle word sound more like the first word (A) or the last word (B)?</p> <br> <div class=""container""> <div id=""a-box""> <p class=""title-text"">A</h3></p> </div> <div id=""x-box""> <p class=""title-text"">X<p> </div> <div id=""b-box""> <p class=""title-text"">B</p></div> <br> <div style='float: left;padding-left:30px;'><p>Press '1' for A</p></div><div style='float: right;padding-right:30px;'><p>Press '0' for B</p> </div> </div></div>","null","","","","","","","","","","","","","","","",""
"2861","","test","audio-keyboard-response","189","485794","0.0-9.0-1.79","5f35cc94e0a84d611c36bf80","condC","","resources/audio/wordStim/S3_AI_21_axb_Step-2.wav","49","","","","","","resources/audio/wordStim/S3_AI_21_axb_Step-2.wav","S3","21","axb","2","MI","CN","S3-CN","0","1","false"
"null","","fixation","html-keyboard-response","190","486808","0.0-9.0-0.80","5f35cc94e0a84d611c36bf80","condC","","<div class=""vertical-center"" style='width:60%;'><img src=""resources/images/CN_flag_100x52.jpg"" style=""width:100px;height:52px;opacity:0.35;""> <br> <br> <p style='font-weight:bold;'>Does the middle word sound more like the first word (A) or the last word (B)?</p> <br> <div class=""container""> <div id=""a-box""> <p class=""title-text"">A</h3></p> </div> <div id=""x-box""> <p class=""title-text"">X<p> </div> <div id=""b-box""> <p class=""title-text"">B</p></div> <br> <div style='float: left;padding-left:30px;'><p>Press '1' for A</p></div><div style='float: right;padding-right:30px;'><p>Press '0' for B</p> </div> </div></div>","null","","","","","","","","","","","","","","","",""
"3749","","test","audio-keyboard-response","191","490556","0.0-9.0-1.80","5f35cc94e0a84d611c36bf80","condC","","resources/audio/wordStim/S3_AI_30_axb_Step-4.wav","49","","","","","","resources/audio/wordStim/S3_AI_30_axb_Step-4.wav","S3","30","axb","4","MI","CN","S3-CN","0","1","false"
"null","","fixation","html-keyboard-response","192","491578","0.0-9.0-0.81","5f35cc94e0a84d611c36bf80","condC","","<div class=""vertical-center"" style='width:60%;'><img src=""resources/images/CN_flag_100x52.jpg"" style=""width:100px;height:52px;opacity:0.35;""> <br> <br> <p style='font-weight:bold;'>Does the middle word sound more like the first word (A) or the last word (B)?</p> <br> <div class=""container""> <div id=""a-box""> <p class=""title-text"">A</h3></p> </div> <div id=""x-box""> <p class=""title-text"">X<p> </div> <div id=""b-box""> <p class=""title-text"">B</p></div> <br> <div style='float: left;padding-left:30px;'><p>Press '1' for A</p></div><div style='float: right;padding-right:30px;'><p>Press '0' for B</p> </div> </div></div>","null","","","","","","","","","","","","","","","",""
"4221","","test","audio-keyboard-response","193","495801","0.0-9.0-1.81","5f35cc94e0a84d611c36bf80","condC","","resources/audio/wordStim/S3_AI_22_axb_Step-4.wav","48","","","","","","resources/audio/wordStim/S3_AI_22_axb_Step-4.wav","S3","22","axb","4","MI","CN","S3-CN","0","0","true"
