"rt","url","trial_role","trial_type","trial_index","time_elapsed","internal_node_id","participantId","conditionId","view_history","stimulus","key_press","button_pressed","correct_answer","correct_response","success","vowel","wordStim","speaker","sentNum","order","step","speakerIdentity","speakerGuise","guiseName","raised_answer","key_response","raised_response"
"8970.830000000205","micr.axb.consent.html","consent","external-html","0","9035","0.0-0.0","5fc511c32b9bc60bc189b893","condE","","","","","","","","","","","","","","","","","","",""
"58635.04000000103","","instructions","instructions","1","67674","0.0-1.0","5fc511c32b9bc60bc189b893","condE","[{""page_index"":0,""viewing_time"":25240.900000000693},{""page_index"":1,""viewing_time"":16986.375000000407},{""page_index"":2,""viewing_time"":16406.629999999495}]","","","","","","","","","","","","","","","","","",""
"null","","fixation","html-keyboard-response","2","68176","0.0-2.0-0.0-0.0","5fc511c32b9bc60bc189b893","condE","","<div class=""vertical-center"" style=""font-size:60px;"">+</div>","null","","","","","","","","","","","","","","","",""
"4879.235000000335","","tonetest","audio-button-response","3","73068","0.0-2.0-0.0-1.0","5fc511c32b9bc60bc189b893","condE","","../../src/audio/toneTest_1.wav","","2","2","true","","","","","","","","","","","","",""
"null","","fixation","html-keyboard-response","4","73571","0.0-2.0-0.0-0.1","5fc511c32b9bc60bc189b893","condE","","<div class=""vertical-center"" style=""font-size:60px;"">+</div>","null","","","","","","","","","","","","","","","",""
"3782.434999999168","","tonetest","audio-button-response","5","77355","0.0-2.0-0.0-1.1","5fc511c32b9bc60bc189b893","condE","","../../src/audio/toneTest_4.wav","","1","1","true","","","","","","","","","","","","",""
"null","","fixation","html-keyboard-response","6","77857","0.0-2.0-0.0-0.2","5fc511c32b9bc60bc189b893","condE","","<div class=""vertical-center"" style=""font-size:60px;"">+</div>","null","","","","","","","","","","","","","","","",""
"4076.504999999088","","tonetest","audio-button-response","7","81939","0.0-2.0-0.0-1.2","5fc511c32b9bc60bc189b893","condE","","../../src/audio/toneTest_6.wav","","0","0","true","","","","","","","","","","","","",""
"null","","fixation","html-keyboard-response","8","82440","0.0-2.0-0.0-0.3","5fc511c32b9bc60bc189b893","condE","","<div class=""vertical-center"" style=""font-size:60px;"">+</div>","null","","","","","","","","","","","","","","","",""
"4449.805000000197","","tonetest","audio-button-response","9","86892","0.0-2.0-0.0-1.3","5fc511c32b9bc60bc189b893","condE","","../../src/audio/toneTest_4.wav","","1","1","true","","","","","","","","","","","","",""
"null","","fixation","html-keyboard-response","10","87393","0.0-2.0-0.0-0.4","5fc511c32b9bc60bc189b893","condE","","<div class=""vertical-center"" style=""font-size:60px;"">+</div>","null","","","","","","","","","","","","","","","",""
"4175.83999999988","","tonetest","audio-button-response","11","91571","0.0-2.0-0.0-1.4","5fc511c32b9bc60bc189b893","condE","","../../src/audio/toneTest_6.wav","","0","0","true","","","","","","","","","","","","",""
"null","","fixation","html-keyboard-response","12","92074","0.0-2.0-0.0-0.5","5fc511c32b9bc60bc189b893","condE","","<div class=""vertical-center"" style=""font-size:60px;"">+</div>","null","","","","","","","","","","","","","","","",""
"4508.504999999786","","tonetest","audio-button-response","13","96585","0.0-2.0-0.0-1.5","5fc511c32b9bc60bc189b893","condE","","../../src/audio/toneTest_2.wav","","1","1","true","","","","","","","","","","","","",""
"5876.964999999473","","instructions","html-keyboard-response","14","102464","0.0-2.0-1.0-0.0","5fc511c32b9bc60bc189b893","condE","","<div class=""vertical-center""><p><b>Your score was 6/6.</b></p><p>If you scored below 5, please ensure that you are wearing properly functioning headphones and in a quiet location free of distractions. Then, press SPACE to repeat the audio test. </p><p><i>If you scored 5 or above, press SPACE to continue to the main experiment.</i></p></div>","32","","","","","","","","","","","","","","","",""
"","","","fullscreen","15","107516","0.0-3.0","5fc511c32b9bc60bc189b893","condE","","","","","","","true","","","","","","","","","","","",""
"33722.864999999714","","instructions","instructions","16","141240","0.0-4.0","5fc511c32b9bc60bc189b893","condE","[{""page_index"":0,""viewing_time"":33722.714999999866}]","","","","","","","","","","","","","","","","","",""
"null","","fixation","html-keyboard-response","17","141742","0.0-5.0-0.0","5fc511c32b9bc60bc189b893","condE","","<div class=""vertical-center"" style='width:60%;'><p style='font-weight:bold;'>Does the middle word sound more like the first word (A) or the last word (B)?</p> <br> <div class=""container""> <div id=""a-box""> <p class=""title-text"">A</h3></p> </div> <div id=""x-box""> <p class=""title-text"">X<p> </div> <div id=""b-box""> <p class=""title-text"">B</p></div> <br> <div style='float: left;padding-left:30px;'><p>Press '1' for A</p></div><div style='float: right;padding-right:30px;'><p>Press '0' for B</p> </div> </div></div>","null","","","","","","","","","","","","","","","",""
"10077","","practice","audio-keyboard-response","18","151922","0.0-5.0-1.0","5fc511c32b9bc60bc189b893","condE","","resources/audio/practiceStim/S1_AI_21_bxa_Step-6.wav","49","","","","","","","","","","","","","","","",""
"null","","fixation","html-keyboard-response","19","152927","0.0-5.0-0.1","5fc511c32b9bc60bc189b893","condE","","<div class=""vertical-center"" style='width:60%;'><p style='font-weight:bold;'>Does the middle word sound more like the first word (A) or the last word (B)?</p> <br> <div class=""container""> <div id=""a-box""> <p class=""title-text"">A</h3></p> </div> <div id=""x-box""> <p class=""title-text"">X<p> </div> <div id=""b-box""> <p class=""title-text"">B</p></div> <br> <div style='float: left;padding-left:30px;'><p>Press '1' for A</p></div><div style='float: right;padding-right:30px;'><p>Press '0' for B</p> </div> </div></div>","null","","","","","","","","","","","","","","","",""
"3767","","practice","audio-keyboard-response","20","156697","0.0-5.0-1.1","5fc511c32b9bc60bc189b893","condE","","resources/audio/practiceStim/S1_AU_14_axb_Step-6.wav","48","","","","","","","","","","","","","","","",""
"null","","fixation","html-keyboard-response","21","157700","0.0-5.0-0.2","5fc511c32b9bc60bc189b893","condE","","<div class=""vertical-center"" style='width:60%;'><p style='font-weight:bold;'>Does the middle word sound more like the first word (A) or the last word (B)?</p> <br> <div class=""container""> <div id=""a-box""> <p class=""title-text"">A</h3></p> </div> <div id=""x-box""> <p class=""title-text"">X<p> </div> <div id=""b-box""> <p class=""title-text"">B</p></div> <br> <div style='float: left;padding-left:30px;'><p>Press '1' for A</p></div><div style='float: right;padding-right:30px;'><p>Press '0' for B</p> </div> </div></div>","null","","","","","","","","","","","","","","","",""
"5050","","practice","audio-keyboard-response","22","162751","0.0-5.0-1.2","5fc511c32b9bc60bc189b893","condE","","resources/audio/practiceStim/S1_AI_21_axb_Step-6.wav","49","","","","","","","","","","","","","","","",""
"null","","fixation","html-keyboard-response","23","163757","0.0-5.0-0.3","5fc511c32b9bc60bc189b893","condE","","<div class=""vertical-center"" style='width:60%;'><p style='font-weight:bold;'>Does the middle word sound more like the first word (A) or the last word (B)?</p> <br> <div class=""container""> <div id=""a-box""> <p class=""title-text"">A</h3></p> </div> <div id=""x-box""> <p class=""title-text"">X<p> </div> <div id=""b-box""> <p class=""title-text"">B</p></div> <br> <div style='float: left;padding-left:30px;'><p>Press '1' for A</p></div><div style='float: right;padding-right:30px;'><p>Press '0' for B</p> </div> </div></div>","null","","","","","","","","","","","","","","","",""
"3280","","practice","audio-keyboard-response","24","167039","0.0-5.0-1.3","5fc511c32b9bc60bc189b893","condE","","resources/audio/practiceStim/S1_AU_14_bxa_Step-6.wav","49","","","","","","","","","","","","","","","",""
"2490.2949999996054","","instructions","instructions","25","170034","0.0-6.0","5fc511c32b9bc60bc189b893","condE","[{""page_index"":0,""viewing_time"":2490.0099999995437}]","","","","","","","","","","","","","","","","","",""
"3175.880000000703","","","html-keyboard-response","26","173214","0.0-7.0","5fc511c32b9bc60bc189b893","condE","","<div class=""vertical-center""><img src=""resources/images/BL_face_a.png"" style=""width:450px;height:300px;""><p>This is the speaker you're about to hear.</p><p> <br> <i>Press SPACE to continue.</i></p></div>","32","","","","","","","","","","","","","","","",""
"null","","fixation","html-keyboard-response","27","173717","0.0-8.0-0.0","5fc511c32b9bc60bc189b893","condE","","<div class=""vertical-center"" style='width:60%;'><p style='font-weight:bold;'>Does the middle word sound more like the first word (A) or the last word (B)?</p> <br> <div class=""container""> <div id=""a-box""> <p class=""title-text"">A</h3></p> </div> <div id=""x-box""> <p class=""title-text"">X<p> </div> <div id=""b-box""> <p class=""title-text"">B</p></div> <br> <div style='float: left;padding-left:30px;'><p>Press '1' for A</p></div><div style='float: right;padding-right:30px;'><p>Press '0' for B</p> </div> </div></div>","null","","","","","","","","","","","","","","","",""
"6838","","test","audio-keyboard-response","28","180557","0.0-8.0-1.0","5fc511c32b9bc60bc189b893","condE","","resources/audio/wordStim/S3_AU_18_bxa_Step-6.wav","49","","","","","","resources/audio/wordStim/S3_AU_18_bxa_Step-6.wav","S3","18","bxa","6","MI","BL","S3-BL","1","1","true"
"null","","fixation","html-keyboard-response","29","181562","0.0-8.0-0.1","5fc511c32b9bc60bc189b893","condE","","<div class=""vertical-center"" style='width:60%;'><p style='font-weight:bold;'>Does the middle word sound more like the first word (A) or the last word (B)?</p> <br> <div class=""container""> <div id=""a-box""> <p class=""title-text"">A</h3></p> </div> <div id=""x-box""> <p class=""title-text"">X<p> </div> <div id=""b-box""> <p class=""title-text"">B</p></div> <br> <div style='float: left;padding-left:30px;'><p>Press '1' for A</p></div><div style='float: right;padding-right:30px;'><p>Press '0' for B</p> </div> </div></div>","null","","","","","","","","","","","","","","","",""
"6275","","test","audio-keyboard-response","30","187839","0.0-8.0-1.1","5fc511c32b9bc60bc189b893","condE","","resources/audio/wordStim/S3_AU_18_axb_Step-7.wav","48","","","","","","resources/audio/wordStim/S3_AU_18_axb_Step-7.wav","S3","18","axb","7","MI","BL","S3-BL","0","0","true"
"null","","fixation","html-keyboard-response","31","188844","0.0-8.0-0.2","5fc511c32b9bc60bc189b893","condE","","<div class=""vertical-center"" style='width:60%;'><p style='font-weight:bold;'>Does the middle word sound more like the first word (A) or the last word (B)?</p> <br> <div class=""container""> <div id=""a-box""> <p class=""title-text"">A</h3></p> </div> <div id=""x-box""> <p class=""title-text"">X<p> </div> <div id=""b-box""> <p class=""title-text"">B</p></div> <br> <div style='float: left;padding-left:30px;'><p>Press '1' for A</p></div><div style='float: right;padding-right:30px;'><p>Press '0' for B</p> </div> </div></div>","null","","","","","","","","","","","","","","","",""
"3831","","test","audio-keyboard-response","32","192675","0.0-8.0-1.2","5fc511c32b9bc60bc189b893","condE","","resources/audio/wordStim/S3_AI_30_bxa_Step-8.wav","49","","","","","","resources/audio/wordStim/S3_AI_30_bxa_Step-8.wav","S3","30","bxa","8","MI","BL","S3-BL","1","1","true"
"null","","fixation","html-keyboard-response","33","193678","0.0-8.0-0.3","5fc511c32b9bc60bc189b893","condE","","<div class=""vertical-center"" style='width:60%;'><p style='font-weight:bold;'>Does the middle word sound more like the first word (A) or the last word (B)?</p> <br> <div class=""container""> <div id=""a-box""> <p class=""title-text"">A</h3></p> </div> <div id=""x-box""> <p class=""title-text"">X<p> </div> <div id=""b-box""> <p class=""title-text"">B</p></div> <br> <div style='float: left;padding-left:30px;'><p>Press '1' for A</p></div><div style='float: right;padding-right:30px;'><p>Press '0' for B</p> </div> </div></div>","null","","","","","","","","","","","","","","","",""
"3634","","test","audio-keyboard-response","34","197316","0.0-8.0-1.3","5fc511c32b9bc60bc189b893","condE","","resources/audio/wordStim/S3_AI_22_axb_Step-4.wav","48","","","","","","resources/audio/wordStim/S3_AI_22_axb_Step-4.wav","S3","22","axb","4","MI","BL","S3-BL","0","0","true"
"null","","fixation","html-keyboard-response","35","198319","0.0-8.0-0.4","5fc511c32b9bc60bc189b893","condE","","<div class=""vertical-center"" style='width:60%;'><p style='font-weight:bold;'>Does the middle word sound more like the first word (A) or the last word (B)?</p> <br> <div class=""container""> <div id=""a-box""> <p class=""title-text"">A</h3></p> </div> <div id=""x-box""> <p class=""title-text"">X<p> </div> <div id=""b-box""> <p class=""title-text"">B</p></div> <br> <div style='float: left;padding-left:30px;'><p>Press '1' for A</p></div><div style='float: right;padding-right:30px;'><p>Press '0' for B</p> </div> </div></div>","null","","","","","","","","","","","","","","","",""
"5880","","test","audio-keyboard-response","36","204201","0.0-8.0-1.4","5fc511c32b9bc60bc189b893","condE","","resources/audio/wordStim/S3_AI_22_axb_Step-8.wav","48","","","","","","resources/audio/wordStim/S3_AI_22_axb_Step-8.wav","S3","22","axb","8","MI","BL","S3-BL","0","0","true"
"null","","fixation","html-keyboard-response","37","205206","0.0-8.0-0.5","5fc511c32b9bc60bc189b893","condE","","<div class=""vertical-center"" style='width:60%;'><p style='font-weight:bold;'>Does the middle word sound more like the first word (A) or the last word (B)?</p> <br> <div class=""container""> <div id=""a-box""> <p class=""title-text"">A</h3></p> </div> <div id=""x-box""> <p class=""title-text"">X<p> </div> <div id=""b-box""> <p class=""title-text"">B</p></div> <br> <div style='float: left;padding-left:30px;'><p>Press '1' for A</p></div><div style='float: right;padding-right:30px;'><p>Press '0' for B</p> </div> </div></div>","null","","","","","","","","","","","","","","","",""
"3315","","test","audio-keyboard-response","38","208525","0.0-8.0-1.5","5fc511c32b9bc60bc189b893","condE","","resources/audio/wordStim/S3_AU_20_axb_Step-2.wav","48","","","","","","resources/audio/wordStim/S3_AU_20_axb_Step-2.wav","S3","20","axb","2","MI","BL","S3-BL","0","0","true"
"null","","fixation","html-keyboard-response","39","209529","0.0-8.0-0.6","5fc511c32b9bc60bc189b893","condE","","<div class=""vertical-center"" style='width:60%;'><p style='font-weight:bold;'>Does the middle word sound more like the first word (A) or the last word (B)?</p> <br> <div class=""container""> <div id=""a-box""> <p class=""title-text"">A</h3></p> </div> <div id=""x-box""> <p class=""title-text"">X<p> </div> <div id=""b-box""> <p class=""title-text"">B</p></div> <br> <div style='float: left;padding-left:30px;'><p>Press '1' for A</p></div><div style='float: right;padding-right:30px;'><p>Press '0' for B</p> </div> </div></div>","null","","","","","","","","","","","","","","","",""
"4551","","test","audio-keyboard-response","40","214079","0.0-8.0-1.6","5fc511c32b9bc60bc189b893","condE","","resources/audio/wordStim/S3_AU_18_axb_Step-2.wav","48","","","","","","resources/audio/wordStim/S3_AU_18_axb_Step-2.wav","S3","18","axb","2","MI","BL","S3-BL","0","0","true"
"null","","fixation","html-keyboard-response","41","215085","0.0-8.0-0.7","5fc511c32b9bc60bc189b893","condE","","<div class=""vertical-center"" style='width:60%;'><p style='font-weight:bold;'>Does the middle word sound more like the first word (A) or the last word (B)?</p> <br> <div class=""container""> <div id=""a-box""> <p class=""title-text"">A</h3></p> </div> <div id=""x-box""> <p class=""title-text"">X<p> </div> <div id=""b-box""> <p class=""title-text"">B</p></div> <br> <div style='float: left;padding-left:30px;'><p>Press '1' for A</p></div><div style='float: right;padding-right:30px;'><p>Press '0' for B</p> </div> </div></div>","null","","","","","","","","","","","","","","","",""
"3564","","test","audio-keyboard-response","42","218647","0.0-8.0-1.7","5fc511c32b9bc60bc189b893","condE","","resources/audio/wordStim/S3_AI_22_axb_Step-5.wav","48","","","","","","resources/audio/wordStim/S3_AI_22_axb_Step-5.wav","S3","22","axb","5","MI","BL","S3-BL","0","0","true"
"null","","fixation","html-keyboard-response","43","219653","0.0-8.0-0.8","5fc511c32b9bc60bc189b893","condE","","<div class=""vertical-center"" style='width:60%;'><p style='font-weight:bold;'>Does the middle word sound more like the first word (A) or the last word (B)?</p> <br> <div class=""container""> <div id=""a-box""> <p class=""title-text"">A</h3></p> </div> <div id=""x-box""> <p class=""title-text"">X<p> </div> <div id=""b-box""> <p class=""title-text"">B</p></div> <br> <div style='float: left;padding-left:30px;'><p>Press '1' for A</p></div><div style='float: right;padding-right:30px;'><p>Press '0' for B</p> </div> </div></div>","null","","","","","","","","","","","","","","","",""
"4400","","test","audio-keyboard-response","44","224053","0.0-8.0-1.8","5fc511c32b9bc60bc189b893","condE","","resources/audio/wordStim/S3_AU_18_axb_Step-4.wav","49","","","","","","resources/audio/wordStim/S3_AU_18_axb_Step-4.wav","S3","18","axb","4","MI","BL","S3-BL","0","1","false"
"null","","fixation","html-keyboard-response","45","225059","0.0-8.0-0.9","5fc511c32b9bc60bc189b893","condE","","<div class=""vertical-center"" style='width:60%;'><p style='font-weight:bold;'>Does the middle word sound more like the first word (A) or the last word (B)?</p> <br> <div class=""container""> <div id=""a-box""> <p class=""title-text"">A</h3></p> </div> <div id=""x-box""> <p class=""title-text"">X<p> </div> <div id=""b-box""> <p class=""title-text"">B</p></div> <br> <div style='float: left;padding-left:30px;'><p>Press '1' for A</p></div><div style='float: right;padding-right:30px;'><p>Press '0' for B</p> </div> </div></div>","null","","","","","","","","","","","","","","","",""
"3419","","test","audio-keyboard-response","46","228479","0.0-8.0-1.9","5fc511c32b9bc60bc189b893","condE","","resources/audio/wordStim/S3_AU_19_bxa_Step-4.wav","48","","","","","","resources/audio/wordStim/S3_AU_19_bxa_Step-4.wav","S3","19","bxa","4","MI","BL","S3-BL","1","0","false"
"null","","fixation","html-keyboard-response","47","229484","0.0-8.0-0.10","5fc511c32b9bc60bc189b893","condE","","<div class=""vertical-center"" style='width:60%;'><p style='font-weight:bold;'>Does the middle word sound more like the first word (A) or the last word (B)?</p> <br> <div class=""container""> <div id=""a-box""> <p class=""title-text"">A</h3></p> </div> <div id=""x-box""> <p class=""title-text"">X<p> </div> <div id=""b-box""> <p class=""title-text"">B</p></div> <br> <div style='float: left;padding-left:30px;'><p>Press '1' for A</p></div><div style='float: right;padding-right:30px;'><p>Press '0' for B</p> </div> </div></div>","null","","","","","","","","","","","","","","","",""
"4592","","test","audio-keyboard-response","48","234081","0.0-8.0-1.10","5fc511c32b9bc60bc189b893","condE","","resources/audio/wordStim/S3_AI_21_axb_Step-3.wav","49","","","","","","resources/audio/wordStim/S3_AI_21_axb_Step-3.wav","S3","21","axb","3","MI","BL","S3-BL","0","1","false"
"null","","fixation","html-keyboard-response","49","235088","0.0-8.0-0.11","5fc511c32b9bc60bc189b893","condE","","<div class=""vertical-center"" style='width:60%;'><p style='font-weight:bold;'>Does the middle word sound more like the first word (A) or the last word (B)?</p> <br> <div class=""container""> <div id=""a-box""> <p class=""title-text"">A</h3></p> </div> <div id=""x-box""> <p class=""title-text"">X<p> </div> <div id=""b-box""> <p class=""title-text"">B</p></div> <br> <div style='float: left;padding-left:30px;'><p>Press '1' for A</p></div><div style='float: right;padding-right:30px;'><p>Press '0' for B</p> </div> </div></div>","null","","","","","","","","","","","","","","","",""
"4870","","test","audio-keyboard-response","50","239961","0.0-8.0-1.11","5fc511c32b9bc60bc189b893","condE","","resources/audio/wordStim/S3_AI_30_axb_Step-7.wav","49","","","","","","resources/audio/wordStim/S3_AI_30_axb_Step-7.wav","S3","30","axb","7","MI","BL","S3-BL","0","1","false"
"null","","fixation","html-keyboard-response","51","240966","0.0-8.0-0.12","5fc511c32b9bc60bc189b893","condE","","<div class=""vertical-center"" style='width:60%;'><p style='font-weight:bold;'>Does the middle word sound more like the first word (A) or the last word (B)?</p> <br> <div class=""container""> <div id=""a-box""> <p class=""title-text"">A</h3></p> </div> <div id=""x-box""> <p class=""title-text"">X<p> </div> <div id=""b-box""> <p class=""title-text"">B</p></div> <br> <div style='float: left;padding-left:30px;'><p>Press '1' for A</p></div><div style='float: right;padding-right:30px;'><p>Press '0' for B</p> </div> </div></div>","null","","","","","","","","","","","","","","","",""
"4029","","test","audio-keyboard-response","52","244998","0.0-8.0-1.12","5fc511c32b9bc60bc189b893","condE","","resources/audio/wordStim/S3_AU_18_bxa_Step-3.wav","48","","","","","","resources/audio/wordStim/S3_AU_18_bxa_Step-3.wav","S3","18","bxa","3","MI","BL","S3-BL","1","0","false"
"null","","fixation","html-keyboard-response","53","246000","0.0-8.0-0.13","5fc511c32b9bc60bc189b893","condE","","<div class=""vertical-center"" style='width:60%;'><p style='font-weight:bold;'>Does the middle word sound more like the first word (A) or the last word (B)?</p> <br> <div class=""container""> <div id=""a-box""> <p class=""title-text"">A</h3></p> </div> <div id=""x-box""> <p class=""title-text"">X<p> </div> <div id=""b-box""> <p class=""title-text"">B</p></div> <br> <div style='float: left;padding-left:30px;'><p>Press '1' for A</p></div><div style='float: right;padding-right:30px;'><p>Press '0' for B</p> </div> </div></div>","null","","","","","","","","","","","","","","","",""
"3692","","test","audio-keyboard-response","54","249697","0.0-8.0-1.13","5fc511c32b9bc60bc189b893","condE","","resources/audio/wordStim/S3_AI_21_bxa_Step-8.wav","48","","","","","","resources/audio/wordStim/S3_AI_21_bxa_Step-8.wav","S3","21","bxa","8","MI","BL","S3-BL","1","0","false"
"null","","fixation","html-keyboard-response","55","250704","0.0-8.0-0.14","5fc511c32b9bc60bc189b893","condE","","<div class=""vertical-center"" style='width:60%;'><p style='font-weight:bold;'>Does the middle word sound more like the first word (A) or the last word (B)?</p> <br> <div class=""container""> <div id=""a-box""> <p class=""title-text"">A</h3></p> </div> <div id=""x-box""> <p class=""title-text"">X<p> </div> <div id=""b-box""> <p class=""title-text"">B</p></div> <br> <div style='float: left;padding-left:30px;'><p>Press '1' for A</p></div><div style='float: right;padding-right:30px;'><p>Press '0' for B</p> </div> </div></div>","null","","","","","","","","","","","","","","","",""
"3971","","test","audio-keyboard-response","56","254676","0.0-8.0-1.14","5fc511c32b9bc60bc189b893","condE","","resources/audio/wordStim/S3_AI_22_bxa_Step-2.wav","49","","","","","","resources/audio/wordStim/S3_AI_22_bxa_Step-2.wav","S3","22","bxa","2","MI","BL","S3-BL","1","1","true"
"null","","fixation","html-keyboard-response","57","255680","0.0-8.0-0.15","5fc511c32b9bc60bc189b893","condE","","<div class=""vertical-center"" style='width:60%;'><p style='font-weight:bold;'>Does the middle word sound more like the first word (A) or the last word (B)?</p> <br> <div class=""container""> <div id=""a-box""> <p class=""title-text"">A</h3></p> </div> <div id=""x-box""> <p class=""title-text"">X<p> </div> <div id=""b-box""> <p class=""title-text"">B</p></div> <br> <div style='float: left;padding-left:30px;'><p>Press '1' for A</p></div><div style='float: right;padding-right:30px;'><p>Press '0' for B</p> </div> </div></div>","null","","","","","","","","","","","","","","","",""
"5016","","test","audio-keyboard-response","58","260695","0.0-8.0-1.15","5fc511c32b9bc60bc189b893","condE","","resources/audio/wordStim/S3_AI_30_bxa_Step-6.wav","48","","","","","","resources/audio/wordStim/S3_AI_30_bxa_Step-6.wav","S3","30","bxa","6","MI","BL","S3-BL","1","0","false"
"null","","fixation","html-keyboard-response","59","261700","0.0-8.0-0.16","5fc511c32b9bc60bc189b893","condE","","<div class=""vertical-center"" style='width:60%;'><p style='font-weight:bold;'>Does the middle word sound more like the first word (A) or the last word (B)?</p> <br> <div class=""container""> <div id=""a-box""> <p class=""title-text"">A</h3></p> </div> <div id=""x-box""> <p class=""title-text"">X<p> </div> <div id=""b-box""> <p class=""title-text"">B</p></div> <br> <div style='float: left;padding-left:30px;'><p>Press '1' for A</p></div><div style='float: right;padding-right:30px;'><p>Press '0' for B</p> </div> </div></div>","null","","","","","","","","","","","","","","","",""
"4185","","test","audio-keyboard-response","60","265883","0.0-8.0-1.16","5fc511c32b9bc60bc189b893","condE","","resources/audio/wordStim/S3_AU_18_bxa_Step-5.wav","49","","","","","","resources/audio/wordStim/S3_AU_18_bxa_Step-5.wav","S3","18","bxa","5","MI","BL","S3-BL","1","1","true"
"null","","fixation","html-keyboard-response","61","266890","0.0-8.0-0.17","5fc511c32b9bc60bc189b893","condE","","<div class=""vertical-center"" style='width:60%;'><p style='font-weight:bold;'>Does the middle word sound more like the first word (A) or the last word (B)?</p> <br> <div class=""container""> <div id=""a-box""> <p class=""title-text"">A</h3></p> </div> <div id=""x-box""> <p class=""title-text"">X<p> </div> <div id=""b-box""> <p class=""title-text"">B</p></div> <br> <div style='float: left;padding-left:30px;'><p>Press '1' for A</p></div><div style='float: right;padding-right:30px;'><p>Press '0' for B</p> </div> </div></div>","null","","","","","","","","","","","","","","","",""
"3199","","test","audio-keyboard-response","62","270090","0.0-8.0-1.17","5fc511c32b9bc60bc189b893","condE","","resources/audio/wordStim/S3_AI_21_axb_Step-6.wav","48","","","","","","resources/audio/wordStim/S3_AI_21_axb_Step-6.wav","S3","21","axb","6","MI","BL","S3-BL","0","0","true"
"null","","fixation","html-keyboard-response","63","271095","0.0-8.0-0.18","5fc511c32b9bc60bc189b893","condE","","<div class=""vertical-center"" style='width:60%;'><p style='font-weight:bold;'>Does the middle word sound more like the first word (A) or the last word (B)?</p> <br> <div class=""container""> <div id=""a-box""> <p class=""title-text"">A</h3></p> </div> <div id=""x-box""> <p class=""title-text"">X<p> </div> <div id=""b-box""> <p class=""title-text"">B</p></div> <br> <div style='float: left;padding-left:30px;'><p>Press '1' for A</p></div><div style='float: right;padding-right:30px;'><p>Press '0' for B</p> </div> </div></div>","null","","","","","","","","","","","","","","","",""
"3553","","test","audio-keyboard-response","64","274651","0.0-8.0-1.18","5fc511c32b9bc60bc189b893","condE","","resources/audio/wordStim/S3_AI_22_bxa_Step-8.wav","48","","","","","","resources/audio/wordStim/S3_AI_22_bxa_Step-8.wav","S3","22","bxa","8","MI","BL","S3-BL","1","0","false"
"null","","fixation","html-keyboard-response","65","275653","0.0-8.0-0.19","5fc511c32b9bc60bc189b893","condE","","<div class=""vertical-center"" style='width:60%;'><p style='font-weight:bold;'>Does the middle word sound more like the first word (A) or the last word (B)?</p> <br> <div class=""container""> <div id=""a-box""> <p class=""title-text"">A</h3></p> </div> <div id=""x-box""> <p class=""title-text"">X<p> </div> <div id=""b-box""> <p class=""title-text"">B</p></div> <br> <div style='float: left;padding-left:30px;'><p>Press '1' for A</p></div><div style='float: right;padding-right:30px;'><p>Press '0' for B</p> </div> </div></div>","null","","","","","","","","","","","","","","","",""
"3495","","test","audio-keyboard-response","66","279151","0.0-8.0-1.19","5fc511c32b9bc60bc189b893","condE","","resources/audio/wordStim/S3_AI_22_bxa_Step-4.wav","48","","","","","","resources/audio/wordStim/S3_AI_22_bxa_Step-4.wav","S3","22","bxa","4","MI","BL","S3-BL","1","0","false"
"null","","fixation","html-keyboard-response","67","280154","0.0-8.0-0.20","5fc511c32b9bc60bc189b893","condE","","<div class=""vertical-center"" style='width:60%;'><p style='font-weight:bold;'>Does the middle word sound more like the first word (A) or the last word (B)?</p> <br> <div class=""container""> <div id=""a-box""> <p class=""title-text"">A</h3></p> </div> <div id=""x-box""> <p class=""title-text"">X<p> </div> <div id=""b-box""> <p class=""title-text"">B</p></div> <br> <div style='float: left;padding-left:30px;'><p>Press '1' for A</p></div><div style='float: right;padding-right:30px;'><p>Press '0' for B</p> </div> </div></div>","null","","","","","","","","","","","","","","","",""
"2984","","test","audio-keyboard-response","68","283140","0.0-8.0-1.20","5fc511c32b9bc60bc189b893","condE","","resources/audio/wordStim/S3_AU_20_bxa_Step-8.wav","49","","","","","","resources/audio/wordStim/S3_AU_20_bxa_Step-8.wav","S3","20","bxa","8","MI","BL","S3-BL","1","1","true"
"1465.0750000000698","","break","html-keyboard-response","69","285106","0.0-8.0-2.20-0.20","5fc511c32b9bc60bc189b893","condE","","<div class=""vertical-center""><p>Feel free to take a break!</p><i>When you're ready to continue, press SPACE to begin the next trial.</i></p></div>","32","","","","","","","","","","","","","","","",""
"null","","fixation","html-keyboard-response","70","285609","0.0-8.0-0.21","5fc511c32b9bc60bc189b893","condE","","<div class=""vertical-center"" style='width:60%;'><p style='font-weight:bold;'>Does the middle word sound more like the first word (A) or the last word (B)?</p> <br> <div class=""container""> <div id=""a-box""> <p class=""title-text"">A</h3></p> </div> <div id=""x-box""> <p class=""title-text"">X<p> </div> <div id=""b-box""> <p class=""title-text"">B</p></div> <br> <div style='float: left;padding-left:30px;'><p>Press '1' for A</p></div><div style='float: right;padding-right:30px;'><p>Press '0' for B</p> </div> </div></div>","null","","","","","","","","","","","","","","","",""
"5857","","test","audio-keyboard-response","71","291469","0.0-8.0-1.21","5fc511c32b9bc60bc189b893","condE","","resources/audio/wordStim/S3_AU_20_axb_Step-5.wav","49","","","","","","resources/audio/wordStim/S3_AU_20_axb_Step-5.wav","S3","20","axb","5","MI","BL","S3-BL","0","1","false"
"null","","fixation","html-keyboard-response","72","292473","0.0-8.0-0.22","5fc511c32b9bc60bc189b893","condE","","<div class=""vertical-center"" style='width:60%;'><p style='font-weight:bold;'>Does the middle word sound more like the first word (A) or the last word (B)?</p> <br> <div class=""container""> <div id=""a-box""> <p class=""title-text"">A</h3></p> </div> <div id=""x-box""> <p class=""title-text"">X<p> </div> <div id=""b-box""> <p class=""title-text"">B</p></div> <br> <div style='float: left;padding-left:30px;'><p>Press '1' for A</p></div><div style='float: right;padding-right:30px;'><p>Press '0' for B</p> </div> </div></div>","null","","","","","","","","","","","","","","","",""
"3500","","test","audio-keyboard-response","73","295975","0.0-8.0-1.22","5fc511c32b9bc60bc189b893","condE","","resources/audio/wordStim/S3_AU_20_bxa_Step-5.wav","49","","","","","","resources/audio/wordStim/S3_AU_20_bxa_Step-5.wav","S3","20","bxa","5","MI","BL","S3-BL","1","1","true"
"null","","fixation","html-keyboard-response","74","296980","0.0-8.0-0.23","5fc511c32b9bc60bc189b893","condE","","<div class=""vertical-center"" style='width:60%;'><p style='font-weight:bold;'>Does the middle word sound more like the first word (A) or the last word (B)?</p> <br> <div class=""container""> <div id=""a-box""> <p class=""title-text"">A</h3></p> </div> <div id=""x-box""> <p class=""title-text"">X<p> </div> <div id=""b-box""> <p class=""title-text"">B</p></div> <br> <div style='float: left;padding-left:30px;'><p>Press '1' for A</p></div><div style='float: right;padding-right:30px;'><p>Press '0' for B</p> </div> </div></div>","null","","","","","","","","","","","","","","","",""
"3129","","test","audio-keyboard-response","75","300115","0.0-8.0-1.23","5fc511c32b9bc60bc189b893","condE","","resources/audio/wordStim/S3_AU_20_bxa_Step-3.wav","48","","","","","","resources/audio/wordStim/S3_AU_20_bxa_Step-3.wav","S3","20","bxa","3","MI","BL","S3-BL","1","0","false"
"null","","fixation","html-keyboard-response","76","301119","0.0-8.0-0.24","5fc511c32b9bc60bc189b893","condE","","<div class=""vertical-center"" style='width:60%;'><p style='font-weight:bold;'>Does the middle word sound more like the first word (A) or the last word (B)?</p> <br> <div class=""container""> <div id=""a-box""> <p class=""title-text"">A</h3></p> </div> <div id=""x-box""> <p class=""title-text"">X<p> </div> <div id=""b-box""> <p class=""title-text"">B</p></div> <br> <div style='float: left;padding-left:30px;'><p>Press '1' for A</p></div><div style='float: right;padding-right:30px;'><p>Press '0' for B</p> </div> </div></div>","null","","","","","","","","","","","","","","","",""
"3860","","test","audio-keyboard-response","77","304983","0.0-8.0-1.24","5fc511c32b9bc60bc189b893","condE","","resources/audio/wordStim/S3_AI_30_bxa_Step-2.wav","48","","","","","","resources/audio/wordStim/S3_AI_30_bxa_Step-2.wav","S3","30","bxa","2","MI","BL","S3-BL","1","0","false"
"null","","fixation","html-keyboard-response","78","305986","0.0-8.0-0.25","5fc511c32b9bc60bc189b893","condE","","<div class=""vertical-center"" style='width:60%;'><p style='font-weight:bold;'>Does the middle word sound more like the first word (A) or the last word (B)?</p> <br> <div class=""container""> <div id=""a-box""> <p class=""title-text"">A</h3></p> </div> <div id=""x-box""> <p class=""title-text"">X<p> </div> <div id=""b-box""> <p class=""title-text"">B</p></div> <br> <div style='float: left;padding-left:30px;'><p>Press '1' for A</p></div><div style='float: right;padding-right:30px;'><p>Press '0' for B</p> </div> </div></div>","null","","","","","","","","","","","","","","","",""
"3779","","test","audio-keyboard-response","79","309768","0.0-8.0-1.25","5fc511c32b9bc60bc189b893","condE","","resources/audio/wordStim/S3_AI_22_axb_Step-2.wav","48","","","","","","resources/audio/wordStim/S3_AI_22_axb_Step-2.wav","S3","22","axb","2","MI","BL","S3-BL","0","0","true"
"null","","fixation","html-keyboard-response","80","310773","0.0-8.0-0.26","5fc511c32b9bc60bc189b893","condE","","<div class=""vertical-center"" style='width:60%;'><p style='font-weight:bold;'>Does the middle word sound more like the first word (A) or the last word (B)?</p> <br> <div class=""container""> <div id=""a-box""> <p class=""title-text"">A</h3></p> </div> <div id=""x-box""> <p class=""title-text"">X<p> </div> <div id=""b-box""> <p class=""title-text"">B</p></div> <br> <div style='float: left;padding-left:30px;'><p>Press '1' for A</p></div><div style='float: right;padding-right:30px;'><p>Press '0' for B</p> </div> </div></div>","null","","","","","","","","","","","","","","","",""
"3466","","test","audio-keyboard-response","81","314241","0.0-8.0-1.26","5fc511c32b9bc60bc189b893","condE","","resources/audio/wordStim/S3_AU_20_axb_Step-8.wav","48","","","","","","resources/audio/wordStim/S3_AU_20_axb_Step-8.wav","S3","20","axb","8","MI","BL","S3-BL","0","0","true"
"null","","fixation","html-keyboard-response","82","315244","0.0-8.0-0.27","5fc511c32b9bc60bc189b893","condE","","<div class=""vertical-center"" style='width:60%;'><p style='font-weight:bold;'>Does the middle word sound more like the first word (A) or the last word (B)?</p> <br> <div class=""container""> <div id=""a-box""> <p class=""title-text"">A</h3></p> </div> <div id=""x-box""> <p class=""title-text"">X<p> </div> <div id=""b-box""> <p class=""title-text"">B</p></div> <br> <div style='float: left;padding-left:30px;'><p>Press '1' for A</p></div><div style='float: right;padding-right:30px;'><p>Press '0' for B</p> </div> </div></div>","null","","","","","","","","","","","","","","","",""
"3338","","test","audio-keyboard-response","83","318587","0.0-8.0-1.27","5fc511c32b9bc60bc189b893","condE","","resources/audio/wordStim/S3_AI_30_axb_Step-2.wav","48","","","","","","resources/audio/wordStim/S3_AI_30_axb_Step-2.wav","S3","30","axb","2","MI","BL","S3-BL","0","0","true"
"null","","fixation","html-keyboard-response","84","319594","0.0-8.0-0.28","5fc511c32b9bc60bc189b893","condE","","<div class=""vertical-center"" style='width:60%;'><p style='font-weight:bold;'>Does the middle word sound more like the first word (A) or the last word (B)?</p> <br> <div class=""container""> <div id=""a-box""> <p class=""title-text"">A</h3></p> </div> <div id=""x-box""> <p class=""title-text"">X<p> </div> <div id=""b-box""> <p class=""title-text"">B</p></div> <br> <div style='float: left;padding-left:30px;'><p>Press '1' for A</p></div><div style='float: right;padding-right:30px;'><p>Press '0' for B</p> </div> </div></div>","null","","","","","","","","","","","","","","","",""
"2926","","test","audio-keyboard-response","85","322519","0.0-8.0-1.28","5fc511c32b9bc60bc189b893","condE","","resources/audio/wordStim/S3_AU_19_axb_Step-7.wav","49","","","","","","resources/audio/wordStim/S3_AU_19_axb_Step-7.wav","S3","19","axb","7","MI","BL","S3-BL","0","1","false"
"null","","fixation","html-keyboard-response","86","323533","0.0-8.0-0.29","5fc511c32b9bc60bc189b893","condE","","<div class=""vertical-center"" style='width:60%;'><p style='font-weight:bold;'>Does the middle word sound more like the first word (A) or the last word (B)?</p> <br> <div class=""container""> <div id=""a-box""> <p class=""title-text"">A</h3></p> </div> <div id=""x-box""> <p class=""title-text"">X<p> </div> <div id=""b-box""> <p class=""title-text"">B</p></div> <br> <div style='float: left;padding-left:30px;'><p>Press '1' for A</p></div><div style='float: right;padding-right:30px;'><p>Press '0' for B</p> </div> </div></div>","null","","","","","","","","","","","","","","","",""
"3669","","test","audio-keyboard-response","87","327208","0.0-8.0-1.29","5fc511c32b9bc60bc189b893","condE","","resources/audio/wordStim/S3_AI_21_axb_Step-2.wav","48","","","","","","resources/audio/wordStim/S3_AI_21_axb_Step-2.wav","S3","21","axb","2","MI","BL","S3-BL","0","0","true"
"null","","fixation","html-keyboard-response","88","328213","0.0-8.0-0.30","5fc511c32b9bc60bc189b893","condE","","<div class=""vertical-center"" style='width:60%;'><p style='font-weight:bold;'>Does the middle word sound more like the first word (A) or the last word (B)?</p> <br> <div class=""container""> <div id=""a-box""> <p class=""title-text"">A</h3></p> </div> <div id=""x-box""> <p class=""title-text"">X<p> </div> <div id=""b-box""> <p class=""title-text"">B</p></div> <br> <div style='float: left;padding-left:30px;'><p>Press '1' for A</p></div><div style='float: right;padding-right:30px;'><p>Press '0' for B</p> </div> </div></div>","null","","","","","","","","","","","","","","","",""
"3413","","test","audio-keyboard-response","89","331628","0.0-8.0-1.30","5fc511c32b9bc60bc189b893","condE","","resources/audio/wordStim/S3_AI_30_axb_Step-4.wav","49","","","","","","resources/audio/wordStim/S3_AI_30_axb_Step-4.wav","S3","30","axb","4","MI","BL","S3-BL","0","1","false"
"null","","fixation","html-keyboard-response","90","332633","0.0-8.0-0.31","5fc511c32b9bc60bc189b893","condE","","<div class=""vertical-center"" style='width:60%;'><p style='font-weight:bold;'>Does the middle word sound more like the first word (A) or the last word (B)?</p> <br> <div class=""container""> <div id=""a-box""> <p class=""title-text"">A</h3></p> </div> <div id=""x-box""> <p class=""title-text"">X<p> </div> <div id=""b-box""> <p class=""title-text"">B</p></div> <br> <div style='float: left;padding-left:30px;'><p>Press '1' for A</p></div><div style='float: right;padding-right:30px;'><p>Press '0' for B</p> </div> </div></div>","null","","","","","","","","","","","","","","","",""
"1144","","test","audio-keyboard-response","91","333778","0.0-8.0-1.31","5fc511c32b9bc60bc189b893","condE","","resources/audio/wordStim/S3_AI_30_bxa_Step-5.wav","48","","","","","","resources/audio/wordStim/S3_AI_30_bxa_Step-5.wav","S3","30","bxa","5","MI","BL","S3-BL","1","0","false"
"null","","fixation","html-keyboard-response","92","334783","0.0-8.0-0.32","5fc511c32b9bc60bc189b893","condE","","<div class=""vertical-center"" style='width:60%;'><p style='font-weight:bold;'>Does the middle word sound more like the first word (A) or the last word (B)?</p> <br> <div class=""container""> <div id=""a-box""> <p class=""title-text"">A</h3></p> </div> <div id=""x-box""> <p class=""title-text"">X<p> </div> <div id=""b-box""> <p class=""title-text"">B</p></div> <br> <div style='float: left;padding-left:30px;'><p>Press '1' for A</p></div><div style='float: right;padding-right:30px;'><p>Press '0' for B</p> </div> </div></div>","null","","","","","","","","","","","","","","","",""
"2984","","test","audio-keyboard-response","93","337768","0.0-8.0-1.32","5fc511c32b9bc60bc189b893","condE","","resources/audio/wordStim/S3_AI_21_axb_Step-4.wav","48","","","","","","resources/audio/wordStim/S3_AI_21_axb_Step-4.wav","S3","21","axb","4","MI","BL","S3-BL","0","0","true"
"null","","fixation","html-keyboard-response","94","338775","0.0-8.0-0.33","5fc511c32b9bc60bc189b893","condE","","<div class=""vertical-center"" style='width:60%;'><p style='font-weight:bold;'>Does the middle word sound more like the first word (A) or the last word (B)?</p> <br> <div class=""container""> <div id=""a-box""> <p class=""title-text"">A</h3></p> </div> <div id=""x-box""> <p class=""title-text"">X<p> </div> <div id=""b-box""> <p class=""title-text"">B</p></div> <br> <div style='float: left;padding-left:30px;'><p>Press '1' for A</p></div><div style='float: right;padding-right:30px;'><p>Press '0' for B</p> </div> </div></div>","null","","","","","","","","","","","","","","","",""
"4400","","test","audio-keyboard-response","95","343178","0.0-8.0-1.33","5fc511c32b9bc60bc189b893","condE","","resources/audio/wordStim/S3_AU_18_bxa_Step-4.wav","49","","","","","","resources/audio/wordStim/S3_AU_18_bxa_Step-4.wav","S3","18","bxa","4","MI","BL","S3-BL","1","1","true"
"null","","fixation","html-keyboard-response","96","344182","0.0-8.0-0.34","5fc511c32b9bc60bc189b893","condE","","<div class=""vertical-center"" style='width:60%;'><p style='font-weight:bold;'>Does the middle word sound more like the first word (A) or the last word (B)?</p> <br> <div class=""container""> <div id=""a-box""> <p class=""title-text"">A</h3></p> </div> <div id=""x-box""> <p class=""title-text"">X<p> </div> <div id=""b-box""> <p class=""title-text"">B</p></div> <br> <div style='float: left;padding-left:30px;'><p>Press '1' for A</p></div><div style='float: right;padding-right:30px;'><p>Press '0' for B</p> </div> </div></div>","null","","","","","","","","","","","","","","","",""
"3634","","test","audio-keyboard-response","97","347820","0.0-8.0-1.34","5fc511c32b9bc60bc189b893","condE","","resources/audio/wordStim/S3_AI_30_axb_Step-6.wav","48","","","","","","resources/audio/wordStim/S3_AI_30_axb_Step-6.wav","S3","30","axb","6","MI","BL","S3-BL","0","0","true"
"null","","fixation","html-keyboard-response","98","348824","0.0-8.0-0.35","5fc511c32b9bc60bc189b893","condE","","<div class=""vertical-center"" style='width:60%;'><p style='font-weight:bold;'>Does the middle word sound more like the first word (A) or the last word (B)?</p> <br> <div class=""container""> <div id=""a-box""> <p class=""title-text"">A</h3></p> </div> <div id=""x-box""> <p class=""title-text"">X<p> </div> <div id=""b-box""> <p class=""title-text"">B</p></div> <br> <div style='float: left;padding-left:30px;'><p>Press '1' for A</p></div><div style='float: right;padding-right:30px;'><p>Press '0' for B</p> </div> </div></div>","null","","","","","","","","","","","","","","","",""
"4034","","test","audio-keyboard-response","99","352859","0.0-8.0-1.35","5fc511c32b9bc60bc189b893","condE","","resources/audio/wordStim/S3_AU_18_axb_Step-6.wav","49","","","","","","resources/audio/wordStim/S3_AU_18_axb_Step-6.wav","S3","18","axb","6","MI","BL","S3-BL","0","1","false"
"null","","fixation","html-keyboard-response","100","353862","0.0-8.0-0.36","5fc511c32b9bc60bc189b893","condE","","<div class=""vertical-center"" style='width:60%;'><p style='font-weight:bold;'>Does the middle word sound more like the first word (A) or the last word (B)?</p> <br> <div class=""container""> <div id=""a-box""> <p class=""title-text"">A</h3></p> </div> <div id=""x-box""> <p class=""title-text"">X<p> </div> <div id=""b-box""> <p class=""title-text"">B</p></div> <br> <div style='float: left;padding-left:30px;'><p>Press '1' for A</p></div><div style='float: right;padding-right:30px;'><p>Press '0' for B</p> </div> </div></div>","null","","","","","","","","","","","","","","","",""
"3442","","test","audio-keyboard-response","101","357308","0.0-8.0-1.36","5fc511c32b9bc60bc189b893","condE","","resources/audio/wordStim/S3_AI_22_bxa_Step-7.wav","49","","","","","","resources/audio/wordStim/S3_AI_22_bxa_Step-7.wav","S3","22","bxa","7","MI","BL","S3-BL","1","1","true"
"null","","fixation","html-keyboard-response","102","358314","0.0-8.0-0.37","5fc511c32b9bc60bc189b893","condE","","<div class=""vertical-center"" style='width:60%;'><p style='font-weight:bold;'>Does the middle word sound more like the first word (A) or the last word (B)?</p> <br> <div class=""container""> <div id=""a-box""> <p class=""title-text"">A</h3></p> </div> <div id=""x-box""> <p class=""title-text"">X<p> </div> <div id=""b-box""> <p class=""title-text"">B</p></div> <br> <div style='float: left;padding-left:30px;'><p>Press '1' for A</p></div><div style='float: right;padding-right:30px;'><p>Press '0' for B</p> </div> </div></div>","null","","","","","","","","","","","","","","","",""
"2827","","test","audio-keyboard-response","103","361145","0.0-8.0-1.37","5fc511c32b9bc60bc189b893","condE","","resources/audio/wordStim/S3_AI_21_bxa_Step-3.wav","48","","","","","","resources/audio/wordStim/S3_AI_21_bxa_Step-3.wav","S3","21","bxa","3","MI","BL","S3-BL","1","0","false"
"null","","fixation","html-keyboard-response","104","362151","0.0-8.0-0.38","5fc511c32b9bc60bc189b893","condE","","<div class=""vertical-center"" style='width:60%;'><p style='font-weight:bold;'>Does the middle word sound more like the first word (A) or the last word (B)?</p> <br> <div class=""container""> <div id=""a-box""> <p class=""title-text"">A</h3></p> </div> <div id=""x-box""> <p class=""title-text"">X<p> </div> <div id=""b-box""> <p class=""title-text"">B</p></div> <br> <div style='float: left;padding-left:30px;'><p>Press '1' for A</p></div><div style='float: right;padding-right:30px;'><p>Press '0' for B</p> </div> </div></div>","null","","","","","","","","","","","","","","","",""
"3495","","test","audio-keyboard-response","105","365645","0.0-8.0-1.38","5fc511c32b9bc60bc189b893","condE","","resources/audio/wordStim/S3_AU_19_axb_Step-3.wav","48","","","","","","resources/audio/wordStim/S3_AU_19_axb_Step-3.wav","S3","19","axb","3","MI","BL","S3-BL","0","0","true"
"null","","fixation","html-keyboard-response","106","366651","0.0-8.0-0.39","5fc511c32b9bc60bc189b893","condE","","<div class=""vertical-center"" style='width:60%;'><p style='font-weight:bold;'>Does the middle word sound more like the first word (A) or the last word (B)?</p> <br> <div class=""container""> <div id=""a-box""> <p class=""title-text"">A</h3></p> </div> <div id=""x-box""> <p class=""title-text"">X<p> </div> <div id=""b-box""> <p class=""title-text"">B</p></div> <br> <div style='float: left;padding-left:30px;'><p>Press '1' for A</p></div><div style='float: right;padding-right:30px;'><p>Press '0' for B</p> </div> </div></div>","null","","","","","","","","","","","","","","","",""
"2728","","test","audio-keyboard-response","107","369380","0.0-8.0-1.39","5fc511c32b9bc60bc189b893","condE","","resources/audio/wordStim/S3_AI_21_bxa_Step-5.wav","49","","","","","","resources/audio/wordStim/S3_AI_21_bxa_Step-5.wav","S3","21","bxa","5","MI","BL","S3-BL","1","1","true"
"null","","fixation","html-keyboard-response","108","370384","0.0-8.0-0.40","5fc511c32b9bc60bc189b893","condE","","<div class=""vertical-center"" style='width:60%;'><p style='font-weight:bold;'>Does the middle word sound more like the first word (A) or the last word (B)?</p> <br> <div class=""container""> <div id=""a-box""> <p class=""title-text"">A</h3></p> </div> <div id=""x-box""> <p class=""title-text"">X<p> </div> <div id=""b-box""> <p class=""title-text"">B</p></div> <br> <div style='float: left;padding-left:30px;'><p>Press '1' for A</p></div><div style='float: right;padding-right:30px;'><p>Press '0' for B</p> </div> </div></div>","null","","","","","","","","","","","","","","","",""
"3013","","test","audio-keyboard-response","109","373397","0.0-8.0-1.40","5fc511c32b9bc60bc189b893","condE","","resources/audio/wordStim/S3_AU_20_axb_Step-3.wav","48","","","","","","resources/audio/wordStim/S3_AU_20_axb_Step-3.wav","S3","20","axb","3","MI","BL","S3-BL","0","0","true"
"null","","fixation","html-keyboard-response","110","374401","0.0-8.0-0.41","5fc511c32b9bc60bc189b893","condE","","<div class=""vertical-center"" style='width:60%;'><p style='font-weight:bold;'>Does the middle word sound more like the first word (A) or the last word (B)?</p> <br> <div class=""container""> <div id=""a-box""> <p class=""title-text"">A</h3></p> </div> <div id=""x-box""> <p class=""title-text"">X<p> </div> <div id=""b-box""> <p class=""title-text"">B</p></div> <br> <div style='float: left;padding-left:30px;'><p>Press '1' for A</p></div><div style='float: right;padding-right:30px;'><p>Press '0' for B</p> </div> </div></div>","null","","","","","","","","","","","","","","","",""
"3936","","test","audio-keyboard-response","111","378339","0.0-8.0-1.41","5fc511c32b9bc60bc189b893","condE","","resources/audio/wordStim/S3_AU_19_bxa_Step-6.wav","48","","","","","","resources/audio/wordStim/S3_AU_19_bxa_Step-6.wav","S3","19","bxa","6","MI","BL","S3-BL","1","0","false"
"1321.8649999998743","","break","html-keyboard-response","112","380167","0.0-8.0-2.41-0.41","5fc511c32b9bc60bc189b893","condE","","<div class=""vertical-center""><p>Feel free to take a break!</p><i>When you're ready to continue, press SPACE to begin the next trial.</i></p></div>","32","","","","","","","","","","","","","","","",""
"null","","fixation","html-keyboard-response","113","380668","0.0-8.0-0.42","5fc511c32b9bc60bc189b893","condE","","<div class=""vertical-center"" style='width:60%;'><p style='font-weight:bold;'>Does the middle word sound more like the first word (A) or the last word (B)?</p> <br> <div class=""container""> <div id=""a-box""> <p class=""title-text"">A</h3></p> </div> <div id=""x-box""> <p class=""title-text"">X<p> </div> <div id=""b-box""> <p class=""title-text"">B</p></div> <br> <div style='float: left;padding-left:30px;'><p>Press '1' for A</p></div><div style='float: right;padding-right:30px;'><p>Press '0' for B</p> </div> </div></div>","null","","","","","","","","","","","","","","","",""
"3843","","test","audio-keyboard-response","114","384517","0.0-8.0-1.42","5fc511c32b9bc60bc189b893","condE","","resources/audio/wordStim/S3_AU_18_bxa_Step-2.wav","48","","","","","","resources/audio/wordStim/S3_AU_18_bxa_Step-2.wav","S3","18","bxa","2","MI","BL","S3-BL","1","0","false"
"null","","fixation","html-keyboard-response","115","385524","0.0-8.0-0.43","5fc511c32b9bc60bc189b893","condE","","<div class=""vertical-center"" style='width:60%;'><p style='font-weight:bold;'>Does the middle word sound more like the first word (A) or the last word (B)?</p> <br> <div class=""container""> <div id=""a-box""> <p class=""title-text"">A</h3></p> </div> <div id=""x-box""> <p class=""title-text"">X<p> </div> <div id=""b-box""> <p class=""title-text"">B</p></div> <br> <div style='float: left;padding-left:30px;'><p>Press '1' for A</p></div><div style='float: right;padding-right:30px;'><p>Press '0' for B</p> </div> </div></div>","null","","","","","","","","","","","","","","","",""
"4075","","test","audio-keyboard-response","116","389600","0.0-8.0-1.43","5fc511c32b9bc60bc189b893","condE","","resources/audio/wordStim/S3_AU_19_axb_Step-4.wav","48","","","","","","resources/audio/wordStim/S3_AU_19_axb_Step-4.wav","S3","19","axb","4","MI","BL","S3-BL","0","0","true"
"null","","fixation","html-keyboard-response","117","390603","0.0-8.0-0.44","5fc511c32b9bc60bc189b893","condE","","<div class=""vertical-center"" style='width:60%;'><p style='font-weight:bold;'>Does the middle word sound more like the first word (A) or the last word (B)?</p> <br> <div class=""container""> <div id=""a-box""> <p class=""title-text"">A</h3></p> </div> <div id=""x-box""> <p class=""title-text"">X<p> </div> <div id=""b-box""> <p class=""title-text"">B</p></div> <br> <div style='float: left;padding-left:30px;'><p>Press '1' for A</p></div><div style='float: right;padding-right:30px;'><p>Press '0' for B</p> </div> </div></div>","null","","","","","","","","","","","","","","","",""
"4069","","test","audio-keyboard-response","118","394671","0.0-8.0-1.44","5fc511c32b9bc60bc189b893","condE","","resources/audio/wordStim/S3_AU_20_bxa_Step-6.wav","49","","","","","","resources/audio/wordStim/S3_AU_20_bxa_Step-6.wav","S3","20","bxa","6","MI","BL","S3-BL","1","1","true"
"null","","fixation","html-keyboard-response","119","395677","0.0-8.0-0.45","5fc511c32b9bc60bc189b893","condE","","<div class=""vertical-center"" style='width:60%;'><p style='font-weight:bold;'>Does the middle word sound more like the first word (A) or the last word (B)?</p> <br> <div class=""container""> <div id=""a-box""> <p class=""title-text"">A</h3></p> </div> <div id=""x-box""> <p class=""title-text"">X<p> </div> <div id=""b-box""> <p class=""title-text"">B</p></div> <br> <div style='float: left;padding-left:30px;'><p>Press '1' for A</p></div><div style='float: right;padding-right:30px;'><p>Press '0' for B</p> </div> </div></div>","null","","","","","","","","","","","","","","","",""
"2467","","test","audio-keyboard-response","120","398143","0.0-8.0-1.45","5fc511c32b9bc60bc189b893","condE","","resources/audio/wordStim/S3_AI_22_axb_Step-6.wav","48","","","","","","resources/audio/wordStim/S3_AI_22_axb_Step-6.wav","S3","22","axb","6","MI","BL","S3-BL","0","0","true"
"null","","fixation","html-keyboard-response","121","399148","0.0-8.0-0.46","5fc511c32b9bc60bc189b893","condE","","<div class=""vertical-center"" style='width:60%;'><p style='font-weight:bold;'>Does the middle word sound more like the first word (A) or the last word (B)?</p> <br> <div class=""container""> <div id=""a-box""> <p class=""title-text"">A</h3></p> </div> <div id=""x-box""> <p class=""title-text"">X<p> </div> <div id=""b-box""> <p class=""title-text"">B</p></div> <br> <div style='float: left;padding-left:30px;'><p>Press '1' for A</p></div><div style='float: right;padding-right:30px;'><p>Press '0' for B</p> </div> </div></div>","null","","","","","","","","","","","","","","","",""
"4029","","test","audio-keyboard-response","122","403178","0.0-8.0-1.46","5fc511c32b9bc60bc189b893","condE","","resources/audio/wordStim/S3_AI_30_bxa_Step-3.wav","48","","","","","","resources/audio/wordStim/S3_AI_30_bxa_Step-3.wav","S3","30","bxa","3","MI","BL","S3-BL","1","0","false"
"null","","fixation","html-keyboard-response","123","404181","0.0-8.0-0.47","5fc511c32b9bc60bc189b893","condE","","<div class=""vertical-center"" style='width:60%;'><p style='font-weight:bold;'>Does the middle word sound more like the first word (A) or the last word (B)?</p> <br> <div class=""container""> <div id=""a-box""> <p class=""title-text"">A</h3></p> </div> <div id=""x-box""> <p class=""title-text"">X<p> </div> <div id=""b-box""> <p class=""title-text"">B</p></div> <br> <div style='float: left;padding-left:30px;'><p>Press '1' for A</p></div><div style='float: right;padding-right:30px;'><p>Press '0' for B</p> </div> </div></div>","null","","","","","","","","","","","","","","","",""
"3547","","test","audio-keyboard-response","124","407727","0.0-8.0-1.47","5fc511c32b9bc60bc189b893","condE","","resources/audio/wordStim/S3_AI_30_bxa_Step-4.wav","48","","","","","","resources/audio/wordStim/S3_AI_30_bxa_Step-4.wav","S3","30","bxa","4","MI","BL","S3-BL","1","0","false"
"null","","fixation","html-keyboard-response","125","408733","0.0-8.0-0.48","5fc511c32b9bc60bc189b893","condE","","<div class=""vertical-center"" style='width:60%;'><p style='font-weight:bold;'>Does the middle word sound more like the first word (A) or the last word (B)?</p> <br> <div class=""container""> <div id=""a-box""> <p class=""title-text"">A</h3></p> </div> <div id=""x-box""> <p class=""title-text"">X<p> </div> <div id=""b-box""> <p class=""title-text"">B</p></div> <br> <div style='float: left;padding-left:30px;'><p>Press '1' for A</p></div><div style='float: right;padding-right:30px;'><p>Press '0' for B</p> </div> </div></div>","null","","","","","","","","","","","","","","","",""
"3303","","test","audio-keyboard-response","126","412034","0.0-8.0-1.48","5fc511c32b9bc60bc189b893","condE","","resources/audio/wordStim/S3_AI_21_bxa_Step-4.wav","48","","","","","","resources/audio/wordStim/S3_AI_21_bxa_Step-4.wav","S3","21","bxa","4","MI","BL","S3-BL","1","0","false"
"null","","fixation","html-keyboard-response","127","413040","0.0-8.0-0.49","5fc511c32b9bc60bc189b893","condE","","<div class=""vertical-center"" style='width:60%;'><p style='font-weight:bold;'>Does the middle word sound more like the first word (A) or the last word (B)?</p> <br> <div class=""container""> <div id=""a-box""> <p class=""title-text"">A</h3></p> </div> <div id=""x-box""> <p class=""title-text"">X<p> </div> <div id=""b-box""> <p class=""title-text"">B</p></div> <br> <div style='float: left;padding-left:30px;'><p>Press '1' for A</p></div><div style='float: right;padding-right:30px;'><p>Press '0' for B</p> </div> </div></div>","null","","","","","","","","","","","","","","","",""
"4272","","test","audio-keyboard-response","128","417312","0.0-8.0-1.49","5fc511c32b9bc60bc189b893","condE","","resources/audio/wordStim/S3_AU_19_bxa_Step-8.wav","48","","","","","","resources/audio/wordStim/S3_AU_19_bxa_Step-8.wav","S3","19","bxa","8","MI","BL","S3-BL","1","0","false"
"null","","fixation","html-keyboard-response","129","418317","0.0-8.0-0.50","5fc511c32b9bc60bc189b893","condE","","<div class=""vertical-center"" style='width:60%;'><p style='font-weight:bold;'>Does the middle word sound more like the first word (A) or the last word (B)?</p> <br> <div class=""container""> <div id=""a-box""> <p class=""title-text"">A</h3></p> </div> <div id=""x-box""> <p class=""title-text"">X<p> </div> <div id=""b-box""> <p class=""title-text"">B</p></div> <br> <div style='float: left;padding-left:30px;'><p>Press '1' for A</p></div><div style='float: right;padding-right:30px;'><p>Press '0' for B</p> </div> </div></div>","null","","","","","","","","","","","","","","","",""
"3315","","test","audio-keyboard-response","130","421633","0.0-8.0-1.50","5fc511c32b9bc60bc189b893","condE","","resources/audio/wordStim/S3_AU_19_axb_Step-8.wav","49","","","","","","resources/audio/wordStim/S3_AU_19_axb_Step-8.wav","S3","19","axb","8","MI","BL","S3-BL","0","1","false"
"null","","fixation","html-keyboard-response","131","422639","0.0-8.0-0.51","5fc511c32b9bc60bc189b893","condE","","<div class=""vertical-center"" style='width:60%;'><p style='font-weight:bold;'>Does the middle word sound more like the first word (A) or the last word (B)?</p> <br> <div class=""container""> <div id=""a-box""> <p class=""title-text"">A</h3></p> </div> <div id=""x-box""> <p class=""title-text"">X<p> </div> <div id=""b-box""> <p class=""title-text"">B</p></div> <br> <div style='float: left;padding-left:30px;'><p>Press '1' for A</p></div><div style='float: right;padding-right:30px;'><p>Press '0' for B</p> </div> </div></div>","null","","","","","","","","","","","","","","","",""
"3042","","test","audio-keyboard-response","132","425687","0.0-8.0-1.51","5fc511c32b9bc60bc189b893","condE","","resources/audio/wordStim/S3_AU_19_axb_Step-2.wav","48","","","","","","resources/audio/wordStim/S3_AU_19_axb_Step-2.wav","S3","19","axb","2","MI","BL","S3-BL","0","0","true"
"null","","fixation","html-keyboard-response","133","426693","0.0-8.0-0.52","5fc511c32b9bc60bc189b893","condE","","<div class=""vertical-center"" style='width:60%;'><p style='font-weight:bold;'>Does the middle word sound more like the first word (A) or the last word (B)?</p> <br> <div class=""container""> <div id=""a-box""> <p class=""title-text"">A</h3></p> </div> <div id=""x-box""> <p class=""title-text"">X<p> </div> <div id=""b-box""> <p class=""title-text"">B</p></div> <br> <div style='float: left;padding-left:30px;'><p>Press '1' for A</p></div><div style='float: right;padding-right:30px;'><p>Press '0' for B</p> </div> </div></div>","null","","","","","","","","","","","","","","","",""
"4133","","test","audio-keyboard-response","134","430829","0.0-8.0-1.52","5fc511c32b9bc60bc189b893","condE","","resources/audio/wordStim/S3_AU_18_axb_Step-5.wav","48","","","","","","resources/audio/wordStim/S3_AU_18_axb_Step-5.wav","S3","18","axb","5","MI","BL","S3-BL","0","0","true"
"null","","fixation","html-keyboard-response","135","431832","0.0-8.0-0.53","5fc511c32b9bc60bc189b893","condE","","<div class=""vertical-center"" style='width:60%;'><p style='font-weight:bold;'>Does the middle word sound more like the first word (A) or the last word (B)?</p> <br> <div class=""container""> <div id=""a-box""> <p class=""title-text"">A</h3></p> </div> <div id=""x-box""> <p class=""title-text"">X<p> </div> <div id=""b-box""> <p class=""title-text"">B</p></div> <br> <div style='float: left;padding-left:30px;'><p>Press '1' for A</p></div><div style='float: right;padding-right:30px;'><p>Press '0' for B</p> </div> </div></div>","null","","","","","","","","","","","","","","","",""
"3262","","test","audio-keyboard-response","136","435094","0.0-8.0-1.53","5fc511c32b9bc60bc189b893","condE","","resources/audio/wordStim/S3_AI_30_axb_Step-5.wav","48","","","","","","resources/audio/wordStim/S3_AI_30_axb_Step-5.wav","S3","30","axb","5","MI","BL","S3-BL","0","0","true"
"null","","fixation","html-keyboard-response","137","436098","0.0-8.0-0.54","5fc511c32b9bc60bc189b893","condE","","<div class=""vertical-center"" style='width:60%;'><p style='font-weight:bold;'>Does the middle word sound more like the first word (A) or the last word (B)?</p> <br> <div class=""container""> <div id=""a-box""> <p class=""title-text"">A</h3></p> </div> <div id=""x-box""> <p class=""title-text"">X<p> </div> <div id=""b-box""> <p class=""title-text"">B</p></div> <br> <div style='float: left;padding-left:30px;'><p>Press '1' for A</p></div><div style='float: right;padding-right:30px;'><p>Press '0' for B</p> </div> </div></div>","null","","","","","","","","","","","","","","","",""
"3257","","test","audio-keyboard-response","138","439357","0.0-8.0-1.54","5fc511c32b9bc60bc189b893","condE","","resources/audio/wordStim/S3_AI_30_bxa_Step-7.wav","48","","","","","","resources/audio/wordStim/S3_AI_30_bxa_Step-7.wav","S3","30","bxa","7","MI","BL","S3-BL","1","0","false"
"null","","fixation","html-keyboard-response","139","440362","0.0-8.0-0.55","5fc511c32b9bc60bc189b893","condE","","<div class=""vertical-center"" style='width:60%;'><p style='font-weight:bold;'>Does the middle word sound more like the first word (A) or the last word (B)?</p> <br> <div class=""container""> <div id=""a-box""> <p class=""title-text"">A</h3></p> </div> <div id=""x-box""> <p class=""title-text"">X<p> </div> <div id=""b-box""> <p class=""title-text"">B</p></div> <br> <div style='float: left;padding-left:30px;'><p>Press '1' for A</p></div><div style='float: right;padding-right:30px;'><p>Press '0' for B</p> </div> </div></div>","null","","","","","","","","","","","","","","","",""
"3408","","test","audio-keyboard-response","140","443775","0.0-8.0-1.55","5fc511c32b9bc60bc189b893","condE","","resources/audio/wordStim/S3_AU_20_axb_Step-6.wav","49","","","","","","resources/audio/wordStim/S3_AU_20_axb_Step-6.wav","S3","20","axb","6","MI","BL","S3-BL","0","1","false"
"null","","fixation","html-keyboard-response","141","444780","0.0-8.0-0.56","5fc511c32b9bc60bc189b893","condE","","<div class=""vertical-center"" style='width:60%;'><p style='font-weight:bold;'>Does the middle word sound more like the first word (A) or the last word (B)?</p> <br> <div class=""container""> <div id=""a-box""> <p class=""title-text"">A</h3></p> </div> <div id=""x-box""> <p class=""title-text"">X<p> </div> <div id=""b-box""> <p class=""title-text"">B</p></div> <br> <div style='float: left;padding-left:30px;'><p>Press '1' for A</p></div><div style='float: right;padding-right:30px;'><p>Press '0' for B</p> </div> </div></div>","null","","","","","","","","","","","","","","","",""
"128","","test","audio-keyboard-response","142","444912","0.0-8.0-1.56","5fc511c32b9bc60bc189b893","condE","","resources/audio/wordStim/S3_AI_21_axb_Step-5.wav","48","","","","","","resources/audio/wordStim/S3_AI_21_axb_Step-5.wav","S3","21","axb","5","MI","BL","S3-BL","0","0","true"
"null","","fixation","html-keyboard-response","143","445918","0.0-8.0-0.57","5fc511c32b9bc60bc189b893","condE","","<div class=""vertical-center"" style='width:60%;'><p style='font-weight:bold;'>Does the middle word sound more like the first word (A) or the last word (B)?</p> <br> <div class=""container""> <div id=""a-box""> <p class=""title-text"">A</h3></p> </div> <div id=""x-box""> <p class=""title-text"">X<p> </div> <div id=""b-box""> <p class=""title-text"">B</p></div> <br> <div style='float: left;padding-left:30px;'><p>Press '1' for A</p></div><div style='float: right;padding-right:30px;'><p>Press '0' for B</p> </div> </div></div>","null","","","","","","","","","","","","","","","",""
"3001","","test","audio-keyboard-response","144","448923","0.0-8.0-1.57","5fc511c32b9bc60bc189b893","condE","","resources/audio/wordStim/S3_AU_20_axb_Step-7.wav","49","","","","","","resources/audio/wordStim/S3_AU_20_axb_Step-7.wav","S3","20","axb","7","MI","BL","S3-BL","0","1","false"
"null","","fixation","html-keyboard-response","145","449925","0.0-8.0-0.58","5fc511c32b9bc60bc189b893","condE","","<div class=""vertical-center"" style='width:60%;'><p style='font-weight:bold;'>Does the middle word sound more like the first word (A) or the last word (B)?</p> <br> <div class=""container""> <div id=""a-box""> <p class=""title-text"">A</h3></p> </div> <div id=""x-box""> <p class=""title-text"">X<p> </div> <div id=""b-box""> <p class=""title-text"">B</p></div> <br> <div style='float: left;padding-left:30px;'><p>Press '1' for A</p></div><div style='float: right;padding-right:30px;'><p>Press '0' for B</p> </div> </div></div>","null","","","","","","","","","","","","","","","",""
"2514","","test","audio-keyboard-response","146","452440","0.0-8.0-1.58","5fc511c32b9bc60bc189b893","condE","","resources/audio/wordStim/S3_AI_21_bxa_Step-6.wav","48","","","","","","resources/audio/wordStim/S3_AI_21_bxa_Step-6.wav","S3","21","bxa","6","MI","BL","S3-BL","1","0","false"
"null","","fixation","html-keyboard-response","147","453444","0.0-8.0-0.59","5fc511c32b9bc60bc189b893","condE","","<div class=""vertical-center"" style='width:60%;'><p style='font-weight:bold;'>Does the middle word sound more like the first word (A) or the last word (B)?</p> <br> <div class=""container""> <div id=""a-box""> <p class=""title-text"">A</h3></p> </div> <div id=""x-box""> <p class=""title-text"">X<p> </div> <div id=""b-box""> <p class=""title-text"">B</p></div> <br> <div style='float: left;padding-left:30px;'><p>Press '1' for A</p></div><div style='float: right;padding-right:30px;'><p>Press '0' for B</p> </div> </div></div>","null","","","","","","","","","","","","","","","",""
"3849","","test","audio-keyboard-response","148","457295","0.0-8.0-1.59","5fc511c32b9bc60bc189b893","condE","","resources/audio/wordStim/S3_AU_18_axb_Step-8.wav","49","","","","","","resources/audio/wordStim/S3_AU_18_axb_Step-8.wav","S3","18","axb","8","MI","BL","S3-BL","0","1","false"
"null","","fixation","html-keyboard-response","149","458298","0.0-8.0-0.60","5fc511c32b9bc60bc189b893","condE","","<div class=""vertical-center"" style='width:60%;'><p style='font-weight:bold;'>Does the middle word sound more like the first word (A) or the last word (B)?</p> <br> <div class=""container""> <div id=""a-box""> <p class=""title-text"">A</h3></p> </div> <div id=""x-box""> <p class=""title-text"">X<p> </div> <div id=""b-box""> <p class=""title-text"">B</p></div> <br> <div style='float: left;padding-left:30px;'><p>Press '1' for A</p></div><div style='float: right;padding-right:30px;'><p>Press '0' for B</p> </div> </div></div>","null","","","","","","","","","","","","","","","",""
"2757","","test","audio-keyboard-response","150","461058","0.0-8.0-1.60","5fc511c32b9bc60bc189b893","condE","","resources/audio/wordStim/S3_AI_21_axb_Step-8.wav","48","","","","","","resources/audio/wordStim/S3_AI_21_axb_Step-8.wav","S3","21","axb","8","MI","BL","S3-BL","0","0","true"
"null","","fixation","html-keyboard-response","151","462063","0.0-8.0-0.61","5fc511c32b9bc60bc189b893","condE","","<div class=""vertical-center"" style='width:60%;'><p style='font-weight:bold;'>Does the middle word sound more like the first word (A) or the last word (B)?</p> <br> <div class=""container""> <div id=""a-box""> <p class=""title-text"">A</h3></p> </div> <div id=""x-box""> <p class=""title-text"">X<p> </div> <div id=""b-box""> <p class=""title-text"">B</p></div> <br> <div style='float: left;padding-left:30px;'><p>Press '1' for A</p></div><div style='float: right;padding-right:30px;'><p>Press '0' for B</p> </div> </div></div>","null","","","","","","","","","","","","","","","",""
"2955","","test","audio-keyboard-response","152","465021","0.0-8.0-1.61","5fc511c32b9bc60bc189b893","condE","","resources/audio/wordStim/S3_AU_19_axb_Step-6.wav","48","","","","","","resources/audio/wordStim/S3_AU_19_axb_Step-6.wav","S3","19","axb","6","MI","BL","S3-BL","0","0","true"
"null","","fixation","html-keyboard-response","153","466027","0.0-8.0-0.62","5fc511c32b9bc60bc189b893","condE","","<div class=""vertical-center"" style='width:60%;'><p style='font-weight:bold;'>Does the middle word sound more like the first word (A) or the last word (B)?</p> <br> <div class=""container""> <div id=""a-box""> <p class=""title-text"">A</h3></p> </div> <div id=""x-box""> <p class=""title-text"">X<p> </div> <div id=""b-box""> <p class=""title-text"">B</p></div> <br> <div style='float: left;padding-left:30px;'><p>Press '1' for A</p></div><div style='float: right;padding-right:30px;'><p>Press '0' for B</p> </div> </div></div>","null","","","","","","","","","","","","","","","",""
"3437","","test","audio-keyboard-response","154","469468","0.0-8.0-1.62","5fc511c32b9bc60bc189b893","condE","","resources/audio/wordStim/S3_AI_30_axb_Step-3.wav","48","","","","","","resources/audio/wordStim/S3_AI_30_axb_Step-3.wav","S3","30","axb","3","MI","BL","S3-BL","0","0","true"
"3313.664999999688","","break","html-keyboard-response","155","473283","0.0-8.0-2.62-0.62","5fc511c32b9bc60bc189b893","condE","","<div class=""vertical-center""><p>Feel free to take a break!</p><i>When you're ready to continue, press SPACE to begin the next trial.</i></p></div>","32","","","","","","","","","","","","","","","",""
"null","","fixation","html-keyboard-response","156","473788","0.0-8.0-0.63","5fc511c32b9bc60bc189b893","condE","","<div class=""vertical-center"" style='width:60%;'><p style='font-weight:bold;'>Does the middle word sound more like the first word (A) or the last word (B)?</p> <br> <div class=""container""> <div id=""a-box""> <p class=""title-text"">A</h3></p> </div> <div id=""x-box""> <p class=""title-text"">X<p> </div> <div id=""b-box""> <p class=""title-text"">B</p></div> <br> <div style='float: left;padding-left:30px;'><p>Press '1' for A</p></div><div style='float: right;padding-right:30px;'><p>Press '0' for B</p> </div> </div></div>","null","","","","","","","","","","","","","","","",""
"5288","","test","audio-keyboard-response","157","479079","0.0-8.0-1.63","5fc511c32b9bc60bc189b893","condE","","resources/audio/wordStim/S3_AI_21_bxa_Step-7.wav","48","","","","","","resources/audio/wordStim/S3_AI_21_bxa_Step-7.wav","S3","21","bxa","7","MI","BL","S3-BL","1","0","false"
"null","","fixation","html-keyboard-response","158","480084","0.0-8.0-0.64","5fc511c32b9bc60bc189b893","condE","","<div class=""vertical-center"" style='width:60%;'><p style='font-weight:bold;'>Does the middle word sound more like the first word (A) or the last word (B)?</p> <br> <div class=""container""> <div id=""a-box""> <p class=""title-text"">A</h3></p> </div> <div id=""x-box""> <p class=""title-text"">X<p> </div> <div id=""b-box""> <p class=""title-text"">B</p></div> <br> <div style='float: left;padding-left:30px;'><p>Press '1' for A</p></div><div style='float: right;padding-right:30px;'><p>Press '0' for B</p> </div> </div></div>","null","","","","","","","","","","","","","","","",""
"3140","","test","audio-keyboard-response","159","483225","0.0-8.0-1.64","5fc511c32b9bc60bc189b893","condE","","resources/audio/wordStim/S3_AU_20_bxa_Step-4.wav","48","","","","","","resources/audio/wordStim/S3_AU_20_bxa_Step-4.wav","S3","20","bxa","4","MI","BL","S3-BL","1","0","false"
"null","","fixation","html-keyboard-response","160","484229","0.0-8.0-0.65","5fc511c32b9bc60bc189b893","condE","","<div class=""vertical-center"" style='width:60%;'><p style='font-weight:bold;'>Does the middle word sound more like the first word (A) or the last word (B)?</p> <br> <div class=""container""> <div id=""a-box""> <p class=""title-text"">A</h3></p> </div> <div id=""x-box""> <p class=""title-text"">X<p> </div> <div id=""b-box""> <p class=""title-text"">B</p></div> <br> <div style='float: left;padding-left:30px;'><p>Press '1' for A</p></div><div style='float: right;padding-right:30px;'><p>Press '0' for B</p> </div> </div></div>","null","","","","","","","","","","","","","","","",""
"372","","test","audio-keyboard-response","161","484599","0.0-8.0-1.65","5fc511c32b9bc60bc189b893","condE","","resources/audio/wordStim/S3_AI_22_bxa_Step-3.wav","48","","","","","","resources/audio/wordStim/S3_AI_22_bxa_Step-3.wav","S3","22","bxa","3","MI","BL","S3-BL","1","0","false"
"null","","fixation","html-keyboard-response","162","485608","0.0-8.0-0.66","5fc511c32b9bc60bc189b893","condE","","<div class=""vertical-center"" style='width:60%;'><p style='font-weight:bold;'>Does the middle word sound more like the first word (A) or the last word (B)?</p> <br> <div class=""container""> <div id=""a-box""> <p class=""title-text"">A</h3></p> </div> <div id=""x-box""> <p class=""title-text"">X<p> </div> <div id=""b-box""> <p class=""title-text"">B</p></div> <br> <div style='float: left;padding-left:30px;'><p>Press '1' for A</p></div><div style='float: right;padding-right:30px;'><p>Press '0' for B</p> </div> </div></div>","null","","","","","","","","","","","","","","","",""
"2961","","test","audio-keyboard-response","163","488573","0.0-8.0-1.66","5fc511c32b9bc60bc189b893","condE","","resources/audio/wordStim/S3_AU_20_bxa_Step-7.wav","49","","","","","","resources/audio/wordStim/S3_AU_20_bxa_Step-7.wav","S3","20","bxa","7","MI","BL","S3-BL","1","1","true"
"null","","fixation","html-keyboard-response","164","489578","0.0-8.0-0.67","5fc511c32b9bc60bc189b893","condE","","<div class=""vertical-center"" style='width:60%;'><p style='font-weight:bold;'>Does the middle word sound more like the first word (A) or the last word (B)?</p> <br> <div class=""container""> <div id=""a-box""> <p class=""title-text"">A</h3></p> </div> <div id=""x-box""> <p class=""title-text"">X<p> </div> <div id=""b-box""> <p class=""title-text"">B</p></div> <br> <div style='float: left;padding-left:30px;'><p>Press '1' for A</p></div><div style='float: right;padding-right:30px;'><p>Press '0' for B</p> </div> </div></div>","null","","","","","","","","","","","","","","","",""
"3419","","test","audio-keyboard-response","165","493001","0.0-8.0-1.67","5fc511c32b9bc60bc189b893","condE","","resources/audio/wordStim/S3_AI_22_axb_Step-7.wav","48","","","","","","resources/audio/wordStim/S3_AI_22_axb_Step-7.wav","S3","22","axb","7","MI","BL","S3-BL","0","0","true"
"null","","fixation","html-keyboard-response","166","494005","0.0-8.0-0.68","5fc511c32b9bc60bc189b893","condE","","<div class=""vertical-center"" style='width:60%;'><p style='font-weight:bold;'>Does the middle word sound more like the first word (A) or the last word (B)?</p> <br> <div class=""container""> <div id=""a-box""> <p class=""title-text"">A</h3></p> </div> <div id=""x-box""> <p class=""title-text"">X<p> </div> <div id=""b-box""> <p class=""title-text"">B</p></div> <br> <div style='float: left;padding-left:30px;'><p>Press '1' for A</p></div><div style='float: right;padding-right:30px;'><p>Press '0' for B</p> </div> </div></div>","null","","","","","","","","","","","","","","","",""
"4122","","test","audio-keyboard-response","167","498126","0.0-8.0-1.68","5fc511c32b9bc60bc189b893","condE","","resources/audio/wordStim/S3_AU_19_axb_Step-5.wav","48","","","","","","resources/audio/wordStim/S3_AU_19_axb_Step-5.wav","S3","19","axb","5","MI","BL","S3-BL","0","0","true"
"null","","fixation","html-keyboard-response","168","499129","0.0-8.0-0.69","5fc511c32b9bc60bc189b893","condE","","<div class=""vertical-center"" style='width:60%;'><p style='font-weight:bold;'>Does the middle word sound more like the first word (A) or the last word (B)?</p> <br> <div class=""container""> <div id=""a-box""> <p class=""title-text"">A</h3></p> </div> <div id=""x-box""> <p class=""title-text"">X<p> </div> <div id=""b-box""> <p class=""title-text"">B</p></div> <br> <div style='float: left;padding-left:30px;'><p>Press '1' for A</p></div><div style='float: right;padding-right:30px;'><p>Press '0' for B</p> </div> </div></div>","null","","","","","","","","","","","","","","","",""
"2926","","test","audio-keyboard-response","169","502059","0.0-8.0-1.69","5fc511c32b9bc60bc189b893","condE","","resources/audio/wordStim/S3_AU_19_bxa_Step-2.wav","49","","","","","","resources/audio/wordStim/S3_AU_19_bxa_Step-2.wav","S3","19","bxa","2","MI","BL","S3-BL","1","1","true"
"null","","fixation","html-keyboard-response","170","503063","0.0-8.0-0.70","5fc511c32b9bc60bc189b893","condE","","<div class=""vertical-center"" style='width:60%;'><p style='font-weight:bold;'>Does the middle word sound more like the first word (A) or the last word (B)?</p> <br> <div class=""container""> <div id=""a-box""> <p class=""title-text"">A</h3></p> </div> <div id=""x-box""> <p class=""title-text"">X<p> </div> <div id=""b-box""> <p class=""title-text"">B</p></div> <br> <div style='float: left;padding-left:30px;'><p>Press '1' for A</p></div><div style='float: right;padding-right:30px;'><p>Press '0' for B</p> </div> </div></div>","null","","","","","","","","","","","","","","","",""
"2961","","test","audio-keyboard-response","171","506027","0.0-8.0-1.70","5fc511c32b9bc60bc189b893","condE","","resources/audio/wordStim/S3_AU_20_bxa_Step-2.wav","48","","","","","","resources/audio/wordStim/S3_AU_20_bxa_Step-2.wav","S3","20","bxa","2","MI","BL","S3-BL","1","0","false"
"null","","fixation","html-keyboard-response","172","507031","0.0-8.0-0.71","5fc511c32b9bc60bc189b893","condE","","<div class=""vertical-center"" style='width:60%;'><p style='font-weight:bold;'>Does the middle word sound more like the first word (A) or the last word (B)?</p> <br> <div class=""container""> <div id=""a-box""> <p class=""title-text"">A</h3></p> </div> <div id=""x-box""> <p class=""title-text"">X<p> </div> <div id=""b-box""> <p class=""title-text"">B</p></div> <br> <div style='float: left;padding-left:30px;'><p>Press '1' for A</p></div><div style='float: right;padding-right:30px;'><p>Press '0' for B</p> </div> </div></div>","null","","","","","","","","","","","","","","","",""
"2781","","test","audio-keyboard-response","173","509814","0.0-8.0-1.71","5fc511c32b9bc60bc189b893","condE","","resources/audio/wordStim/S3_AU_19_bxa_Step-7.wav","48","","","","","","resources/audio/wordStim/S3_AU_19_bxa_Step-7.wav","S3","19","bxa","7","MI","BL","S3-BL","1","0","false"
"null","","fixation","html-keyboard-response","174","510817","0.0-8.0-0.72","5fc511c32b9bc60bc189b893","condE","","<div class=""vertical-center"" style='width:60%;'><p style='font-weight:bold;'>Does the middle word sound more like the first word (A) or the last word (B)?</p> <br> <div class=""container""> <div id=""a-box""> <p class=""title-text"">A</h3></p> </div> <div id=""x-box""> <p class=""title-text"">X<p> </div> <div id=""b-box""> <p class=""title-text"">B</p></div> <br> <div style='float: left;padding-left:30px;'><p>Press '1' for A</p></div><div style='float: right;padding-right:30px;'><p>Press '0' for B</p> </div> </div></div>","null","","","","","","","","","","","","","","","",""
"3140","","test","audio-keyboard-response","175","513960","0.0-8.0-1.72","5fc511c32b9bc60bc189b893","condE","","resources/audio/wordStim/S3_AI_22_axb_Step-3.wav","49","","","","","","resources/audio/wordStim/S3_AI_22_axb_Step-3.wav","S3","22","axb","3","MI","BL","S3-BL","0","1","false"
"null","","fixation","html-keyboard-response","176","514964","0.0-8.0-0.73","5fc511c32b9bc60bc189b893","condE","","<div class=""vertical-center"" style='width:60%;'><p style='font-weight:bold;'>Does the middle word sound more like the first word (A) or the last word (B)?</p> <br> <div class=""container""> <div id=""a-box""> <p class=""title-text"">A</h3></p> </div> <div id=""x-box""> <p class=""title-text"">X<p> </div> <div id=""b-box""> <p class=""title-text"">B</p></div> <br> <div style='float: left;padding-left:30px;'><p>Press '1' for A</p></div><div style='float: right;padding-right:30px;'><p>Press '0' for B</p> </div> </div></div>","null","","","","","","","","","","","","","","","",""
"3117","","test","audio-keyboard-response","177","518088","0.0-8.0-1.73","5fc511c32b9bc60bc189b893","condE","","resources/audio/wordStim/S3_AI_30_axb_Step-8.wav","48","","","","","","resources/audio/wordStim/S3_AI_30_axb_Step-8.wav","S3","30","axb","8","MI","BL","S3-BL","0","0","true"
"null","","fixation","html-keyboard-response","178","519094","0.0-8.0-0.74","5fc511c32b9bc60bc189b893","condE","","<div class=""vertical-center"" style='width:60%;'><p style='font-weight:bold;'>Does the middle word sound more like the first word (A) or the last word (B)?</p> <br> <div class=""container""> <div id=""a-box""> <p class=""title-text"">A</h3></p> </div> <div id=""x-box""> <p class=""title-text"">X<p> </div> <div id=""b-box""> <p class=""title-text"">B</p></div> <br> <div style='float: left;padding-left:30px;'><p>Press '1' for A</p></div><div style='float: right;padding-right:30px;'><p>Press '0' for B</p> </div> </div></div>","null","","","","","","","","","","","","","","","",""
"2972","","test","audio-keyboard-response","179","522067","0.0-8.0-1.74","5fc511c32b9bc60bc189b893","condE","","resources/audio/wordStim/S3_AU_19_bxa_Step-3.wav","48","","","","","","resources/audio/wordStim/S3_AU_19_bxa_Step-3.wav","S3","19","bxa","3","MI","BL","S3-BL","1","0","false"
"null","","fixation","html-keyboard-response","180","523071","0.0-8.0-0.75","5fc511c32b9bc60bc189b893","condE","","<div class=""vertical-center"" style='width:60%;'><p style='font-weight:bold;'>Does the middle word sound more like the first word (A) or the last word (B)?</p> <br> <div class=""container""> <div id=""a-box""> <p class=""title-text"">A</h3></p> </div> <div id=""x-box""> <p class=""title-text"">X<p> </div> <div id=""b-box""> <p class=""title-text"">B</p></div> <br> <div style='float: left;padding-left:30px;'><p>Press '1' for A</p></div><div style='float: right;padding-right:30px;'><p>Press '0' for B</p> </div> </div></div>","null","","","","","","","","","","","","","","","",""
"2659","","test","audio-keyboard-response","181","525728","0.0-8.0-1.75","5fc511c32b9bc60bc189b893","condE","","resources/audio/wordStim/S3_AU_19_bxa_Step-5.wav","49","","","","","","resources/audio/wordStim/S3_AU_19_bxa_Step-5.wav","S3","19","bxa","5","MI","BL","S3-BL","1","1","true"
"null","","fixation","html-keyboard-response","182","526734","0.0-8.0-0.76","5fc511c32b9bc60bc189b893","condE","","<div class=""vertical-center"" style='width:60%;'><p style='font-weight:bold;'>Does the middle word sound more like the first word (A) or the last word (B)?</p> <br> <div class=""container""> <div id=""a-box""> <p class=""title-text"">A</h3></p> </div> <div id=""x-box""> <p class=""title-text"">X<p> </div> <div id=""b-box""> <p class=""title-text"">B</p></div> <br> <div style='float: left;padding-left:30px;'><p>Press '1' for A</p></div><div style='float: right;padding-right:30px;'><p>Press '0' for B</p> </div> </div></div>","null","","","","","","","","","","","","","","","",""
"3123","","test","audio-keyboard-response","183","529856","0.0-8.0-1.76","5fc511c32b9bc60bc189b893","condE","","resources/audio/wordStim/S3_AI_22_bxa_Step-5.wav","49","","","","","","resources/audio/wordStim/S3_AI_22_bxa_Step-5.wav","S3","22","bxa","5","MI","BL","S3-BL","1","1","true"
"null","","fixation","html-keyboard-response","184","530860","0.0-8.0-0.77","5fc511c32b9bc60bc189b893","condE","","<div class=""vertical-center"" style='width:60%;'><p style='font-weight:bold;'>Does the middle word sound more like the first word (A) or the last word (B)?</p> <br> <div class=""container""> <div id=""a-box""> <p class=""title-text"">A</h3></p> </div> <div id=""x-box""> <p class=""title-text"">X<p> </div> <div id=""b-box""> <p class=""title-text"">B</p></div> <br> <div style='float: left;padding-left:30px;'><p>Press '1' for A</p></div><div style='float: right;padding-right:30px;'><p>Press '0' for B</p> </div> </div></div>","null","","","","","","","","","","","","","","","",""
"2955","","test","audio-keyboard-response","185","533819","0.0-8.0-1.77","5fc511c32b9bc60bc189b893","condE","","resources/audio/wordStim/S3_AU_20_axb_Step-4.wav","48","","","","","","resources/audio/wordStim/S3_AU_20_axb_Step-4.wav","S3","20","axb","4","MI","BL","S3-BL","0","0","true"
"null","","fixation","html-keyboard-response","186","534824","0.0-8.0-0.78","5fc511c32b9bc60bc189b893","condE","","<div class=""vertical-center"" style='width:60%;'><p style='font-weight:bold;'>Does the middle word sound more like the first word (A) or the last word (B)?</p> <br> <div class=""container""> <div id=""a-box""> <p class=""title-text"">A</h3></p> </div> <div id=""x-box""> <p class=""title-text"">X<p> </div> <div id=""b-box""> <p class=""title-text"">B</p></div> <br> <div style='float: left;padding-left:30px;'><p>Press '1' for A</p></div><div style='float: right;padding-right:30px;'><p>Press '0' for B</p> </div> </div></div>","null","","","","","","","","","","","","","","","",""
"2618","","test","audio-keyboard-response","187","537443","0.0-8.0-1.78","5fc511c32b9bc60bc189b893","condE","","resources/audio/wordStim/S3_AI_21_bxa_Step-2.wav","48","","","","","","resources/audio/wordStim/S3_AI_21_bxa_Step-2.wav","S3","21","bxa","2","MI","BL","S3-BL","1","0","false"
"null","","fixation","html-keyboard-response","188","538449","0.0-8.0-0.79","5fc511c32b9bc60bc189b893","condE","","<div class=""vertical-center"" style='width:60%;'><p style='font-weight:bold;'>Does the middle word sound more like the first word (A) or the last word (B)?</p> <br> <div class=""container""> <div id=""a-box""> <p class=""title-text"">A</h3></p> </div> <div id=""x-box""> <p class=""title-text"">X<p> </div> <div id=""b-box""> <p class=""title-text"">B</p></div> <br> <div style='float: left;padding-left:30px;'><p>Press '1' for A</p></div><div style='float: right;padding-right:30px;'><p>Press '0' for B</p> </div> </div></div>","null","","","","","","","","","","","","","","","",""
"3373","","test","audio-keyboard-response","189","541823","0.0-8.0-1.79","5fc511c32b9bc60bc189b893","condE","","resources/audio/wordStim/S3_AI_22_bxa_Step-6.wav","48","","","","","","resources/audio/wordStim/S3_AI_22_bxa_Step-6.wav","S3","22","bxa","6","MI","BL","S3-BL","1","0","false"
"null","","fixation","html-keyboard-response","190","542826","0.0-8.0-0.80","5fc511c32b9bc60bc189b893","condE","","<div class=""vertical-center"" style='width:60%;'><p style='font-weight:bold;'>Does the middle word sound more like the first word (A) or the last word (B)?</p> <br> <div class=""container""> <div id=""a-box""> <p class=""title-text"">A</h3></p> </div> <div id=""x-box""> <p class=""title-text"">X<p> </div> <div id=""b-box""> <p class=""title-text"">B</p></div> <br> <div style='float: left;padding-left:30px;'><p>Press '1' for A</p></div><div style='float: right;padding-right:30px;'><p>Press '0' for B</p> </div> </div></div>","null","","","","","","","","","","","","","","","",""
"3402","","test","audio-keyboard-response","191","546228","0.0-8.0-1.80","5fc511c32b9bc60bc189b893","condE","","resources/audio/wordStim/S3_AU_18_bxa_Step-8.wav","49","","","","","","resources/audio/wordStim/S3_AU_18_bxa_Step-8.wav","S3","18","bxa","8","MI","BL","S3-BL","1","1","true"
"null","","fixation","html-keyboard-response","192","547233","0.0-8.0-0.81","5fc511c32b9bc60bc189b893","condE","","<div class=""vertical-center"" style='width:60%;'><p style='font-weight:bold;'>Does the middle word sound more like the first word (A) or the last word (B)?</p> <br> <div class=""container""> <div id=""a-box""> <p class=""title-text"">A</h3></p> </div> <div id=""x-box""> <p class=""title-text"">X<p> </div> <div id=""b-box""> <p class=""title-text"">B</p></div> <br> <div style='float: left;padding-left:30px;'><p>Press '1' for A</p></div><div style='float: right;padding-right:30px;'><p>Press '0' for B</p> </div> </div></div>","null","","","","","","","","","","","","","","","",""
"4000","","test","audio-keyboard-response","193","551234","0.0-8.0-1.81","5fc511c32b9bc60bc189b893","condE","","resources/audio/wordStim/S3_AU_18_bxa_Step-7.wav","48","","","","","","resources/audio/wordStim/S3_AU_18_bxa_Step-7.wav","S3","18","bxa","7","MI","BL","S3-BL","1","0","false"
"null","","fixation","html-keyboard-response","194","552241","0.0-8.0-0.82","5fc511c32b9bc60bc189b893","condE","","<div class=""vertical-center"" style='width:60%;'><p style='font-weight:bold;'>Does the middle word sound more like the first word (A) or the last word (B)?</p> <br> <div class=""container""> <div id=""a-box""> <p class=""title-text"">A</h3></p> </div> <div id=""x-box""> <p class=""title-text"">X<p> </div> <div id=""b-box""> <p class=""title-text"">B</p></div> <br> <div style='float: left;padding-left:30px;'><p>Press '1' for A</p></div><div style='float: right;padding-right:30px;'><p>Press '0' for B</p> </div> </div></div>","null","","","","","","","","","","","","","","","",""
"3767","","test","audio-keyboard-response","195","556008","0.0-8.0-1.82","5fc511c32b9bc60bc189b893","condE","","resources/audio/wordStim/S3_AU_18_axb_Step-3.wav","49","","","","","","resources/audio/wordStim/S3_AU_18_axb_Step-3.wav","S3","18","axb","3","MI","BL","S3-BL","0","1","false"
"null","","fixation","html-keyboard-response","196","557013","0.0-8.0-0.83","5fc511c32b9bc60bc189b893","condE","","<div class=""vertical-center"" style='width:60%;'><p style='font-weight:bold;'>Does the middle word sound more like the first word (A) or the last word (B)?</p> <br> <div class=""container""> <div id=""a-box""> <p class=""title-text"">A</h3></p> </div> <div id=""x-box""> <p class=""title-text"">X<p> </div> <div id=""b-box""> <p class=""title-text"">B</p></div> <br> <div style='float: left;padding-left:30px;'><p>Press '1' for A</p></div><div style='float: right;padding-right:30px;'><p>Press '0' for B</p> </div> </div></div>","null","","","","","","","","","","","","","","","",""
"4969","","test","audio-keyboard-response","197","561982","0.0-8.0-1.83","5fc511c32b9bc60bc189b893","condE","","resources/audio/wordStim/S3_AI_21_axb_Step-7.wav","48","","","","","","resources/audio/wordStim/S3_AI_21_axb_Step-7.wav","S3","21","axb","7","MI","BL","S3-BL","0","0","true"
"3491.8500000004424","","break","html-keyboard-response","198","565997","0.0-9.0","5fc511c32b9bc60bc189b893","condE","","<div class=""vertical-center""><p>You're halfway through the experiment! Feel free to take a break before moving on.</p><i>When you're ready to continue, press SPACE.</i></p></div>","32","","","","","","","","","","","","","","","",""
"null","","fixation","html-keyboard-response","199","566499","0.0-10.0-0.0","5fc511c32b9bc60bc189b893","condE","","<div class=""vertical-center"" style='width:60%;'><p style='font-weight:bold;'>Does the middle word sound more like the first word (A) or the last word (B)?</p> <br> <div class=""container""> <div id=""a-box""> <p class=""title-text"">A</h3></p> </div> <div id=""x-box""> <p class=""title-text"">X<p> </div> <div id=""b-box""> <p class=""title-text"">B</p></div> <br> <div style='float: left;padding-left:30px;'><p>Press '1' for A</p></div><div style='float: right;padding-right:30px;'><p>Press '0' for B</p> </div> </div></div>","null","","","","","","","","","","","","","","","",""
"4087","","test","audio-keyboard-response","200","570585","0.0-10.0-1.0","5fc511c32b9bc60bc189b893","condE","","resources/audio/wordStim/S3_AU_18_bxa_Step-6.wav","49","","","","","","resources/audio/wordStim/S3_AU_18_bxa_Step-6.wav","S3","18","bxa","6","MI","BL","S3-BL","1","1","true"
"null","","fixation","html-keyboard-response","201","571591","0.0-10.0-0.1","5fc511c32b9bc60bc189b893","condE","","<div class=""vertical-center"" style='width:60%;'><p style='font-weight:bold;'>Does the middle word sound more like the first word (A) or the last word (B)?</p> <br> <div class=""container""> <div id=""a-box""> <p class=""title-text"">A</h3></p> </div> <div id=""x-box""> <p class=""title-text"">X<p> </div> <div id=""b-box""> <p class=""title-text"">B</p></div> <br> <div style='float: left;padding-left:30px;'><p>Press '1' for A</p></div><div style='float: right;padding-right:30px;'><p>Press '0' for B</p> </div> </div></div>","null","","","","","","","","","","","","","","","",""
"3077","","test","audio-keyboard-response","202","574667","0.0-10.0-1.1","5fc511c32b9bc60bc189b893","condE","","resources/audio/wordStim/S3_AI_22_bxa_Step-3.wav","48","","","","","","resources/audio/wordStim/S3_AI_22_bxa_Step-3.wav","S3","22","bxa","3","MI","BL","S3-BL","1","0","false"
"null","","fixation","html-keyboard-response","203","575672","0.0-10.0-0.2","5fc511c32b9bc60bc189b893","condE","","<div class=""vertical-center"" style='width:60%;'><p style='font-weight:bold;'>Does the middle word sound more like the first word (A) or the last word (B)?</p> <br> <div class=""container""> <div id=""a-box""> <p class=""title-text"">A</h3></p> </div> <div id=""x-box""> <p class=""title-text"">X<p> </div> <div id=""b-box""> <p class=""title-text"">B</p></div> <br> <div style='float: left;padding-left:30px;'><p>Press '1' for A</p></div><div style='float: right;padding-right:30px;'><p>Press '0' for B</p> </div> </div></div>","null","","","","","","","","","","","","","","","",""
"2577","","test","audio-keyboard-response","204","578250","0.0-10.0-1.2","5fc511c32b9bc60bc189b893","condE","","resources/audio/wordStim/S3_AI_21_axb_Step-7.wav","48","","","","","","resources/audio/wordStim/S3_AI_21_axb_Step-7.wav","S3","21","axb","7","MI","BL","S3-BL","0","0","true"
"null","","fixation","html-keyboard-response","205","579254","0.0-10.0-0.3","5fc511c32b9bc60bc189b893","condE","","<div class=""vertical-center"" style='width:60%;'><p style='font-weight:bold;'>Does the middle word sound more like the first word (A) or the last word (B)?</p> <br> <div class=""container""> <div id=""a-box""> <p class=""title-text"">A</h3></p> </div> <div id=""x-box""> <p class=""title-text"">X<p> </div> <div id=""b-box""> <p class=""title-text"">B</p></div> <br> <div style='float: left;padding-left:30px;'><p>Press '1' for A</p></div><div style='float: right;padding-right:30px;'><p>Press '0' for B</p> </div> </div></div>","null","","","","","","","","","","","","","","","",""
"3053","","test","audio-keyboard-response","206","582306","0.0-10.0-1.3","5fc511c32b9bc60bc189b893","condE","","resources/audio/wordStim/S3_AU_19_axb_Step-2.wav","49","","","","","","resources/audio/wordStim/S3_AU_19_axb_Step-2.wav","S3","19","axb","2","MI","BL","S3-BL","0","1","false"
"null","","fixation","html-keyboard-response","207","583312","0.0-10.0-0.4","5fc511c32b9bc60bc189b893","condE","","<div class=""vertical-center"" style='width:60%;'><p style='font-weight:bold;'>Does the middle word sound more like the first word (A) or the last word (B)?</p> <br> <div class=""container""> <div id=""a-box""> <p class=""title-text"">A</h3></p> </div> <div id=""x-box""> <p class=""title-text"">X<p> </div> <div id=""b-box""> <p class=""title-text"">B</p></div> <br> <div style='float: left;padding-left:30px;'><p>Press '1' for A</p></div><div style='float: right;padding-right:30px;'><p>Press '0' for B</p> </div> </div></div>","null","","","","","","","","","","","","","","","",""
"3088","","test","audio-keyboard-response","208","586398","0.0-10.0-1.4","5fc511c32b9bc60bc189b893","condE","","resources/audio/wordStim/S3_AI_22_axb_Step-6.wav","48","","","","","","resources/audio/wordStim/S3_AI_22_axb_Step-6.wav","S3","22","axb","6","MI","BL","S3-BL","0","0","true"
"null","","fixation","html-keyboard-response","209","587404","0.0-10.0-0.5","5fc511c32b9bc60bc189b893","condE","","<div class=""vertical-center"" style='width:60%;'><p style='font-weight:bold;'>Does the middle word sound more like the first word (A) or the last word (B)?</p> <br> <div class=""container""> <div id=""a-box""> <p class=""title-text"">A</h3></p> </div> <div id=""x-box""> <p class=""title-text"">X<p> </div> <div id=""b-box""> <p class=""title-text"">B</p></div> <br> <div style='float: left;padding-left:30px;'><p>Press '1' for A</p></div><div style='float: right;padding-right:30px;'><p>Press '0' for B</p> </div> </div></div>","null","","","","","","","","","","","","","","","",""
"3222","","test","audio-keyboard-response","210","590627","0.0-10.0-1.5","5fc511c32b9bc60bc189b893","condE","","resources/audio/wordStim/S3_AU_18_axb_Step-8.wav","49","","","","","","resources/audio/wordStim/S3_AU_18_axb_Step-8.wav","S3","18","axb","8","MI","BL","S3-BL","0","1","false"
"null","","fixation","html-keyboard-response","211","591632","0.0-10.0-0.6","5fc511c32b9bc60bc189b893","condE","","<div class=""vertical-center"" style='width:60%;'><p style='font-weight:bold;'>Does the middle word sound more like the first word (A) or the last word (B)?</p> <br> <div class=""container""> <div id=""a-box""> <p class=""title-text"">A</h3></p> </div> <div id=""x-box""> <p class=""title-text"">X<p> </div> <div id=""b-box""> <p class=""title-text"">B</p></div> <br> <div style='float: left;padding-left:30px;'><p>Press '1' for A</p></div><div style='float: right;padding-right:30px;'><p>Press '0' for B</p> </div> </div></div>","null","","","","","","","","","","","","","","","",""
