"rt","url","trial_role","trial_type","trial_index","time_elapsed","internal_node_id","participantId","conditionId","view_history","stimulus","key_press","button_pressed","correct_answer","correct_response","success","vowel","wordStim","speaker","sentNum","order","step","speakerIdentity","speakerGuise","guiseName","raised_answer","key_response","raised_response"
"220565","micr.axb.consent.html","consent","external-html","0","220655","0.0-0.0","5a5a507d76d1c60001ab2ac7","condB","","","","","","","","","","","","","","","","","","",""
"85490","","instructions","instructions","1","306153","0.0-1.0","5a5a507d76d1c60001ab2ac7","condB","[{""page_index"":0,""viewing_time"":47407},{""page_index"":1,""viewing_time"":22753},{""page_index"":2,""viewing_time"":15329}]","","","","","","","","","","","","","","","","","",""
"null","","fixation","html-keyboard-response","2","306679","0.0-2.0-0.0","5a5a507d76d1c60001ab2ac7","condB","","<div class=""vertical-center"" style=""font-size:60px;"">+</div>","null","","","","","","","","","","","","","","","",""
"9708","","tonetest","audio-button-response","3","316392","0.0-2.0-1.0","5a5a507d76d1c60001ab2ac7","condB","","../../src/audio/toneTest_5.wav","","0","0","true","","","","","","","","","","","","",""
"null","","fixation","html-keyboard-response","4","316905","0.0-2.0-0.1","5a5a507d76d1c60001ab2ac7","condB","","<div class=""vertical-center"" style=""font-size:60px;"">+</div>","null","","","","","","","","","","","","","","","",""
"3788","","tonetest","audio-button-response","5","320695","0.0-2.0-1.1","5a5a507d76d1c60001ab2ac7","condB","","../../src/audio/toneTest_5.wav","","1","0","false","","","","","","","","","","","","",""
"null","","fixation","html-keyboard-response","6","321200","0.0-2.0-0.2","5a5a507d76d1c60001ab2ac7","condB","","<div class=""vertical-center"" style=""font-size:60px;"">+</div>","null","","","","","","","","","","","","","","","",""
"3414","","tonetest","audio-button-response","7","324616","0.0-2.0-1.2","5a5a507d76d1c60001ab2ac7","condB","","../../src/audio/toneTest_5.wav","","2","0","false","","","","","","","","","","","","",""
"null","","fixation","html-keyboard-response","8","325138","0.0-2.0-0.3","5a5a507d76d1c60001ab2ac7","condB","","<div class=""vertical-center"" style=""font-size:60px;"">+</div>","null","","","","","","","","","","","","","","","",""
"5044","","tonetest","audio-button-response","9","330184","0.0-2.0-1.3","5a5a507d76d1c60001ab2ac7","condB","","../../src/audio/toneTest_4.wav","","0","1","false","","","","","","","","","","","","",""
"null","","fixation","html-keyboard-response","10","330689","0.0-2.0-0.4","5a5a507d76d1c60001ab2ac7","condB","","<div class=""vertical-center"" style=""font-size:60px;"">+</div>","null","","","","","","","","","","","","","","","",""
"1998","","tonetest","audio-button-response","11","332689","0.0-2.0-1.4","5a5a507d76d1c60001ab2ac7","condB","","../../src/audio/toneTest_2.wav","","1","1","true","","","","","","","","","","","","",""
"null","","fixation","html-keyboard-response","12","333198","0.0-2.0-0.5","5a5a507d76d1c60001ab2ac7","condB","","<div class=""vertical-center"" style=""font-size:60px;"">+</div>","null","","","","","","","","","","","","","","","",""
"1000","","tonetest","audio-button-response","13","334201","0.0-2.0-1.5","5a5a507d76d1c60001ab2ac7","condB","","../../src/audio/toneTest_6.wav","","2","0","false","","","","","","","","","","","","",""
"94297","","instructions","html-keyboard-response","14","428503","0.0-3.0","5a5a507d76d1c60001ab2ac7","condB","","<div class=""vertical-center""><p><b>Your score was 2/6.</b></p><p>If you scored below 6, please ensure that you are wearing properly functioning headphones and in a quiet location free of distractions.</p><p><i>To continue to the main experiment, press SPACE.</i></p></div>","32","","","","","","","","","","","","","","","",""
"","","","fullscreen","15","437512","0.0-4.0","5a5a507d76d1c60001ab2ac7","condB","","","","","","","true","","","","","","","","","","","",""
"28672","","instructions","instructions","16","466188","0.0-5.0","5a5a507d76d1c60001ab2ac7","condB","[{""page_index"":0,""viewing_time"":28672}]","","","","","","","","","","","","","","","","","",""
"null","","fixation","html-keyboard-response","17","466704","0.0-6.0-0.0","5a5a507d76d1c60001ab2ac7","condB","","<div class=""vertical-center"" style='width:60%;'><p style='font-weight:bold;'>Does the middle word sound more like the first word (A) or the last word (B)?</p> <br> <div class=""container""> <div id=""a-box""> <p class=""title-text"">A</h3></p> </div> <div id=""x-box""> <p class=""title-text"">X<p> </div> <div id=""b-box""> <p class=""title-text"">B</p></div> <br> <div style='float: left;padding-left:30px;'><p>Press '1' for A</p></div><div style='float: right;padding-right:30px;'><p>Press '0' for B</p> </div> </div></div>","null","","","","","","","","","","","","","","","",""
"11971","","practice","audio-keyboard-response","18","478669","0.0-6.0-1.0","5a5a507d76d1c60001ab2ac7","condB","","resources/audio/practiceStim/S1_AU_14_bxa_Step-6.wav","49","","","","","","","","","","","","","","","",""
"null","","fixation","html-keyboard-response","19","479704","0.0-6.0-0.1","5a5a507d76d1c60001ab2ac7","condB","","<div class=""vertical-center"" style='width:60%;'><p style='font-weight:bold;'>Does the middle word sound more like the first word (A) or the last word (B)?</p> <br> <div class=""container""> <div id=""a-box""> <p class=""title-text"">A</h3></p> </div> <div id=""x-box""> <p class=""title-text"">X<p> </div> <div id=""b-box""> <p class=""title-text"">B</p></div> <br> <div style='float: left;padding-left:30px;'><p>Press '1' for A</p></div><div style='float: right;padding-right:30px;'><p>Press '0' for B</p> </div> </div></div>","null","","","","","","","","","","","","","","","",""
"6320","","practice","audio-keyboard-response","20","486027","0.0-6.0-1.1","5a5a507d76d1c60001ab2ac7","condB","","resources/audio/practiceStim/S1_AU_14_axb_Step-6.wav","49","","","","","","","","","","","","","","","",""
"null","","fixation","html-keyboard-response","21","487045","0.0-6.0-0.2","5a5a507d76d1c60001ab2ac7","condB","","<div class=""vertical-center"" style='width:60%;'><p style='font-weight:bold;'>Does the middle word sound more like the first word (A) or the last word (B)?</p> <br> <div class=""container""> <div id=""a-box""> <p class=""title-text"">A</h3></p> </div> <div id=""x-box""> <p class=""title-text"">X<p> </div> <div id=""b-box""> <p class=""title-text"">B</p></div> <br> <div style='float: left;padding-left:30px;'><p>Press '1' for A</p></div><div style='float: right;padding-right:30px;'><p>Press '0' for B</p> </div> </div></div>","null","","","","","","","","","","","","","","","",""
"7741","","practice","audio-keyboard-response","22","494782","0.0-6.0-1.2","5a5a507d76d1c60001ab2ac7","condB","","resources/audio/practiceStim/S1_AI_21_axb_Step-6.wav","48","","","","","","","","","","","","","","","",""
"null","","fixation","html-keyboard-response","23","495794","0.0-6.0-0.3","5a5a507d76d1c60001ab2ac7","condB","","<div class=""vertical-center"" style='width:60%;'><p style='font-weight:bold;'>Does the middle word sound more like the first word (A) or the last word (B)?</p> <br> <div class=""container""> <div id=""a-box""> <p class=""title-text"">A</h3></p> </div> <div id=""x-box""> <p class=""title-text"">X<p> </div> <div id=""b-box""> <p class=""title-text"">B</p></div> <br> <div style='float: left;padding-left:30px;'><p>Press '1' for A</p></div><div style='float: right;padding-right:30px;'><p>Press '0' for B</p> </div> </div></div>","null","","","","","","","","","","","","","","","",""
"7408","","practice","audio-keyboard-response","24","503199","0.0-6.0-1.3","5a5a507d76d1c60001ab2ac7","condB","","resources/audio/practiceStim/S1_AI_21_bxa_Step-6.wav","48","","","","","","","","","","","","","","","",""
"4034","","instructions","instructions","25","507749","0.0-7.0","5a5a507d76d1c60001ab2ac7","condB","[{""page_index"":0,""viewing_time"":4033}]","","","","","","","","","","","","","","","","","",""
"5494","","","html-keyboard-response","26","513246","0.0-8.0","5a5a507d76d1c60001ab2ac7","condB","","<div class=""vertical-center""><img src=""resources/images/CN_face_b.png"" style=""width:450px;height:300px;""><p>This is the speaker you're about to hear. She is from Vancouver, Canada.</p><p> <br> <i>Press SPACE to continue.</i></p></div>","32","","","","","","","","","","","","","","","",""
"null","","fixation","html-keyboard-response","27","513766","0.0-9.0-0.0","5a5a507d76d1c60001ab2ac7","condB","","<div class=""vertical-center"" style='width:60%;'><img src=""resources/images/CN_flag_100x52.jpg"" style=""width:100px;height:52px;opacity:0.35;""> <br> <br> <p style='font-weight:bold;'>Does the middle word sound more like the first word (A) or the last word (B)?</p> <br> <div class=""container""> <div id=""a-box""> <p class=""title-text"">A</h3></p> </div> <div id=""x-box""> <p class=""title-text"">X<p> </div> <div id=""b-box""> <p class=""title-text"">B</p></div> <br> <div style='float: left;padding-left:30px;'><p>Press '1' for A</p></div><div style='float: right;padding-right:30px;'><p>Press '0' for B</p> </div> </div></div>","null","","","","","","","","","","","","","","","",""
"18032","","test","audio-keyboard-response","28","531796","0.0-9.0-1.0","5a5a507d76d1c60001ab2ac7","condB","","resources/audio/wordStim/S9_AI_23_axb_Step-4.wav","48","","","","","","resources/audio/wordStim/S9_AI_23_axb_Step-4.wav","S9","23","axb","4","CN","CN","S9-CN","0","0","true"
"null","","fixation","html-keyboard-response","29","532826","0.0-9.0-0.1","5a5a507d76d1c60001ab2ac7","condB","","<div class=""vertical-center"" style='width:60%;'><img src=""resources/images/CN_flag_100x52.jpg"" style=""width:100px;height:52px;opacity:0.35;""> <br> <br> <p style='font-weight:bold;'>Does the middle word sound more like the first word (A) or the last word (B)?</p> <br> <div class=""container""> <div id=""a-box""> <p class=""title-text"">A</h3></p> </div> <div id=""x-box""> <p class=""title-text"">X<p> </div> <div id=""b-box""> <p class=""title-text"">B</p></div> <br> <div style='float: left;padding-left:30px;'><p>Press '1' for A</p></div><div style='float: right;padding-right:30px;'><p>Press '0' for B</p> </div> </div></div>","null","","","","","","","","","","","","","","","",""
"18480","","test","audio-keyboard-response","30","551307","0.0-9.0-1.1","5a5a507d76d1c60001ab2ac7","condB","","resources/audio/wordStim/S9_AU_20_bxa_Step-5.wav","49","","","","","","resources/audio/wordStim/S9_AU_20_bxa_Step-5.wav","S9","20","bxa","5","CN","CN","S9-CN","1","1","true"
"null","","fixation","html-keyboard-response","31","552337","0.0-9.0-0.2","5a5a507d76d1c60001ab2ac7","condB","","<div class=""vertical-center"" style='width:60%;'><img src=""resources/images/CN_flag_100x52.jpg"" style=""width:100px;height:52px;opacity:0.35;""> <br> <br> <p style='font-weight:bold;'>Does the middle word sound more like the first word (A) or the last word (B)?</p> <br> <div class=""container""> <div id=""a-box""> <p class=""title-text"">A</h3></p> </div> <div id=""x-box""> <p class=""title-text"">X<p> </div> <div id=""b-box""> <p class=""title-text"">B</p></div> <br> <div style='float: left;padding-left:30px;'><p>Press '1' for A</p></div><div style='float: right;padding-right:30px;'><p>Press '0' for B</p> </div> </div></div>","null","","","","","","","","","","","","","","","",""
"6211","","test","audio-keyboard-response","32","558545","0.0-9.0-1.2","5a5a507d76d1c60001ab2ac7","condB","","resources/audio/wordStim/S9_AI_25_bxa_Step-2.wav","48","","","","","","resources/audio/wordStim/S9_AI_25_bxa_Step-2.wav","S9","25","bxa","2","CN","CN","S9-CN","1","0","false"
"null","","fixation","html-keyboard-response","33","559572","0.0-9.0-0.3","5a5a507d76d1c60001ab2ac7","condB","","<div class=""vertical-center"" style='width:60%;'><img src=""resources/images/CN_flag_100x52.jpg"" style=""width:100px;height:52px;opacity:0.35;""> <br> <br> <p style='font-weight:bold;'>Does the middle word sound more like the first word (A) or the last word (B)?</p> <br> <div class=""container""> <div id=""a-box""> <p class=""title-text"">A</h3></p> </div> <div id=""x-box""> <p class=""title-text"">X<p> </div> <div id=""b-box""> <p class=""title-text"">B</p></div> <br> <div style='float: left;padding-left:30px;'><p>Press '1' for A</p></div><div style='float: right;padding-right:30px;'><p>Press '0' for B</p> </div> </div></div>","null","","","","","","","","","","","","","","","",""
"9301","","test","audio-keyboard-response","34","568879","0.0-9.0-1.3","5a5a507d76d1c60001ab2ac7","condB","","resources/audio/wordStim/S9_AU_18_bxa_Step-5.wav","48","","","","","","resources/audio/wordStim/S9_AU_18_bxa_Step-5.wav","S9","18","bxa","5","CN","CN","S9-CN","1","0","false"
"null","","fixation","html-keyboard-response","35","569906","0.0-9.0-0.4","5a5a507d76d1c60001ab2ac7","condB","","<div class=""vertical-center"" style='width:60%;'><img src=""resources/images/CN_flag_100x52.jpg"" style=""width:100px;height:52px;opacity:0.35;""> <br> <br> <p style='font-weight:bold;'>Does the middle word sound more like the first word (A) or the last word (B)?</p> <br> <div class=""container""> <div id=""a-box""> <p class=""title-text"">A</h3></p> </div> <div id=""x-box""> <p class=""title-text"">X<p> </div> <div id=""b-box""> <p class=""title-text"">B</p></div> <br> <div style='float: left;padding-left:30px;'><p>Press '1' for A</p></div><div style='float: right;padding-right:30px;'><p>Press '0' for B</p> </div> </div></div>","null","","","","","","","","","","","","","","","",""
"6000","","test","audio-keyboard-response","36","575909","0.0-9.0-1.4","5a5a507d76d1c60001ab2ac7","condB","","resources/audio/wordStim/S9_AI_23_axb_Step-2.wav","49","","","","","","resources/audio/wordStim/S9_AI_23_axb_Step-2.wav","S9","23","axb","2","CN","CN","S9-CN","0","1","false"
"null","","fixation","html-keyboard-response","37","576947","0.0-9.0-0.5","5a5a507d76d1c60001ab2ac7","condB","","<div class=""vertical-center"" style='width:60%;'><img src=""resources/images/CN_flag_100x52.jpg"" style=""width:100px;height:52px;opacity:0.35;""> <br> <br> <p style='font-weight:bold;'>Does the middle word sound more like the first word (A) or the last word (B)?</p> <br> <div class=""container""> <div id=""a-box""> <p class=""title-text"">A</h3></p> </div> <div id=""x-box""> <p class=""title-text"">X<p> </div> <div id=""b-box""> <p class=""title-text"">B</p></div> <br> <div style='float: left;padding-left:30px;'><p>Press '1' for A</p></div><div style='float: right;padding-right:30px;'><p>Press '0' for B</p> </div> </div></div>","null","","","","","","","","","","","","","","","",""
"4651","","test","audio-keyboard-response","38","581594","0.0-9.0-1.5","5a5a507d76d1c60001ab2ac7","condB","","resources/audio/wordStim/S9_AU_20_bxa_Step-4.wav","48","","","","","","resources/audio/wordStim/S9_AU_20_bxa_Step-4.wav","S9","20","bxa","4","CN","CN","S9-CN","1","0","false"
"null","","fixation","html-keyboard-response","39","582618","0.0-9.0-0.6","5a5a507d76d1c60001ab2ac7","condB","","<div class=""vertical-center"" style='width:60%;'><img src=""resources/images/CN_flag_100x52.jpg"" style=""width:100px;height:52px;opacity:0.35;""> <br> <br> <p style='font-weight:bold;'>Does the middle word sound more like the first word (A) or the last word (B)?</p> <br> <div class=""container""> <div id=""a-box""> <p class=""title-text"">A</h3></p> </div> <div id=""x-box""> <p class=""title-text"">X<p> </div> <div id=""b-box""> <p class=""title-text"">B</p></div> <br> <div style='float: left;padding-left:30px;'><p>Press '1' for A</p></div><div style='float: right;padding-right:30px;'><p>Press '0' for B</p> </div> </div></div>","null","","","","","","","","","","","","","","","",""
"5411","","test","audio-keyboard-response","40","588027","0.0-9.0-1.6","5a5a507d76d1c60001ab2ac7","condB","","resources/audio/wordStim/S9_AI_29_axb_Step-7.wav","48","","","","","","resources/audio/wordStim/S9_AI_29_axb_Step-7.wav","S9","29","axb","7","CN","CN","S9-CN","0","0","true"
"null","","fixation","html-keyboard-response","41","589058","0.0-9.0-0.7","5a5a507d76d1c60001ab2ac7","condB","","<div class=""vertical-center"" style='width:60%;'><img src=""resources/images/CN_flag_100x52.jpg"" style=""width:100px;height:52px;opacity:0.35;""> <br> <br> <p style='font-weight:bold;'>Does the middle word sound more like the first word (A) or the last word (B)?</p> <br> <div class=""container""> <div id=""a-box""> <p class=""title-text"">A</h3></p> </div> <div id=""x-box""> <p class=""title-text"">X<p> </div> <div id=""b-box""> <p class=""title-text"">B</p></div> <br> <div style='float: left;padding-left:30px;'><p>Press '1' for A</p></div><div style='float: right;padding-right:30px;'><p>Press '0' for B</p> </div> </div></div>","null","","","","","","","","","","","","","","","",""
"4931","","test","audio-keyboard-response","42","593985","0.0-9.0-1.7","5a5a507d76d1c60001ab2ac7","condB","","resources/audio/wordStim/S9_AI_25_axb_Step-5.wav","49","","","","","","resources/audio/wordStim/S9_AI_25_axb_Step-5.wav","S9","25","axb","5","CN","CN","S9-CN","0","1","false"
"null","","fixation","html-keyboard-response","43","594998","0.0-9.0-0.8","5a5a507d76d1c60001ab2ac7","condB","","<div class=""vertical-center"" style='width:60%;'><img src=""resources/images/CN_flag_100x52.jpg"" style=""width:100px;height:52px;opacity:0.35;""> <br> <br> <p style='font-weight:bold;'>Does the middle word sound more like the first word (A) or the last word (B)?</p> <br> <div class=""container""> <div id=""a-box""> <p class=""title-text"">A</h3></p> </div> <div id=""x-box""> <p class=""title-text"">X<p> </div> <div id=""b-box""> <p class=""title-text"">B</p></div> <br> <div style='float: left;padding-left:30px;'><p>Press '1' for A</p></div><div style='float: right;padding-right:30px;'><p>Press '0' for B</p> </div> </div></div>","null","","","","","","","","","","","","","","","",""
"5989","","test","audio-keyboard-response","44","600989","0.0-9.0-1.8","5a5a507d76d1c60001ab2ac7","condB","","resources/audio/wordStim/S9_AU_11_axb_Step-7.wav","49","","","","","","resources/audio/wordStim/S9_AU_11_axb_Step-7.wav","S9","11","axb","7","CN","CN","S9-CN","0","1","false"
"null","","fixation","html-keyboard-response","45","602028","0.0-9.0-0.9","5a5a507d76d1c60001ab2ac7","condB","","<div class=""vertical-center"" style='width:60%;'><img src=""resources/images/CN_flag_100x52.jpg"" style=""width:100px;height:52px;opacity:0.35;""> <br> <br> <p style='font-weight:bold;'>Does the middle word sound more like the first word (A) or the last word (B)?</p> <br> <div class=""container""> <div id=""a-box""> <p class=""title-text"">A</h3></p> </div> <div id=""x-box""> <p class=""title-text"">X<p> </div> <div id=""b-box""> <p class=""title-text"">B</p></div> <br> <div style='float: left;padding-left:30px;'><p>Press '1' for A</p></div><div style='float: right;padding-right:30px;'><p>Press '0' for B</p> </div> </div></div>","null","","","","","","","","","","","","","","","",""
"5011","","test","audio-keyboard-response","46","607032","0.0-9.0-1.9","5a5a507d76d1c60001ab2ac7","condB","","resources/audio/wordStim/S9_AI_29_bxa_Step-4.wav","49","","","","","","resources/audio/wordStim/S9_AI_29_bxa_Step-4.wav","S9","29","bxa","4","CN","CN","S9-CN","1","1","true"
"null","","fixation","html-keyboard-response","47","608068","0.0-9.0-0.10","5a5a507d76d1c60001ab2ac7","condB","","<div class=""vertical-center"" style='width:60%;'><img src=""resources/images/CN_flag_100x52.jpg"" style=""width:100px;height:52px;opacity:0.35;""> <br> <br> <p style='font-weight:bold;'>Does the middle word sound more like the first word (A) or the last word (B)?</p> <br> <div class=""container""> <div id=""a-box""> <p class=""title-text"">A</h3></p> </div> <div id=""x-box""> <p class=""title-text"">X<p> </div> <div id=""b-box""> <p class=""title-text"">B</p></div> <br> <div style='float: left;padding-left:30px;'><p>Press '1' for A</p></div><div style='float: right;padding-right:30px;'><p>Press '0' for B</p> </div> </div></div>","null","","","","","","","","","","","","","","","",""
"4899","","test","audio-keyboard-response","48","612965","0.0-9.0-1.10","5a5a507d76d1c60001ab2ac7","condB","","resources/audio/wordStim/S9_AU_11_bxa_Step-2.wav","49","","","","","","resources/audio/wordStim/S9_AU_11_bxa_Step-2.wav","S9","11","bxa","2","CN","CN","S9-CN","1","1","true"
"null","","fixation","html-keyboard-response","49","613998","0.0-9.0-0.11","5a5a507d76d1c60001ab2ac7","condB","","<div class=""vertical-center"" style='width:60%;'><img src=""resources/images/CN_flag_100x52.jpg"" style=""width:100px;height:52px;opacity:0.35;""> <br> <br> <p style='font-weight:bold;'>Does the middle word sound more like the first word (A) or the last word (B)?</p> <br> <div class=""container""> <div id=""a-box""> <p class=""title-text"">A</h3></p> </div> <div id=""x-box""> <p class=""title-text"">X<p> </div> <div id=""b-box""> <p class=""title-text"">B</p></div> <br> <div style='float: left;padding-left:30px;'><p>Press '1' for A</p></div><div style='float: right;padding-right:30px;'><p>Press '0' for B</p> </div> </div></div>","null","","","","","","","","","","","","","","","",""
"5368","","test","audio-keyboard-response","50","619364","0.0-9.0-1.11","5a5a507d76d1c60001ab2ac7","condB","","resources/audio/wordStim/S9_AU_18_axb_Step-6.wav","48","","","","","","resources/audio/wordStim/S9_AU_18_axb_Step-6.wav","S9","18","axb","6","CN","CN","S9-CN","0","0","true"
"null","","fixation","html-keyboard-response","51","620389","0.0-9.0-0.12","5a5a507d76d1c60001ab2ac7","condB","","<div class=""vertical-center"" style='width:60%;'><img src=""resources/images/CN_flag_100x52.jpg"" style=""width:100px;height:52px;opacity:0.35;""> <br> <br> <p style='font-weight:bold;'>Does the middle word sound more like the first word (A) or the last word (B)?</p> <br> <div class=""container""> <div id=""a-box""> <p class=""title-text"">A</h3></p> </div> <div id=""x-box""> <p class=""title-text"">X<p> </div> <div id=""b-box""> <p class=""title-text"">B</p></div> <br> <div style='float: left;padding-left:30px;'><p>Press '1' for A</p></div><div style='float: right;padding-right:30px;'><p>Press '0' for B</p> </div> </div></div>","null","","","","","","","","","","","","","","","",""
"4200","","test","audio-keyboard-response","52","624590","0.0-9.0-1.12","5a5a507d76d1c60001ab2ac7","condB","","resources/audio/wordStim/S9_AI_25_axb_Step-6.wav","48","","","","","","resources/audio/wordStim/S9_AI_25_axb_Step-6.wav","S9","25","axb","6","CN","CN","S9-CN","0","0","true"
"null","","fixation","html-keyboard-response","53","625628","0.0-9.0-0.13","5a5a507d76d1c60001ab2ac7","condB","","<div class=""vertical-center"" style='width:60%;'><img src=""resources/images/CN_flag_100x52.jpg"" style=""width:100px;height:52px;opacity:0.35;""> <br> <br> <p style='font-weight:bold;'>Does the middle word sound more like the first word (A) or the last word (B)?</p> <br> <div class=""container""> <div id=""a-box""> <p class=""title-text"">A</h3></p> </div> <div id=""x-box""> <p class=""title-text"">X<p> </div> <div id=""b-box""> <p class=""title-text"">B</p></div> <br> <div style='float: left;padding-left:30px;'><p>Press '1' for A</p></div><div style='float: right;padding-right:30px;'><p>Press '0' for B</p> </div> </div></div>","null","","","","","","","","","","","","","","","",""
"3571","","test","audio-keyboard-response","54","629192","0.0-9.0-1.13","5a5a507d76d1c60001ab2ac7","condB","","resources/audio/wordStim/S9_AI_29_axb_Step-5.wav","48","","","","","","resources/audio/wordStim/S9_AI_29_axb_Step-5.wav","S9","29","axb","5","CN","CN","S9-CN","0","0","true"
"null","","fixation","html-keyboard-response","55","630219","0.0-9.0-0.14","5a5a507d76d1c60001ab2ac7","condB","","<div class=""vertical-center"" style='width:60%;'><img src=""resources/images/CN_flag_100x52.jpg"" style=""width:100px;height:52px;opacity:0.35;""> <br> <br> <p style='font-weight:bold;'>Does the middle word sound more like the first word (A) or the last word (B)?</p> <br> <div class=""container""> <div id=""a-box""> <p class=""title-text"">A</h3></p> </div> <div id=""x-box""> <p class=""title-text"">X<p> </div> <div id=""b-box""> <p class=""title-text"">B</p></div> <br> <div style='float: left;padding-left:30px;'><p>Press '1' for A</p></div><div style='float: right;padding-right:30px;'><p>Press '0' for B</p> </div> </div></div>","null","","","","","","","","","","","","","","","",""
"5381","","test","audio-keyboard-response","56","635593","0.0-9.0-1.14","5a5a507d76d1c60001ab2ac7","condB","","resources/audio/wordStim/S9_AU_18_axb_Step-5.wav","48","","","","","","resources/audio/wordStim/S9_AU_18_axb_Step-5.wav","S9","18","axb","5","CN","CN","S9-CN","0","0","true"
"null","","fixation","html-keyboard-response","57","636629","0.0-9.0-0.15","5a5a507d76d1c60001ab2ac7","condB","","<div class=""vertical-center"" style='width:60%;'><img src=""resources/images/CN_flag_100x52.jpg"" style=""width:100px;height:52px;opacity:0.35;""> <br> <br> <p style='font-weight:bold;'>Does the middle word sound more like the first word (A) or the last word (B)?</p> <br> <div class=""container""> <div id=""a-box""> <p class=""title-text"">A</h3></p> </div> <div id=""x-box""> <p class=""title-text"">X<p> </div> <div id=""b-box""> <p class=""title-text"">B</p></div> <br> <div style='float: left;padding-left:30px;'><p>Press '1' for A</p></div><div style='float: right;padding-right:30px;'><p>Press '0' for B</p> </div> </div></div>","null","","","","","","","","","","","","","","","",""
"6869","","test","audio-keyboard-response","58","643501","0.0-9.0-1.15","5a5a507d76d1c60001ab2ac7","condB","","resources/audio/wordStim/S9_AU_20_axb_Step-7.wav","49","","","","","","resources/audio/wordStim/S9_AU_20_axb_Step-7.wav","S9","20","axb","7","CN","CN","S9-CN","0","1","false"
"null","","fixation","html-keyboard-response","59","644525","0.0-9.0-0.16","5a5a507d76d1c60001ab2ac7","condB","","<div class=""vertical-center"" style='width:60%;'><img src=""resources/images/CN_flag_100x52.jpg"" style=""width:100px;height:52px;opacity:0.35;""> <br> <br> <p style='font-weight:bold;'>Does the middle word sound more like the first word (A) or the last word (B)?</p> <br> <div class=""container""> <div id=""a-box""> <p class=""title-text"">A</h3></p> </div> <div id=""x-box""> <p class=""title-text"">X<p> </div> <div id=""b-box""> <p class=""title-text"">B</p></div> <br> <div style='float: left;padding-left:30px;'><p>Press '1' for A</p></div><div style='float: right;padding-right:30px;'><p>Press '0' for B</p> </div> </div></div>","null","","","","","","","","","","","","","","","",""
"4640","","test","audio-keyboard-response","60","649168","0.0-9.0-1.16","5a5a507d76d1c60001ab2ac7","condB","","resources/audio/wordStim/S9_AI_29_bxa_Step-7.wav","49","","","","","","resources/audio/wordStim/S9_AI_29_bxa_Step-7.wav","S9","29","bxa","7","CN","CN","S9-CN","1","1","true"
"null","","fixation","html-keyboard-response","61","650180","0.0-9.0-0.17","5a5a507d76d1c60001ab2ac7","condB","","<div class=""vertical-center"" style='width:60%;'><img src=""resources/images/CN_flag_100x52.jpg"" style=""width:100px;height:52px;opacity:0.35;""> <br> <br> <p style='font-weight:bold;'>Does the middle word sound more like the first word (A) or the last word (B)?</p> <br> <div class=""container""> <div id=""a-box""> <p class=""title-text"">A</h3></p> </div> <div id=""x-box""> <p class=""title-text"">X<p> </div> <div id=""b-box""> <p class=""title-text"">B</p></div> <br> <div style='float: left;padding-left:30px;'><p>Press '1' for A</p></div><div style='float: right;padding-right:30px;'><p>Press '0' for B</p> </div> </div></div>","null","","","","","","","","","","","","","","","",""
"4701","","test","audio-keyboard-response","62","654881","0.0-9.0-1.17","5a5a507d76d1c60001ab2ac7","condB","","resources/audio/wordStim/S9_AU_20_bxa_Step-2.wav","49","","","","","","resources/audio/wordStim/S9_AU_20_bxa_Step-2.wav","S9","20","bxa","2","CN","CN","S9-CN","1","1","true"
"null","","fixation","html-keyboard-response","63","655909","0.0-9.0-0.18","5a5a507d76d1c60001ab2ac7","condB","","<div class=""vertical-center"" style='width:60%;'><img src=""resources/images/CN_flag_100x52.jpg"" style=""width:100px;height:52px;opacity:0.35;""> <br> <br> <p style='font-weight:bold;'>Does the middle word sound more like the first word (A) or the last word (B)?</p> <br> <div class=""container""> <div id=""a-box""> <p class=""title-text"">A</h3></p> </div> <div id=""x-box""> <p class=""title-text"">X<p> </div> <div id=""b-box""> <p class=""title-text"">B</p></div> <br> <div style='float: left;padding-left:30px;'><p>Press '1' for A</p></div><div style='float: right;padding-right:30px;'><p>Press '0' for B</p> </div> </div></div>","null","","","","","","","","","","","","","","","",""
"4840","","test","audio-keyboard-response","64","660750","0.0-9.0-1.18","5a5a507d76d1c60001ab2ac7","condB","","resources/audio/wordStim/S9_AU_11_axb_Step-6.wav","49","","","","","","resources/audio/wordStim/S9_AU_11_axb_Step-6.wav","S9","11","axb","6","CN","CN","S9-CN","0","1","false"
"null","","fixation","html-keyboard-response","65","661790","0.0-9.0-0.19","5a5a507d76d1c60001ab2ac7","condB","","<div class=""vertical-center"" style='width:60%;'><img src=""resources/images/CN_flag_100x52.jpg"" style=""width:100px;height:52px;opacity:0.35;""> <br> <br> <p style='font-weight:bold;'>Does the middle word sound more like the first word (A) or the last word (B)?</p> <br> <div class=""container""> <div id=""a-box""> <p class=""title-text"">A</h3></p> </div> <div id=""x-box""> <p class=""title-text"">X<p> </div> <div id=""b-box""> <p class=""title-text"">B</p></div> <br> <div style='float: left;padding-left:30px;'><p>Press '1' for A</p></div><div style='float: right;padding-right:30px;'><p>Press '0' for B</p> </div> </div></div>","null","","","","","","","","","","","","","","","",""
"5091","","test","audio-keyboard-response","66","666879","0.0-9.0-1.19","5a5a507d76d1c60001ab2ac7","condB","","resources/audio/wordStim/S9_AU_18_axb_Step-7.wav","49","","","","","","resources/audio/wordStim/S9_AU_18_axb_Step-7.wav","S9","18","axb","7","CN","CN","S9-CN","0","1","false"
"null","","fixation","html-keyboard-response","67","667910","0.0-9.0-0.20","5a5a507d76d1c60001ab2ac7","condB","","<div class=""vertical-center"" style='width:60%;'><img src=""resources/images/CN_flag_100x52.jpg"" style=""width:100px;height:52px;opacity:0.35;""> <br> <br> <p style='font-weight:bold;'>Does the middle word sound more like the first word (A) or the last word (B)?</p> <br> <div class=""container""> <div id=""a-box""> <p class=""title-text"">A</h3></p> </div> <div id=""x-box""> <p class=""title-text"">X<p> </div> <div id=""b-box""> <p class=""title-text"">B</p></div> <br> <div style='float: left;padding-left:30px;'><p>Press '1' for A</p></div><div style='float: right;padding-right:30px;'><p>Press '0' for B</p> </div> </div></div>","null","","","","","","","","","","","","","","","",""
"5059","","test","audio-keyboard-response","68","672965","0.0-9.0-1.20","5a5a507d76d1c60001ab2ac7","condB","","resources/audio/wordStim/S9_AI_25_axb_Step-8.wav","49","","","","","","resources/audio/wordStim/S9_AI_25_axb_Step-8.wav","S9","25","axb","8","CN","CN","S9-CN","0","1","false"
"57955","","break","html-keyboard-response","69","731426","0.0-9.0-2.20-0.20","5a5a507d76d1c60001ab2ac7","condB","","<div class=""vertical-center""><p>Feel free to take a break!</p><i>When you're ready to continue, press SPACE to begin the next trial.</i></p></div>","32","","","","","","","","","","","","","","","",""
"null","","fixation","html-keyboard-response","70","731933","0.0-9.0-0.21","5a5a507d76d1c60001ab2ac7","condB","","<div class=""vertical-center"" style='width:60%;'><img src=""resources/images/CN_flag_100x52.jpg"" style=""width:100px;height:52px;opacity:0.35;""> <br> <br> <p style='font-weight:bold;'>Does the middle word sound more like the first word (A) or the last word (B)?</p> <br> <div class=""container""> <div id=""a-box""> <p class=""title-text"">A</h3></p> </div> <div id=""x-box""> <p class=""title-text"">X<p> </div> <div id=""b-box""> <p class=""title-text"">B</p></div> <br> <div style='float: left;padding-left:30px;'><p>Press '1' for A</p></div><div style='float: right;padding-right:30px;'><p>Press '0' for B</p> </div> </div></div>","null","","","","","","","","","","","","","","","",""
"6592","","test","audio-keyboard-response","71","738526","0.0-9.0-1.21","5a5a507d76d1c60001ab2ac7","condB","","resources/audio/wordStim/S9_AI_29_axb_Step-4.wav","48","","","","","","resources/audio/wordStim/S9_AI_29_axb_Step-4.wav","S9","29","axb","4","CN","CN","S9-CN","0","0","true"
"null","","fixation","html-keyboard-response","72","739553","0.0-9.0-0.22","5a5a507d76d1c60001ab2ac7","condB","","<div class=""vertical-center"" style='width:60%;'><img src=""resources/images/CN_flag_100x52.jpg"" style=""width:100px;height:52px;opacity:0.35;""> <br> <br> <p style='font-weight:bold;'>Does the middle word sound more like the first word (A) or the last word (B)?</p> <br> <div class=""container""> <div id=""a-box""> <p class=""title-text"">A</h3></p> </div> <div id=""x-box""> <p class=""title-text"">X<p> </div> <div id=""b-box""> <p class=""title-text"">B</p></div> <br> <div style='float: left;padding-left:30px;'><p>Press '1' for A</p></div><div style='float: right;padding-right:30px;'><p>Press '0' for B</p> </div> </div></div>","null","","","","","","","","","","","","","","","",""
"4851","","test","audio-keyboard-response","73","744403","0.0-9.0-1.22","5a5a507d76d1c60001ab2ac7","condB","","resources/audio/wordStim/S9_AU_11_bxa_Step-6.wav","49","","","","","","resources/audio/wordStim/S9_AU_11_bxa_Step-6.wav","S9","11","bxa","6","CN","CN","S9-CN","1","1","true"
"null","","fixation","html-keyboard-response","74","745433","0.0-9.0-0.23","5a5a507d76d1c60001ab2ac7","condB","","<div class=""vertical-center"" style='width:60%;'><img src=""resources/images/CN_flag_100x52.jpg"" style=""width:100px;height:52px;opacity:0.35;""> <br> <br> <p style='font-weight:bold;'>Does the middle word sound more like the first word (A) or the last word (B)?</p> <br> <div class=""container""> <div id=""a-box""> <p class=""title-text"">A</h3></p> </div> <div id=""x-box""> <p class=""title-text"">X<p> </div> <div id=""b-box""> <p class=""title-text"">B</p></div> <br> <div style='float: left;padding-left:30px;'><p>Press '1' for A</p></div><div style='float: right;padding-right:30px;'><p>Press '0' for B</p> </div> </div></div>","null","","","","","","","","","","","","","","","",""
"5229","","test","audio-keyboard-response","75","750659","0.0-9.0-1.23","5a5a507d76d1c60001ab2ac7","condB","","resources/audio/wordStim/S9_AU_11_axb_Step-2.wav","48","","","","","","resources/audio/wordStim/S9_AU_11_axb_Step-2.wav","S9","11","axb","2","CN","CN","S9-CN","0","0","true"
"null","","fixation","html-keyboard-response","76","751693","0.0-9.0-0.24","5a5a507d76d1c60001ab2ac7","condB","","<div class=""vertical-center"" style='width:60%;'><img src=""resources/images/CN_flag_100x52.jpg"" style=""width:100px;height:52px;opacity:0.35;""> <br> <br> <p style='font-weight:bold;'>Does the middle word sound more like the first word (A) or the last word (B)?</p> <br> <div class=""container""> <div id=""a-box""> <p class=""title-text"">A</h3></p> </div> <div id=""x-box""> <p class=""title-text"">X<p> </div> <div id=""b-box""> <p class=""title-text"">B</p></div> <br> <div style='float: left;padding-left:30px;'><p>Press '1' for A</p></div><div style='float: right;padding-right:30px;'><p>Press '0' for B</p> </div> </div></div>","null","","","","","","","","","","","","","","","",""
"4272","","test","audio-keyboard-response","77","755959","0.0-9.0-1.24","5a5a507d76d1c60001ab2ac7","condB","","resources/audio/wordStim/S9_AU_20_axb_Step-5.wav","49","","","","","","resources/audio/wordStim/S9_AU_20_axb_Step-5.wav","S9","20","axb","5","CN","CN","S9-CN","0","1","false"
"null","","fixation","html-keyboard-response","78","756993","0.0-9.0-0.25","5a5a507d76d1c60001ab2ac7","condB","","<div class=""vertical-center"" style='width:60%;'><img src=""resources/images/CN_flag_100x52.jpg"" style=""width:100px;height:52px;opacity:0.35;""> <br> <br> <p style='font-weight:bold;'>Does the middle word sound more like the first word (A) or the last word (B)?</p> <br> <div class=""container""> <div id=""a-box""> <p class=""title-text"">A</h3></p> </div> <div id=""x-box""> <p class=""title-text"">X<p> </div> <div id=""b-box""> <p class=""title-text"">B</p></div> <br> <div style='float: left;padding-left:30px;'><p>Press '1' for A</p></div><div style='float: right;padding-right:30px;'><p>Press '0' for B</p> </div> </div></div>","null","","","","","","","","","","","","","","","",""
"4160","","test","audio-keyboard-response","79","761146","0.0-9.0-1.25","5a5a507d76d1c60001ab2ac7","condB","","resources/audio/wordStim/S9_AI_25_bxa_Step-3.wav","49","","","","","","resources/audio/wordStim/S9_AI_25_bxa_Step-3.wav","S9","25","bxa","3","CN","CN","S9-CN","1","1","true"
"null","","fixation","html-keyboard-response","80","762184","0.0-9.0-0.26","5a5a507d76d1c60001ab2ac7","condB","","<div class=""vertical-center"" style='width:60%;'><img src=""resources/images/CN_flag_100x52.jpg"" style=""width:100px;height:52px;opacity:0.35;""> <br> <br> <p style='font-weight:bold;'>Does the middle word sound more like the first word (A) or the last word (B)?</p> <br> <div class=""container""> <div id=""a-box""> <p class=""title-text"">A</h3></p> </div> <div id=""x-box""> <p class=""title-text"">X<p> </div> <div id=""b-box""> <p class=""title-text"">B</p></div> <br> <div style='float: left;padding-left:30px;'><p>Press '1' for A</p></div><div style='float: right;padding-right:30px;'><p>Press '0' for B</p> </div> </div></div>","null","","","","","","","","","","","","","","","",""
"5291","","test","audio-keyboard-response","81","767466","0.0-9.0-1.26","5a5a507d76d1c60001ab2ac7","condB","","resources/audio/wordStim/S9_AI_29_axb_Step-3.wav","48","","","","","","resources/audio/wordStim/S9_AI_29_axb_Step-3.wav","S9","29","axb","3","CN","CN","S9-CN","0","0","true"
"null","","fixation","html-keyboard-response","82","768483","0.0-9.0-0.27","5a5a507d76d1c60001ab2ac7","condB","","<div class=""vertical-center"" style='width:60%;'><img src=""resources/images/CN_flag_100x52.jpg"" style=""width:100px;height:52px;opacity:0.35;""> <br> <br> <p style='font-weight:bold;'>Does the middle word sound more like the first word (A) or the last word (B)?</p> <br> <div class=""container""> <div id=""a-box""> <p class=""title-text"">A</h3></p> </div> <div id=""x-box""> <p class=""title-text"">X<p> </div> <div id=""b-box""> <p class=""title-text"">B</p></div> <br> <div style='float: left;padding-left:30px;'><p>Press '1' for A</p></div><div style='float: right;padding-right:30px;'><p>Press '0' for B</p> </div> </div></div>","null","","","","","","","","","","","","","","","",""
"4768","","test","audio-keyboard-response","83","773254","0.0-9.0-1.27","5a5a507d76d1c60001ab2ac7","condB","","resources/audio/wordStim/S9_AU_18_bxa_Step-7.wav","49","","","","","","resources/audio/wordStim/S9_AU_18_bxa_Step-7.wav","S9","18","bxa","7","CN","CN","S9-CN","1","1","true"
"null","","fixation","html-keyboard-response","84","774284","0.0-9.0-0.28","5a5a507d76d1c60001ab2ac7","condB","","<div class=""vertical-center"" style='width:60%;'><img src=""resources/images/CN_flag_100x52.jpg"" style=""width:100px;height:52px;opacity:0.35;""> <br> <br> <p style='font-weight:bold;'>Does the middle word sound more like the first word (A) or the last word (B)?</p> <br> <div class=""container""> <div id=""a-box""> <p class=""title-text"">A</h3></p> </div> <div id=""x-box""> <p class=""title-text"">X<p> </div> <div id=""b-box""> <p class=""title-text"">B</p></div> <br> <div style='float: left;padding-left:30px;'><p>Press '1' for A</p></div><div style='float: right;padding-right:30px;'><p>Press '0' for B</p> </div> </div></div>","null","","","","","","","","","","","","","","","",""
"4600","","test","audio-keyboard-response","85","778884","0.0-9.0-1.28","5a5a507d76d1c60001ab2ac7","condB","","resources/audio/wordStim/S9_AI_29_bxa_Step-2.wav","49","","","","","","resources/audio/wordStim/S9_AI_29_bxa_Step-2.wav","S9","29","bxa","2","CN","CN","S9-CN","1","1","true"
"null","","fixation","html-keyboard-response","86","779924","0.0-9.0-0.29","5a5a507d76d1c60001ab2ac7","condB","","<div class=""vertical-center"" style='width:60%;'><img src=""resources/images/CN_flag_100x52.jpg"" style=""width:100px;height:52px;opacity:0.35;""> <br> <br> <p style='font-weight:bold;'>Does the middle word sound more like the first word (A) or the last word (B)?</p> <br> <div class=""container""> <div id=""a-box""> <p class=""title-text"">A</h3></p> </div> <div id=""x-box""> <p class=""title-text"">X<p> </div> <div id=""b-box""> <p class=""title-text"">B</p></div> <br> <div style='float: left;padding-left:30px;'><p>Press '1' for A</p></div><div style='float: right;padding-right:30px;'><p>Press '0' for B</p> </div> </div></div>","null","","","","","","","","","","","","","","","",""
"5659","","test","audio-keyboard-response","87","785584","0.0-9.0-1.29","5a5a507d76d1c60001ab2ac7","condB","","resources/audio/wordStim/S9_AU_18_bxa_Step-4.wav","48","","","","","","resources/audio/wordStim/S9_AU_18_bxa_Step-4.wav","S9","18","bxa","4","CN","CN","S9-CN","1","0","false"
"null","","fixation","html-keyboard-response","88","786614","0.0-9.0-0.30","5a5a507d76d1c60001ab2ac7","condB","","<div class=""vertical-center"" style='width:60%;'><img src=""resources/images/CN_flag_100x52.jpg"" style=""width:100px;height:52px;opacity:0.35;""> <br> <br> <p style='font-weight:bold;'>Does the middle word sound more like the first word (A) or the last word (B)?</p> <br> <div class=""container""> <div id=""a-box""> <p class=""title-text"">A</h3></p> </div> <div id=""x-box""> <p class=""title-text"">X<p> </div> <div id=""b-box""> <p class=""title-text"">B</p></div> <br> <div style='float: left;padding-left:30px;'><p>Press '1' for A</p></div><div style='float: right;padding-right:30px;'><p>Press '0' for B</p> </div> </div></div>","null","","","","","","","","","","","","","","","",""
"4672","","test","audio-keyboard-response","89","791280","0.0-9.0-1.30","5a5a507d76d1c60001ab2ac7","condB","","resources/audio/wordStim/S9_AI_23_bxa_Step-8.wav","49","","","","","","resources/audio/wordStim/S9_AI_23_bxa_Step-8.wav","S9","23","bxa","8","CN","CN","S9-CN","1","1","true"
"null","","fixation","html-keyboard-response","90","792295","0.0-9.0-0.31","5a5a507d76d1c60001ab2ac7","condB","","<div class=""vertical-center"" style='width:60%;'><img src=""resources/images/CN_flag_100x52.jpg"" style=""width:100px;height:52px;opacity:0.35;""> <br> <br> <p style='font-weight:bold;'>Does the middle word sound more like the first word (A) or the last word (B)?</p> <br> <div class=""container""> <div id=""a-box""> <p class=""title-text"">A</h3></p> </div> <div id=""x-box""> <p class=""title-text"">X<p> </div> <div id=""b-box""> <p class=""title-text"">B</p></div> <br> <div style='float: left;padding-left:30px;'><p>Press '1' for A</p></div><div style='float: right;padding-right:30px;'><p>Press '0' for B</p> </div> </div></div>","null","","","","","","","","","","","","","","","",""
"4411","","test","audio-keyboard-response","91","796706","0.0-9.0-1.31","5a5a507d76d1c60001ab2ac7","condB","","resources/audio/wordStim/S9_AU_20_axb_Step-8.wav","48","","","","","","resources/audio/wordStim/S9_AU_20_axb_Step-8.wav","S9","20","axb","8","CN","CN","S9-CN","0","0","true"
"null","","fixation","html-keyboard-response","92","797734","0.0-9.0-0.32","5a5a507d76d1c60001ab2ac7","condB","","<div class=""vertical-center"" style='width:60%;'><img src=""resources/images/CN_flag_100x52.jpg"" style=""width:100px;height:52px;opacity:0.35;""> <br> <br> <p style='font-weight:bold;'>Does the middle word sound more like the first word (A) or the last word (B)?</p> <br> <div class=""container""> <div id=""a-box""> <p class=""title-text"">A</h3></p> </div> <div id=""x-box""> <p class=""title-text"">X<p> </div> <div id=""b-box""> <p class=""title-text"">B</p></div> <br> <div style='float: left;padding-left:30px;'><p>Press '1' for A</p></div><div style='float: right;padding-right:30px;'><p>Press '0' for B</p> </div> </div></div>","null","","","","","","","","","","","","","","","",""
"6000","","test","audio-keyboard-response","93","803728","0.0-9.0-1.32","5a5a507d76d1c60001ab2ac7","condB","","resources/audio/wordStim/S9_AI_29_axb_Step-6.wav","48","","","","","","resources/audio/wordStim/S9_AI_29_axb_Step-6.wav","S9","29","axb","6","CN","CN","S9-CN","0","0","true"
"null","","fixation","html-keyboard-response","94","804742","0.0-9.0-0.33","5a5a507d76d1c60001ab2ac7","condB","","<div class=""vertical-center"" style='width:60%;'><img src=""resources/images/CN_flag_100x52.jpg"" style=""width:100px;height:52px;opacity:0.35;""> <br> <br> <p style='font-weight:bold;'>Does the middle word sound more like the first word (A) or the last word (B)?</p> <br> <div class=""container""> <div id=""a-box""> <p class=""title-text"">A</h3></p> </div> <div id=""x-box""> <p class=""title-text"">X<p> </div> <div id=""b-box""> <p class=""title-text"">B</p></div> <br> <div style='float: left;padding-left:30px;'><p>Press '1' for A</p></div><div style='float: right;padding-right:30px;'><p>Press '0' for B</p> </div> </div></div>","null","","","","","","","","","","","","","","","",""
"4000","","test","audio-keyboard-response","95","808743","0.0-9.0-1.33","5a5a507d76d1c60001ab2ac7","condB","","resources/audio/wordStim/S9_AI_23_axb_Step-7.wav","48","","","","","","resources/audio/wordStim/S9_AI_23_axb_Step-7.wav","S9","23","axb","7","CN","CN","S9-CN","0","0","true"
"null","","fixation","html-keyboard-response","96","809755","0.0-9.0-0.34","5a5a507d76d1c60001ab2ac7","condB","","<div class=""vertical-center"" style='width:60%;'><img src=""resources/images/CN_flag_100x52.jpg"" style=""width:100px;height:52px;opacity:0.35;""> <br> <br> <p style='font-weight:bold;'>Does the middle word sound more like the first word (A) or the last word (B)?</p> <br> <div class=""container""> <div id=""a-box""> <p class=""title-text"">A</h3></p> </div> <div id=""x-box""> <p class=""title-text"">X<p> </div> <div id=""b-box""> <p class=""title-text"">B</p></div> <br> <div style='float: left;padding-left:30px;'><p>Press '1' for A</p></div><div style='float: right;padding-right:30px;'><p>Press '0' for B</p> </div> </div></div>","null","","","","","","","","","","","","","","","",""
"4491","","test","audio-keyboard-response","97","814241","0.0-9.0-1.34","5a5a507d76d1c60001ab2ac7","condB","","resources/audio/wordStim/S9_AU_11_bxa_Step-4.wav","49","","","","","","resources/audio/wordStim/S9_AU_11_bxa_Step-4.wav","S9","11","bxa","4","CN","CN","S9-CN","1","1","true"
"null","","fixation","html-keyboard-response","98","815265","0.0-9.0-0.35","5a5a507d76d1c60001ab2ac7","condB","","<div class=""vertical-center"" style='width:60%;'><img src=""resources/images/CN_flag_100x52.jpg"" style=""width:100px;height:52px;opacity:0.35;""> <br> <br> <p style='font-weight:bold;'>Does the middle word sound more like the first word (A) or the last word (B)?</p> <br> <div class=""container""> <div id=""a-box""> <p class=""title-text"">A</h3></p> </div> <div id=""x-box""> <p class=""title-text"">X<p> </div> <div id=""b-box""> <p class=""title-text"">B</p></div> <br> <div style='float: left;padding-left:30px;'><p>Press '1' for A</p></div><div style='float: right;padding-right:30px;'><p>Press '0' for B</p> </div> </div></div>","null","","","","","","","","","","","","","","","",""
"3571","","test","audio-keyboard-response","99","818834","0.0-9.0-1.35","5a5a507d76d1c60001ab2ac7","condB","","resources/audio/wordStim/S9_AU_20_axb_Step-6.wav","49","","","","","","resources/audio/wordStim/S9_AU_20_axb_Step-6.wav","S9","20","axb","6","CN","CN","S9-CN","0","1","false"
"null","","fixation","html-keyboard-response","100","819865","0.0-9.0-0.36","5a5a507d76d1c60001ab2ac7","condB","","<div class=""vertical-center"" style='width:60%;'><img src=""resources/images/CN_flag_100x52.jpg"" style=""width:100px;height:52px;opacity:0.35;""> <br> <br> <p style='font-weight:bold;'>Does the middle word sound more like the first word (A) or the last word (B)?</p> <br> <div class=""container""> <div id=""a-box""> <p class=""title-text"">A</h3></p> </div> <div id=""x-box""> <p class=""title-text"">X<p> </div> <div id=""b-box""> <p class=""title-text"">B</p></div> <br> <div style='float: left;padding-left:30px;'><p>Press '1' for A</p></div><div style='float: right;padding-right:30px;'><p>Press '0' for B</p> </div> </div></div>","null","","","","","","","","","","","","","","","",""
"4381","","test","audio-keyboard-response","101","824244","0.0-9.0-1.36","5a5a507d76d1c60001ab2ac7","condB","","resources/audio/wordStim/S9_AU_18_axb_Step-2.wav","49","","","","","","resources/audio/wordStim/S9_AU_18_axb_Step-2.wav","S9","18","axb","2","CN","CN","S9-CN","0","1","false"
"null","","fixation","html-keyboard-response","102","825275","0.0-9.0-0.37","5a5a507d76d1c60001ab2ac7","condB","","<div class=""vertical-center"" style='width:60%;'><img src=""resources/images/CN_flag_100x52.jpg"" style=""width:100px;height:52px;opacity:0.35;""> <br> <br> <p style='font-weight:bold;'>Does the middle word sound more like the first word (A) or the last word (B)?</p> <br> <div class=""container""> <div id=""a-box""> <p class=""title-text"">A</h3></p> </div> <div id=""x-box""> <p class=""title-text"">X<p> </div> <div id=""b-box""> <p class=""title-text"">B</p></div> <br> <div style='float: left;padding-left:30px;'><p>Press '1' for A</p></div><div style='float: right;padding-right:30px;'><p>Press '0' for B</p> </div> </div></div>","null","","","","","","","","","","","","","","","",""
"4000","","test","audio-keyboard-response","103","829269","0.0-9.0-1.37","5a5a507d76d1c60001ab2ac7","condB","","resources/audio/wordStim/S9_AU_18_axb_Step-8.wav","49","","","","","","resources/audio/wordStim/S9_AU_18_axb_Step-8.wav","S9","18","axb","8","CN","CN","S9-CN","0","1","false"
"null","","fixation","html-keyboard-response","104","830286","0.0-9.0-0.38","5a5a507d76d1c60001ab2ac7","condB","","<div class=""vertical-center"" style='width:60%;'><img src=""resources/images/CN_flag_100x52.jpg"" style=""width:100px;height:52px;opacity:0.35;""> <br> <br> <p style='font-weight:bold;'>Does the middle word sound more like the first word (A) or the last word (B)?</p> <br> <div class=""container""> <div id=""a-box""> <p class=""title-text"">A</h3></p> </div> <div id=""x-box""> <p class=""title-text"">X<p> </div> <div id=""b-box""> <p class=""title-text"">B</p></div> <br> <div style='float: left;padding-left:30px;'><p>Press '1' for A</p></div><div style='float: right;padding-right:30px;'><p>Press '0' for B</p> </div> </div></div>","null","","","","","","","","","","","","","","","",""
"4669","","test","audio-keyboard-response","105","834952","0.0-9.0-1.38","5a5a507d76d1c60001ab2ac7","condB","","resources/audio/wordStim/S9_AI_23_axb_Step-6.wav","49","","","","","","resources/audio/wordStim/S9_AI_23_axb_Step-6.wav","S9","23","axb","6","CN","CN","S9-CN","0","1","false"
"null","","fixation","html-keyboard-response","106","835987","0.0-9.0-0.39","5a5a507d76d1c60001ab2ac7","condB","","<div class=""vertical-center"" style='width:60%;'><img src=""resources/images/CN_flag_100x52.jpg"" style=""width:100px;height:52px;opacity:0.35;""> <br> <br> <p style='font-weight:bold;'>Does the middle word sound more like the first word (A) or the last word (B)?</p> <br> <div class=""container""> <div id=""a-box""> <p class=""title-text"">A</h3></p> </div> <div id=""x-box""> <p class=""title-text"">X<p> </div> <div id=""b-box""> <p class=""title-text"">B</p></div> <br> <div style='float: left;padding-left:30px;'><p>Press '1' for A</p></div><div style='float: right;padding-right:30px;'><p>Press '0' for B</p> </div> </div></div>","null","","","","","","","","","","","","","","","",""
"4011","","test","audio-keyboard-response","107","839992","0.0-9.0-1.39","5a5a507d76d1c60001ab2ac7","condB","","resources/audio/wordStim/S9_AI_25_axb_Step-2.wav","49","","","","","","resources/audio/wordStim/S9_AI_25_axb_Step-2.wav","S9","25","axb","2","CN","CN","S9-CN","0","1","false"
"null","","fixation","html-keyboard-response","108","841026","0.0-9.0-0.40","5a5a507d76d1c60001ab2ac7","condB","","<div class=""vertical-center"" style='width:60%;'><img src=""resources/images/CN_flag_100x52.jpg"" style=""width:100px;height:52px;opacity:0.35;""> <br> <br> <p style='font-weight:bold;'>Does the middle word sound more like the first word (A) or the last word (B)?</p> <br> <div class=""container""> <div id=""a-box""> <p class=""title-text"">A</h3></p> </div> <div id=""x-box""> <p class=""title-text"">X<p> </div> <div id=""b-box""> <p class=""title-text"">B</p></div> <br> <div style='float: left;padding-left:30px;'><p>Press '1' for A</p></div><div style='float: right;padding-right:30px;'><p>Press '0' for B</p> </div> </div></div>","null","","","","","","","","","","","","","","","",""
"5051","","test","audio-keyboard-response","109","846073","0.0-9.0-1.40","5a5a507d76d1c60001ab2ac7","condB","","resources/audio/wordStim/S9_AU_11_axb_Step-3.wav","49","","","","","","resources/audio/wordStim/S9_AU_11_axb_Step-3.wav","S9","11","axb","3","CN","CN","S9-CN","0","1","false"
"null","","fixation","html-keyboard-response","110","847096","0.0-9.0-0.41","5a5a507d76d1c60001ab2ac7","condB","","<div class=""vertical-center"" style='width:60%;'><img src=""resources/images/CN_flag_100x52.jpg"" style=""width:100px;height:52px;opacity:0.35;""> <br> <br> <p style='font-weight:bold;'>Does the middle word sound more like the first word (A) or the last word (B)?</p> <br> <div class=""container""> <div id=""a-box""> <p class=""title-text"">A</h3></p> </div> <div id=""x-box""> <p class=""title-text"">X<p> </div> <div id=""b-box""> <p class=""title-text"">B</p></div> <br> <div style='float: left;padding-left:30px;'><p>Press '1' for A</p></div><div style='float: right;padding-right:30px;'><p>Press '0' for B</p> </div> </div></div>","null","","","","","","","","","","","","","","","",""
"4061","","test","audio-keyboard-response","111","851151","0.0-9.0-1.41","5a5a507d76d1c60001ab2ac7","condB","","resources/audio/wordStim/S9_AU_18_bxa_Step-6.wav","49","","","","","","resources/audio/wordStim/S9_AU_18_bxa_Step-6.wav","S9","18","bxa","6","CN","CN","S9-CN","1","1","true"
"50736","","break","html-keyboard-response","112","902404","0.0-9.0-2.41-0.41","5a5a507d76d1c60001ab2ac7","condB","","<div class=""vertical-center""><p>Feel free to take a break!</p><i>When you're ready to continue, press SPACE to begin the next trial.</i></p></div>","32","","","","","","","","","","","","","","","",""
"null","","fixation","html-keyboard-response","113","902909","0.0-9.0-0.42","5a5a507d76d1c60001ab2ac7","condB","","<div class=""vertical-center"" style='width:60%;'><img src=""resources/images/CN_flag_100x52.jpg"" style=""width:100px;height:52px;opacity:0.35;""> <br> <br> <p style='font-weight:bold;'>Does the middle word sound more like the first word (A) or the last word (B)?</p> <br> <div class=""container""> <div id=""a-box""> <p class=""title-text"">A</h3></p> </div> <div id=""x-box""> <p class=""title-text"">X<p> </div> <div id=""b-box""> <p class=""title-text"">B</p></div> <br> <div style='float: left;padding-left:30px;'><p>Press '1' for A</p></div><div style='float: right;padding-right:30px;'><p>Press '0' for B</p> </div> </div></div>","null","","","","","","","","","","","","","","","",""
"4941","","test","audio-keyboard-response","114","907849","0.0-9.0-1.42","5a5a507d76d1c60001ab2ac7","condB","","resources/audio/wordStim/S9_AU_20_axb_Step-4.wav","48","","","","","","resources/audio/wordStim/S9_AU_20_axb_Step-4.wav","S9","20","axb","4","CN","CN","S9-CN","0","0","true"
"null","","fixation","html-keyboard-response","115","908888","0.0-9.0-0.43","5a5a507d76d1c60001ab2ac7","condB","","<div class=""vertical-center"" style='width:60%;'><img src=""resources/images/CN_flag_100x52.jpg"" style=""width:100px;height:52px;opacity:0.35;""> <br> <br> <p style='font-weight:bold;'>Does the middle word sound more like the first word (A) or the last word (B)?</p> <br> <div class=""container""> <div id=""a-box""> <p class=""title-text"">A</h3></p> </div> <div id=""x-box""> <p class=""title-text"">X<p> </div> <div id=""b-box""> <p class=""title-text"">B</p></div> <br> <div style='float: left;padding-left:30px;'><p>Press '1' for A</p></div><div style='float: right;padding-right:30px;'><p>Press '0' for B</p> </div> </div></div>","null","","","","","","","","","","","","","","","",""
"4989","","test","audio-keyboard-response","116","913880","0.0-9.0-1.43","5a5a507d76d1c60001ab2ac7","condB","","resources/audio/wordStim/S9_AI_23_bxa_Step-4.wav","49","","","","","","resources/audio/wordStim/S9_AI_23_bxa_Step-4.wav","S9","23","bxa","4","CN","CN","S9-CN","1","1","true"
"null","","fixation","html-keyboard-response","117","914918","0.0-9.0-0.44","5a5a507d76d1c60001ab2ac7","condB","","<div class=""vertical-center"" style='width:60%;'><img src=""resources/images/CN_flag_100x52.jpg"" style=""width:100px;height:52px;opacity:0.35;""> <br> <br> <p style='font-weight:bold;'>Does the middle word sound more like the first word (A) or the last word (B)?</p> <br> <div class=""container""> <div id=""a-box""> <p class=""title-text"">A</h3></p> </div> <div id=""x-box""> <p class=""title-text"">X<p> </div> <div id=""b-box""> <p class=""title-text"">B</p></div> <br> <div style='float: left;padding-left:30px;'><p>Press '1' for A</p></div><div style='float: right;padding-right:30px;'><p>Press '0' for B</p> </div> </div></div>","null","","","","","","","","","","","","","","","",""
"6920","","test","audio-keyboard-response","118","921834","0.0-9.0-1.44","5a5a507d76d1c60001ab2ac7","condB","","resources/audio/wordStim/S9_AI_25_bxa_Step-5.wav","48","","","","","","resources/audio/wordStim/S9_AI_25_bxa_Step-5.wav","S9","25","bxa","5","CN","CN","S9-CN","1","0","false"
"null","","fixation","html-keyboard-response","119","922859","0.0-9.0-0.45","5a5a507d76d1c60001ab2ac7","condB","","<div class=""vertical-center"" style='width:60%;'><img src=""resources/images/CN_flag_100x52.jpg"" style=""width:100px;height:52px;opacity:0.35;""> <br> <br> <p style='font-weight:bold;'>Does the middle word sound more like the first word (A) or the last word (B)?</p> <br> <div class=""container""> <div id=""a-box""> <p class=""title-text"">A</h3></p> </div> <div id=""x-box""> <p class=""title-text"">X<p> </div> <div id=""b-box""> <p class=""title-text"">B</p></div> <br> <div style='float: left;padding-left:30px;'><p>Press '1' for A</p></div><div style='float: right;padding-right:30px;'><p>Press '0' for B</p> </div> </div></div>","null","","","","","","","","","","","","","","","",""
"4901","","test","audio-keyboard-response","120","927757","0.0-9.0-1.45","5a5a507d76d1c60001ab2ac7","condB","","resources/audio/wordStim/S9_AU_18_bxa_Step-3.wav","48","","","","","","resources/audio/wordStim/S9_AU_18_bxa_Step-3.wav","S9","18","bxa","3","CN","CN","S9-CN","1","0","false"
"null","","fixation","html-keyboard-response","121","928769","0.0-9.0-0.46","5a5a507d76d1c60001ab2ac7","condB","","<div class=""vertical-center"" style='width:60%;'><img src=""resources/images/CN_flag_100x52.jpg"" style=""width:100px;height:52px;opacity:0.35;""> <br> <br> <p style='font-weight:bold;'>Does the middle word sound more like the first word (A) or the last word (B)?</p> <br> <div class=""container""> <div id=""a-box""> <p class=""title-text"">A</h3></p> </div> <div id=""x-box""> <p class=""title-text"">X<p> </div> <div id=""b-box""> <p class=""title-text"">B</p></div> <br> <div style='float: left;padding-left:30px;'><p>Press '1' for A</p></div><div style='float: right;padding-right:30px;'><p>Press '0' for B</p> </div> </div></div>","null","","","","","","","","","","","","","","","",""
"3869","","test","audio-keyboard-response","122","932640","0.0-9.0-1.46","5a5a507d76d1c60001ab2ac7","condB","","resources/audio/wordStim/S9_AI_25_axb_Step-7.wav","48","","","","","","resources/audio/wordStim/S9_AI_25_axb_Step-7.wav","S9","25","axb","7","CN","CN","S9-CN","0","0","true"
"null","","fixation","html-keyboard-response","123","933669","0.0-9.0-0.47","5a5a507d76d1c60001ab2ac7","condB","","<div class=""vertical-center"" style='width:60%;'><img src=""resources/images/CN_flag_100x52.jpg"" style=""width:100px;height:52px;opacity:0.35;""> <br> <br> <p style='font-weight:bold;'>Does the middle word sound more like the first word (A) or the last word (B)?</p> <br> <div class=""container""> <div id=""a-box""> <p class=""title-text"">A</h3></p> </div> <div id=""x-box""> <p class=""title-text"">X<p> </div> <div id=""b-box""> <p class=""title-text"">B</p></div> <br> <div style='float: left;padding-left:30px;'><p>Press '1' for A</p></div><div style='float: right;padding-right:30px;'><p>Press '0' for B</p> </div> </div></div>","null","","","","","","","","","","","","","","","",""
"3949","","test","audio-keyboard-response","124","937622","0.0-9.0-1.47","5a5a507d76d1c60001ab2ac7","condB","","resources/audio/wordStim/S9_AI_23_bxa_Step-6.wav","48","","","","","","resources/audio/wordStim/S9_AI_23_bxa_Step-6.wav","S9","23","bxa","6","CN","CN","S9-CN","1","0","false"
"null","","fixation","html-keyboard-response","125","938638","0.0-9.0-0.48","5a5a507d76d1c60001ab2ac7","condB","","<div class=""vertical-center"" style='width:60%;'><img src=""resources/images/CN_flag_100x52.jpg"" style=""width:100px;height:52px;opacity:0.35;""> <br> <br> <p style='font-weight:bold;'>Does the middle word sound more like the first word (A) or the last word (B)?</p> <br> <div class=""container""> <div id=""a-box""> <p class=""title-text"">A</h3></p> </div> <div id=""x-box""> <p class=""title-text"">X<p> </div> <div id=""b-box""> <p class=""title-text"">B</p></div> <br> <div style='float: left;padding-left:30px;'><p>Press '1' for A</p></div><div style='float: right;padding-right:30px;'><p>Press '0' for B</p> </div> </div></div>","null","","","","","","","","","","","","","","","",""
"4339","","test","audio-keyboard-response","126","942980","0.0-9.0-1.48","5a5a507d76d1c60001ab2ac7","condB","","resources/audio/wordStim/S9_AI_25_axb_Step-4.wav","48","","","","","","resources/audio/wordStim/S9_AI_25_axb_Step-4.wav","S9","25","axb","4","CN","CN","S9-CN","0","0","true"
"null","","fixation","html-keyboard-response","127","943999","0.0-9.0-0.49","5a5a507d76d1c60001ab2ac7","condB","","<div class=""vertical-center"" style='width:60%;'><img src=""resources/images/CN_flag_100x52.jpg"" style=""width:100px;height:52px;opacity:0.35;""> <br> <br> <p style='font-weight:bold;'>Does the middle word sound more like the first word (A) or the last word (B)?</p> <br> <div class=""container""> <div id=""a-box""> <p class=""title-text"">A</h3></p> </div> <div id=""x-box""> <p class=""title-text"">X<p> </div> <div id=""b-box""> <p class=""title-text"">B</p></div> <br> <div style='float: left;padding-left:30px;'><p>Press '1' for A</p></div><div style='float: right;padding-right:30px;'><p>Press '0' for B</p> </div> </div></div>","null","","","","","","","","","","","","","","","",""
"3619","","test","audio-keyboard-response","128","947615","0.0-9.0-1.49","5a5a507d76d1c60001ab2ac7","condB","","resources/audio/wordStim/S9_AI_23_bxa_Step-3.wav","48","","","","","","resources/audio/wordStim/S9_AI_23_bxa_Step-3.wav","S9","23","bxa","3","CN","CN","S9-CN","1","0","false"
"null","","fixation","html-keyboard-response","129","948630","0.0-9.0-0.50","5a5a507d76d1c60001ab2ac7","condB","","<div class=""vertical-center"" style='width:60%;'><img src=""resources/images/CN_flag_100x52.jpg"" style=""width:100px;height:52px;opacity:0.35;""> <br> <br> <p style='font-weight:bold;'>Does the middle word sound more like the first word (A) or the last word (B)?</p> <br> <div class=""container""> <div id=""a-box""> <p class=""title-text"">A</h3></p> </div> <div id=""x-box""> <p class=""title-text"">X<p> </div> <div id=""b-box""> <p class=""title-text"">B</p></div> <br> <div style='float: left;padding-left:30px;'><p>Press '1' for A</p></div><div style='float: right;padding-right:30px;'><p>Press '0' for B</p> </div> </div></div>","null","","","","","","","","","","","","","","","",""
"4331","","test","audio-keyboard-response","130","952957","0.0-9.0-1.50","5a5a507d76d1c60001ab2ac7","condB","","resources/audio/wordStim/S9_AU_11_bxa_Step-8.wav","49","","","","","","resources/audio/wordStim/S9_AU_11_bxa_Step-8.wav","S9","11","bxa","8","CN","CN","S9-CN","1","1","true"
"null","","fixation","html-keyboard-response","131","953979","0.0-9.0-0.51","5a5a507d76d1c60001ab2ac7","condB","","<div class=""vertical-center"" style='width:60%;'><img src=""resources/images/CN_flag_100x52.jpg"" style=""width:100px;height:52px;opacity:0.35;""> <br> <br> <p style='font-weight:bold;'>Does the middle word sound more like the first word (A) or the last word (B)?</p> <br> <div class=""container""> <div id=""a-box""> <p class=""title-text"">A</h3></p> </div> <div id=""x-box""> <p class=""title-text"">X<p> </div> <div id=""b-box""> <p class=""title-text"">B</p></div> <br> <div style='float: left;padding-left:30px;'><p>Press '1' for A</p></div><div style='float: right;padding-right:30px;'><p>Press '0' for B</p> </div> </div></div>","null","","","","","","","","","","","","","","","",""
"5931","","test","audio-keyboard-response","132","959905","0.0-9.0-1.51","5a5a507d76d1c60001ab2ac7","condB","","resources/audio/wordStim/S9_AI_29_bxa_Step-3.wav","49","","","","","","resources/audio/wordStim/S9_AI_29_bxa_Step-3.wav","S9","29","bxa","3","CN","CN","S9-CN","1","1","true"
"null","","fixation","html-keyboard-response","133","960919","0.0-9.0-0.52","5a5a507d76d1c60001ab2ac7","condB","","<div class=""vertical-center"" style='width:60%;'><img src=""resources/images/CN_flag_100x52.jpg"" style=""width:100px;height:52px;opacity:0.35;""> <br> <br> <p style='font-weight:bold;'>Does the middle word sound more like the first word (A) or the last word (B)?</p> <br> <div class=""container""> <div id=""a-box""> <p class=""title-text"">A</h3></p> </div> <div id=""x-box""> <p class=""title-text"">X<p> </div> <div id=""b-box""> <p class=""title-text"">B</p></div> <br> <div style='float: left;padding-left:30px;'><p>Press '1' for A</p></div><div style='float: right;padding-right:30px;'><p>Press '0' for B</p> </div> </div></div>","null","","","","","","","","","","","","","","","",""
"4499","","test","audio-keyboard-response","134","965420","0.0-9.0-1.52","5a5a507d76d1c60001ab2ac7","condB","","resources/audio/wordStim/S9_AU_11_bxa_Step-7.wav","49","","","","","","resources/audio/wordStim/S9_AU_11_bxa_Step-7.wav","S9","11","bxa","7","CN","CN","S9-CN","1","1","true"
"null","","fixation","html-keyboard-response","135","966450","0.0-9.0-0.53","5a5a507d76d1c60001ab2ac7","condB","","<div class=""vertical-center"" style='width:60%;'><img src=""resources/images/CN_flag_100x52.jpg"" style=""width:100px;height:52px;opacity:0.35;""> <br> <br> <p style='font-weight:bold;'>Does the middle word sound more like the first word (A) or the last word (B)?</p> <br> <div class=""container""> <div id=""a-box""> <p class=""title-text"">A</h3></p> </div> <div id=""x-box""> <p class=""title-text"">X<p> </div> <div id=""b-box""> <p class=""title-text"">B</p></div> <br> <div style='float: left;padding-left:30px;'><p>Press '1' for A</p></div><div style='float: right;padding-right:30px;'><p>Press '0' for B</p> </div> </div></div>","null","","","","","","","","","","","","","","","",""
"3800","","test","audio-keyboard-response","136","970244","0.0-9.0-1.53","5a5a507d76d1c60001ab2ac7","condB","","resources/audio/wordStim/S9_AI_29_bxa_Step-6.wav","49","","","","","","resources/audio/wordStim/S9_AI_29_bxa_Step-6.wav","S9","29","bxa","6","CN","CN","S9-CN","1","1","true"
"null","","fixation","html-keyboard-response","137","971281","0.0-9.0-0.54","5a5a507d76d1c60001ab2ac7","condB","","<div class=""vertical-center"" style='width:60%;'><img src=""resources/images/CN_flag_100x52.jpg"" style=""width:100px;height:52px;opacity:0.35;""> <br> <br> <p style='font-weight:bold;'>Does the middle word sound more like the first word (A) or the last word (B)?</p> <br> <div class=""container""> <div id=""a-box""> <p class=""title-text"">A</h3></p> </div> <div id=""x-box""> <p class=""title-text"">X<p> </div> <div id=""b-box""> <p class=""title-text"">B</p></div> <br> <div style='float: left;padding-left:30px;'><p>Press '1' for A</p></div><div style='float: right;padding-right:30px;'><p>Press '0' for B</p> </div> </div></div>","null","","","","","","","","","","","","","","","",""
"3480","","test","audio-keyboard-response","138","974756","0.0-9.0-1.54","5a5a507d76d1c60001ab2ac7","condB","","resources/audio/wordStim/S9_AI_29_axb_Step-8.wav","49","","","","","","resources/audio/wordStim/S9_AI_29_axb_Step-8.wav","S9","29","axb","8","CN","CN","S9-CN","0","1","false"
"null","","fixation","html-keyboard-response","139","975780","0.0-9.0-0.55","5a5a507d76d1c60001ab2ac7","condB","","<div class=""vertical-center"" style='width:60%;'><img src=""resources/images/CN_flag_100x52.jpg"" style=""width:100px;height:52px;opacity:0.35;""> <br> <br> <p style='font-weight:bold;'>Does the middle word sound more like the first word (A) or the last word (B)?</p> <br> <div class=""container""> <div id=""a-box""> <p class=""title-text"">A</h3></p> </div> <div id=""x-box""> <p class=""title-text"">X<p> </div> <div id=""b-box""> <p class=""title-text"">B</p></div> <br> <div style='float: left;padding-left:30px;'><p>Press '1' for A</p></div><div style='float: right;padding-right:30px;'><p>Press '0' for B</p> </div> </div></div>","null","","","","","","","","","","","","","","","",""
"3461","","test","audio-keyboard-response","140","979238","0.0-9.0-1.55","5a5a507d76d1c60001ab2ac7","condB","","resources/audio/wordStim/S9_AU_20_bxa_Step-8.wav","49","","","","","","resources/audio/wordStim/S9_AU_20_bxa_Step-8.wav","S9","20","bxa","8","CN","CN","S9-CN","1","1","true"
"null","","fixation","html-keyboard-response","141","980271","0.0-9.0-0.56","5a5a507d76d1c60001ab2ac7","condB","","<div class=""vertical-center"" style='width:60%;'><img src=""resources/images/CN_flag_100x52.jpg"" style=""width:100px;height:52px;opacity:0.35;""> <br> <br> <p style='font-weight:bold;'>Does the middle word sound more like the first word (A) or the last word (B)?</p> <br> <div class=""container""> <div id=""a-box""> <p class=""title-text"">A</h3></p> </div> <div id=""x-box""> <p class=""title-text"">X<p> </div> <div id=""b-box""> <p class=""title-text"">B</p></div> <br> <div style='float: left;padding-left:30px;'><p>Press '1' for A</p></div><div style='float: right;padding-right:30px;'><p>Press '0' for B</p> </div> </div></div>","null","","","","","","","","","","","","","","","",""
"4869","","test","audio-keyboard-response","142","985141","0.0-9.0-1.56","5a5a507d76d1c60001ab2ac7","condB","","resources/audio/wordStim/S9_AI_23_axb_Step-3.wav","49","","","","","","resources/audio/wordStim/S9_AI_23_axb_Step-3.wav","S9","23","axb","3","CN","CN","S9-CN","0","1","false"
"null","","fixation","html-keyboard-response","143","986170","0.0-9.0-0.57","5a5a507d76d1c60001ab2ac7","condB","","<div class=""vertical-center"" style='width:60%;'><img src=""resources/images/CN_flag_100x52.jpg"" style=""width:100px;height:52px;opacity:0.35;""> <br> <br> <p style='font-weight:bold;'>Does the middle word sound more like the first word (A) or the last word (B)?</p> <br> <div class=""container""> <div id=""a-box""> <p class=""title-text"">A</h3></p> </div> <div id=""x-box""> <p class=""title-text"">X<p> </div> <div id=""b-box""> <p class=""title-text"">B</p></div> <br> <div style='float: left;padding-left:30px;'><p>Press '1' for A</p></div><div style='float: right;padding-right:30px;'><p>Press '0' for B</p> </div> </div></div>","null","","","","","","","","","","","","","","","",""
"4099","","test","audio-keyboard-response","144","990267","0.0-9.0-1.57","5a5a507d76d1c60001ab2ac7","condB","","resources/audio/wordStim/S9_AU_11_axb_Step-4.wav","49","","","","","","resources/audio/wordStim/S9_AU_11_axb_Step-4.wav","S9","11","axb","4","CN","CN","S9-CN","0","1","false"
"null","","fixation","html-keyboard-response","145","991301","0.0-9.0-0.58","5a5a507d76d1c60001ab2ac7","condB","","<div class=""vertical-center"" style='width:60%;'><img src=""resources/images/CN_flag_100x52.jpg"" style=""width:100px;height:52px;opacity:0.35;""> <br> <br> <p style='font-weight:bold;'>Does the middle word sound more like the first word (A) or the last word (B)?</p> <br> <div class=""container""> <div id=""a-box""> <p class=""title-text"">A</h3></p> </div> <div id=""x-box""> <p class=""title-text"">X<p> </div> <div id=""b-box""> <p class=""title-text"">B</p></div> <br> <div style='float: left;padding-left:30px;'><p>Press '1' for A</p></div><div style='float: right;padding-right:30px;'><p>Press '0' for B</p> </div> </div></div>","null","","","","","","","","","","","","","","","",""
"4232","","test","audio-keyboard-response","146","995533","0.0-9.0-1.58","5a5a507d76d1c60001ab2ac7","condB","","resources/audio/wordStim/S9_AU_20_axb_Step-2.wav","49","","","","","","resources/audio/wordStim/S9_AU_20_axb_Step-2.wav","S9","20","axb","2","CN","CN","S9-CN","0","1","false"
"null","","fixation","html-keyboard-response","147","996562","0.0-9.0-0.59","5a5a507d76d1c60001ab2ac7","condB","","<div class=""vertical-center"" style='width:60%;'><img src=""resources/images/CN_flag_100x52.jpg"" style=""width:100px;height:52px;opacity:0.35;""> <br> <br> <p style='font-weight:bold;'>Does the middle word sound more like the first word (A) or the last word (B)?</p> <br> <div class=""container""> <div id=""a-box""> <p class=""title-text"">A</h3></p> </div> <div id=""x-box""> <p class=""title-text"">X<p> </div> <div id=""b-box""> <p class=""title-text"">B</p></div> <br> <div style='float: left;padding-left:30px;'><p>Press '1' for A</p></div><div style='float: right;padding-right:30px;'><p>Press '0' for B</p> </div> </div></div>","null","","","","","","","","","","","","","","","",""
"4059","","test","audio-keyboard-response","148","1000621","0.0-9.0-1.59","5a5a507d76d1c60001ab2ac7","condB","","resources/audio/wordStim/S9_AU_11_bxa_Step-5.wav","49","","","","","","resources/audio/wordStim/S9_AU_11_bxa_Step-5.wav","S9","11","bxa","5","CN","CN","S9-CN","1","1","true"
"null","","fixation","html-keyboard-response","149","1001641","0.0-9.0-0.60","5a5a507d76d1c60001ab2ac7","condB","","<div class=""vertical-center"" style='width:60%;'><img src=""resources/images/CN_flag_100x52.jpg"" style=""width:100px;height:52px;opacity:0.35;""> <br> <br> <p style='font-weight:bold;'>Does the middle word sound more like the first word (A) or the last word (B)?</p> <br> <div class=""container""> <div id=""a-box""> <p class=""title-text"">A</h3></p> </div> <div id=""x-box""> <p class=""title-text"">X<p> </div> <div id=""b-box""> <p class=""title-text"">B</p></div> <br> <div style='float: left;padding-left:30px;'><p>Press '1' for A</p></div><div style='float: right;padding-right:30px;'><p>Press '0' for B</p> </div> </div></div>","null","","","","","","","","","","","","","","","",""
"3400","","test","audio-keyboard-response","150","1005043","0.0-9.0-1.60","5a5a507d76d1c60001ab2ac7","condB","","resources/audio/wordStim/S9_AI_23_bxa_Step-7.wav","49","","","","","","resources/audio/wordStim/S9_AI_23_bxa_Step-7.wav","S9","23","bxa","7","CN","CN","S9-CN","1","1","true"
"null","","fixation","html-keyboard-response","151","1006082","0.0-9.0-0.61","5a5a507d76d1c60001ab2ac7","condB","","<div class=""vertical-center"" style='width:60%;'><img src=""resources/images/CN_flag_100x52.jpg"" style=""width:100px;height:52px;opacity:0.35;""> <br> <br> <p style='font-weight:bold;'>Does the middle word sound more like the first word (A) or the last word (B)?</p> <br> <div class=""container""> <div id=""a-box""> <p class=""title-text"">A</h3></p> </div> <div id=""x-box""> <p class=""title-text"">X<p> </div> <div id=""b-box""> <p class=""title-text"">B</p></div> <br> <div style='float: left;padding-left:30px;'><p>Press '1' for A</p></div><div style='float: right;padding-right:30px;'><p>Press '0' for B</p> </div> </div></div>","null","","","","","","","","","","","","","","","",""
"5160","","test","audio-keyboard-response","152","1011235","0.0-9.0-1.61","5a5a507d76d1c60001ab2ac7","condB","","resources/audio/wordStim/S9_AI_29_axb_Step-2.wav","48","","","","","","resources/audio/wordStim/S9_AI_29_axb_Step-2.wav","S9","29","axb","2","CN","CN","S9-CN","0","0","true"
"null","","fixation","html-keyboard-response","153","1012247","0.0-9.0-0.62","5a5a507d76d1c60001ab2ac7","condB","","<div class=""vertical-center"" style='width:60%;'><img src=""resources/images/CN_flag_100x52.jpg"" style=""width:100px;height:52px;opacity:0.35;""> <br> <br> <p style='font-weight:bold;'>Does the middle word sound more like the first word (A) or the last word (B)?</p> <br> <div class=""container""> <div id=""a-box""> <p class=""title-text"">A</h3></p> </div> <div id=""x-box""> <p class=""title-text"">X<p> </div> <div id=""b-box""> <p class=""title-text"">B</p></div> <br> <div style='float: left;padding-left:30px;'><p>Press '1' for A</p></div><div style='float: right;padding-right:30px;'><p>Press '0' for B</p> </div> </div></div>","null","","","","","","","","","","","","","","","",""
"3728","","test","audio-keyboard-response","154","1015978","0.0-9.0-1.62","5a5a507d76d1c60001ab2ac7","condB","","resources/audio/wordStim/S9_AI_25_axb_Step-3.wav","48","","","","","","resources/audio/wordStim/S9_AI_25_axb_Step-3.wav","S9","25","axb","3","CN","CN","S9-CN","0","0","true"
"5612","","break","html-keyboard-response","155","1022096","0.0-9.0-2.62-0.62","5a5a507d76d1c60001ab2ac7","condB","","<div class=""vertical-center""><p>Feel free to take a break!</p><i>When you're ready to continue, press SPACE to begin the next trial.</i></p></div>","32","","","","","","","","","","","","","","","",""
"null","","fixation","html-keyboard-response","156","1022602","0.0-9.0-0.63","5a5a507d76d1c60001ab2ac7","condB","","<div class=""vertical-center"" style='width:60%;'><img src=""resources/images/CN_flag_100x52.jpg"" style=""width:100px;height:52px;opacity:0.35;""> <br> <br> <p style='font-weight:bold;'>Does the middle word sound more like the first word (A) or the last word (B)?</p> <br> <div class=""container""> <div id=""a-box""> <p class=""title-text"">A</h3></p> </div> <div id=""x-box""> <p class=""title-text"">X<p> </div> <div id=""b-box""> <p class=""title-text"">B</p></div> <br> <div style='float: left;padding-left:30px;'><p>Press '1' for A</p></div><div style='float: right;padding-right:30px;'><p>Press '0' for B</p> </div> </div></div>","null","","","","","","","","","","","","","","","",""
"4760","","test","audio-keyboard-response","157","1027365","0.0-9.0-1.63","5a5a507d76d1c60001ab2ac7","condB","","resources/audio/wordStim/S9_AI_23_axb_Step-8.wav","48","","","","","","resources/audio/wordStim/S9_AI_23_axb_Step-8.wav","S9","23","axb","8","CN","CN","S9-CN","0","0","true"
"null","","fixation","html-keyboard-response","158","1028392","0.0-9.0-0.64","5a5a507d76d1c60001ab2ac7","condB","","<div class=""vertical-center"" style='width:60%;'><img src=""resources/images/CN_flag_100x52.jpg"" style=""width:100px;height:52px;opacity:0.35;""> <br> <br> <p style='font-weight:bold;'>Does the middle word sound more like the first word (A) or the last word (B)?</p> <br> <div class=""container""> <div id=""a-box""> <p class=""title-text"">A</h3></p> </div> <div id=""x-box""> <p class=""title-text"">X<p> </div> <div id=""b-box""> <p class=""title-text"">B</p></div> <br> <div style='float: left;padding-left:30px;'><p>Press '1' for A</p></div><div style='float: right;padding-right:30px;'><p>Press '0' for B</p> </div> </div></div>","null","","","","","","","","","","","","","","","",""
"4181","","test","audio-keyboard-response","159","1032572","0.0-9.0-1.64","5a5a507d76d1c60001ab2ac7","condB","","resources/audio/wordStim/S9_AI_25_bxa_Step-7.wav","49","","","","","","resources/audio/wordStim/S9_AI_25_bxa_Step-7.wav","S9","25","bxa","7","CN","CN","S9-CN","1","1","true"
"null","","fixation","html-keyboard-response","160","1033592","0.0-9.0-0.65","5a5a507d76d1c60001ab2ac7","condB","","<div class=""vertical-center"" style='width:60%;'><img src=""resources/images/CN_flag_100x52.jpg"" style=""width:100px;height:52px;opacity:0.35;""> <br> <br> <p style='font-weight:bold;'>Does the middle word sound more like the first word (A) or the last word (B)?</p> <br> <div class=""container""> <div id=""a-box""> <p class=""title-text"">A</h3></p> </div> <div id=""x-box""> <p class=""title-text"">X<p> </div> <div id=""b-box""> <p class=""title-text"">B</p></div> <br> <div style='float: left;padding-left:30px;'><p>Press '1' for A</p></div><div style='float: right;padding-right:30px;'><p>Press '0' for B</p> </div> </div></div>","null","","","","","","","","","","","","","","","",""
"4189","","test","audio-keyboard-response","161","1037783","0.0-9.0-1.65","5a5a507d76d1c60001ab2ac7","condB","","resources/audio/wordStim/S9_AU_18_axb_Step-3.wav","49","","","","","","resources/audio/wordStim/S9_AU_18_axb_Step-3.wav","S9","18","axb","3","CN","CN","S9-CN","0","1","false"
"null","","fixation","html-keyboard-response","162","1038813","0.0-9.0-0.66","5a5a507d76d1c60001ab2ac7","condB","","<div class=""vertical-center"" style='width:60%;'><img src=""resources/images/CN_flag_100x52.jpg"" style=""width:100px;height:52px;opacity:0.35;""> <br> <br> <p style='font-weight:bold;'>Does the middle word sound more like the first word (A) or the last word (B)?</p> <br> <div class=""container""> <div id=""a-box""> <p class=""title-text"">A</h3></p> </div> <div id=""x-box""> <p class=""title-text"">X<p> </div> <div id=""b-box""> <p class=""title-text"">B</p></div> <br> <div style='float: left;padding-left:30px;'><p>Press '1' for A</p></div><div style='float: right;padding-right:30px;'><p>Press '0' for B</p> </div> </div></div>","null","","","","","","","","","","","","","","","",""
"3979","","test","audio-keyboard-response","163","1042789","0.0-9.0-1.66","5a5a507d76d1c60001ab2ac7","condB","","resources/audio/wordStim/S9_AI_25_bxa_Step-4.wav","49","","","","","","resources/audio/wordStim/S9_AI_25_bxa_Step-4.wav","S9","25","bxa","4","CN","CN","S9-CN","1","1","true"
"null","","fixation","html-keyboard-response","164","1043814","0.0-9.0-0.67","5a5a507d76d1c60001ab2ac7","condB","","<div class=""vertical-center"" style='width:60%;'><img src=""resources/images/CN_flag_100x52.jpg"" style=""width:100px;height:52px;opacity:0.35;""> <br> <br> <p style='font-weight:bold;'>Does the middle word sound more like the first word (A) or the last word (B)?</p> <br> <div class=""container""> <div id=""a-box""> <p class=""title-text"">A</h3></p> </div> <div id=""x-box""> <p class=""title-text"">X<p> </div> <div id=""b-box""> <p class=""title-text"">B</p></div> <br> <div style='float: left;padding-left:30px;'><p>Press '1' for A</p></div><div style='float: right;padding-right:30px;'><p>Press '0' for B</p> </div> </div></div>","null","","","","","","","","","","","","","","","",""
"4029","","test","audio-keyboard-response","165","1047842","0.0-9.0-1.67","5a5a507d76d1c60001ab2ac7","condB","","resources/audio/wordStim/S9_AU_11_axb_Step-5.wav","49","","","","","","resources/audio/wordStim/S9_AU_11_axb_Step-5.wav","S9","11","axb","5","CN","CN","S9-CN","0","1","false"
"null","","fixation","html-keyboard-response","166","1048883","0.0-9.0-0.68","5a5a507d76d1c60001ab2ac7","condB","","<div class=""vertical-center"" style='width:60%;'><img src=""resources/images/CN_flag_100x52.jpg"" style=""width:100px;height:52px;opacity:0.35;""> <br> <br> <p style='font-weight:bold;'>Does the middle word sound more like the first word (A) or the last word (B)?</p> <br> <div class=""container""> <div id=""a-box""> <p class=""title-text"">A</h3></p> </div> <div id=""x-box""> <p class=""title-text"">X<p> </div> <div id=""b-box""> <p class=""title-text"">B</p></div> <br> <div style='float: left;padding-left:30px;'><p>Press '1' for A</p></div><div style='float: right;padding-right:30px;'><p>Press '0' for B</p> </div> </div></div>","null","","","","","","","","","","","","","","","",""
"6811","","test","audio-keyboard-response","167","1055691","0.0-9.0-1.68","5a5a507d76d1c60001ab2ac7","condB","","resources/audio/wordStim/S9_AU_18_bxa_Step-2.wav","48","","","","","","resources/audio/wordStim/S9_AU_18_bxa_Step-2.wav","S9","18","bxa","2","CN","CN","S9-CN","1","0","false"
"null","","fixation","html-keyboard-response","168","1056724","0.0-9.0-0.69","5a5a507d76d1c60001ab2ac7","condB","","<div class=""vertical-center"" style='width:60%;'><img src=""resources/images/CN_flag_100x52.jpg"" style=""width:100px;height:52px;opacity:0.35;""> <br> <br> <p style='font-weight:bold;'>Does the middle word sound more like the first word (A) or the last word (B)?</p> <br> <div class=""container""> <div id=""a-box""> <p class=""title-text"">A</h3></p> </div> <div id=""x-box""> <p class=""title-text"">X<p> </div> <div id=""b-box""> <p class=""title-text"">B</p></div> <br> <div style='float: left;padding-left:30px;'><p>Press '1' for A</p></div><div style='float: right;padding-right:30px;'><p>Press '0' for B</p> </div> </div></div>","null","","","","","","","","","","","","","","","",""
"4200","","test","audio-keyboard-response","169","1060922","0.0-9.0-1.69","5a5a507d76d1c60001ab2ac7","condB","","resources/audio/wordStim/S9_AU_11_axb_Step-8.wav","48","","","","","","resources/audio/wordStim/S9_AU_11_axb_Step-8.wav","S9","11","axb","8","CN","CN","S9-CN","0","0","true"
"null","","fixation","html-keyboard-response","170","1061943","0.0-9.0-0.70","5a5a507d76d1c60001ab2ac7","condB","","<div class=""vertical-center"" style='width:60%;'><img src=""resources/images/CN_flag_100x52.jpg"" style=""width:100px;height:52px;opacity:0.35;""> <br> <br> <p style='font-weight:bold;'>Does the middle word sound more like the first word (A) or the last word (B)?</p> <br> <div class=""container""> <div id=""a-box""> <p class=""title-text"">A</h3></p> </div> <div id=""x-box""> <p class=""title-text"">X<p> </div> <div id=""b-box""> <p class=""title-text"">B</p></div> <br> <div style='float: left;padding-left:30px;'><p>Press '1' for A</p></div><div style='float: right;padding-right:30px;'><p>Press '0' for B</p> </div> </div></div>","null","","","","","","","","","","","","","","","",""
"3651","","test","audio-keyboard-response","171","1065593","0.0-9.0-1.70","5a5a507d76d1c60001ab2ac7","condB","","resources/audio/wordStim/S9_AI_25_bxa_Step-6.wav","48","","","","","","resources/audio/wordStim/S9_AI_25_bxa_Step-6.wav","S9","25","bxa","6","CN","CN","S9-CN","1","0","false"
"null","","fixation","html-keyboard-response","172","1066619","0.0-9.0-0.71","5a5a507d76d1c60001ab2ac7","condB","","<div class=""vertical-center"" style='width:60%;'><img src=""resources/images/CN_flag_100x52.jpg"" style=""width:100px;height:52px;opacity:0.35;""> <br> <br> <p style='font-weight:bold;'>Does the middle word sound more like the first word (A) or the last word (B)?</p> <br> <div class=""container""> <div id=""a-box""> <p class=""title-text"">A</h3></p> </div> <div id=""x-box""> <p class=""title-text"">X<p> </div> <div id=""b-box""> <p class=""title-text"">B</p></div> <br> <div style='float: left;padding-left:30px;'><p>Press '1' for A</p></div><div style='float: right;padding-right:30px;'><p>Press '0' for B</p> </div> </div></div>","null","","","","","","","","","","","","","","","",""
"4112","","test","audio-keyboard-response","173","1070729","0.0-9.0-1.71","5a5a507d76d1c60001ab2ac7","condB","","resources/audio/wordStim/S9_AU_20_bxa_Step-6.wav","49","","","","","","resources/audio/wordStim/S9_AU_20_bxa_Step-6.wav","S9","20","bxa","6","CN","CN","S9-CN","1","1","true"
"null","","fixation","html-keyboard-response","174","1071764","0.0-9.0-0.72","5a5a507d76d1c60001ab2ac7","condB","","<div class=""vertical-center"" style='width:60%;'><img src=""resources/images/CN_flag_100x52.jpg"" style=""width:100px;height:52px;opacity:0.35;""> <br> <br> <p style='font-weight:bold;'>Does the middle word sound more like the first word (A) or the last word (B)?</p> <br> <div class=""container""> <div id=""a-box""> <p class=""title-text"">A</h3></p> </div> <div id=""x-box""> <p class=""title-text"">X<p> </div> <div id=""b-box""> <p class=""title-text"">B</p></div> <br> <div style='float: left;padding-left:30px;'><p>Press '1' for A</p></div><div style='float: right;padding-right:30px;'><p>Press '0' for B</p> </div> </div></div>","null","","","","","","","","","","","","","","","",""
"3339","","test","audio-keyboard-response","175","1075101","0.0-9.0-1.72","5a5a507d76d1c60001ab2ac7","condB","","resources/audio/wordStim/S9_AU_20_bxa_Step-7.wav","49","","","","","","resources/audio/wordStim/S9_AU_20_bxa_Step-7.wav","S9","20","bxa","7","CN","CN","S9-CN","1","1","true"
"null","","fixation","html-keyboard-response","176","1076124","0.0-9.0-0.73","5a5a507d76d1c60001ab2ac7","condB","","<div class=""vertical-center"" style='width:60%;'><img src=""resources/images/CN_flag_100x52.jpg"" style=""width:100px;height:52px;opacity:0.35;""> <br> <br> <p style='font-weight:bold;'>Does the middle word sound more like the first word (A) or the last word (B)?</p> <br> <div class=""container""> <div id=""a-box""> <p class=""title-text"">A</h3></p> </div> <div id=""x-box""> <p class=""title-text"">X<p> </div> <div id=""b-box""> <p class=""title-text"">B</p></div> <br> <div style='float: left;padding-left:30px;'><p>Press '1' for A</p></div><div style='float: right;padding-right:30px;'><p>Press '0' for B</p> </div> </div></div>","null","","","","","","","","","","","","","","","",""
"5779","","test","audio-keyboard-response","177","1081898","0.0-9.0-1.73","5a5a507d76d1c60001ab2ac7","condB","","resources/audio/wordStim/S9_AI_23_bxa_Step-2.wav","48","","","","","","resources/audio/wordStim/S9_AI_23_bxa_Step-2.wav","S9","23","bxa","2","CN","CN","S9-CN","1","0","false"
"null","","fixation","html-keyboard-response","178","1082935","0.0-9.0-0.74","5a5a507d76d1c60001ab2ac7","condB","","<div class=""vertical-center"" style='width:60%;'><img src=""resources/images/CN_flag_100x52.jpg"" style=""width:100px;height:52px;opacity:0.35;""> <br> <br> <p style='font-weight:bold;'>Does the middle word sound more like the first word (A) or the last word (B)?</p> <br> <div class=""container""> <div id=""a-box""> <p class=""title-text"">A</h3></p> </div> <div id=""x-box""> <p class=""title-text"">X<p> </div> <div id=""b-box""> <p class=""title-text"">B</p></div> <br> <div style='float: left;padding-left:30px;'><p>Press '1' for A</p></div><div style='float: right;padding-right:30px;'><p>Press '0' for B</p> </div> </div></div>","null","","","","","","","","","","","","","","","",""
"3888","","test","audio-keyboard-response","179","1086824","0.0-9.0-1.74","5a5a507d76d1c60001ab2ac7","condB","","resources/audio/wordStim/S9_AI_29_bxa_Step-8.wav","49","","","","","","resources/audio/wordStim/S9_AI_29_bxa_Step-8.wav","S9","29","bxa","8","CN","CN","S9-CN","1","1","true"
"null","","fixation","html-keyboard-response","180","1087845","0.0-9.0-0.75","5a5a507d76d1c60001ab2ac7","condB","","<div class=""vertical-center"" style='width:60%;'><img src=""resources/images/CN_flag_100x52.jpg"" style=""width:100px;height:52px;opacity:0.35;""> <br> <br> <p style='font-weight:bold;'>Does the middle word sound more like the first word (A) or the last word (B)?</p> <br> <div class=""container""> <div id=""a-box""> <p class=""title-text"">A</h3></p> </div> <div id=""x-box""> <p class=""title-text"">X<p> </div> <div id=""b-box""> <p class=""title-text"">B</p></div> <br> <div style='float: left;padding-left:30px;'><p>Press '1' for A</p></div><div style='float: right;padding-right:30px;'><p>Press '0' for B</p> </div> </div></div>","null","","","","","","","","","","","","","","","",""
"5029","","test","audio-keyboard-response","181","1092874","0.0-9.0-1.75","5a5a507d76d1c60001ab2ac7","condB","","resources/audio/wordStim/S9_AU_11_bxa_Step-3.wav","49","","","","","","resources/audio/wordStim/S9_AU_11_bxa_Step-3.wav","S9","11","bxa","3","CN","CN","S9-CN","1","1","true"
"null","","fixation","html-keyboard-response","182","1093914","0.0-9.0-0.76","5a5a507d76d1c60001ab2ac7","condB","","<div class=""vertical-center"" style='width:60%;'><img src=""resources/images/CN_flag_100x52.jpg"" style=""width:100px;height:52px;opacity:0.35;""> <br> <br> <p style='font-weight:bold;'>Does the middle word sound more like the first word (A) or the last word (B)?</p> <br> <div class=""container""> <div id=""a-box""> <p class=""title-text"">A</h3></p> </div> <div id=""x-box""> <p class=""title-text"">X<p> </div> <div id=""b-box""> <p class=""title-text"">B</p></div> <br> <div style='float: left;padding-left:30px;'><p>Press '1' for A</p></div><div style='float: right;padding-right:30px;'><p>Press '0' for B</p> </div> </div></div>","null","","","","","","","","","","","","","","","",""
"3731","","test","audio-keyboard-response","183","1097637","0.0-9.0-1.76","5a5a507d76d1c60001ab2ac7","condB","","resources/audio/wordStim/S9_AU_20_bxa_Step-3.wav","49","","","","","","resources/audio/wordStim/S9_AU_20_bxa_Step-3.wav","S9","20","bxa","3","CN","CN","S9-CN","1","1","true"
"null","","fixation","html-keyboard-response","184","1098665","0.0-9.0-0.77","5a5a507d76d1c60001ab2ac7","condB","","<div class=""vertical-center"" style='width:60%;'><img src=""resources/images/CN_flag_100x52.jpg"" style=""width:100px;height:52px;opacity:0.35;""> <br> <br> <p style='font-weight:bold;'>Does the middle word sound more like the first word (A) or the last word (B)?</p> <br> <div class=""container""> <div id=""a-box""> <p class=""title-text"">A</h3></p> </div> <div id=""x-box""> <p class=""title-text"">X<p> </div> <div id=""b-box""> <p class=""title-text"">B</p></div> <br> <div style='float: left;padding-left:30px;'><p>Press '1' for A</p></div><div style='float: right;padding-right:30px;'><p>Press '0' for B</p> </div> </div></div>","null","","","","","","","","","","","","","","","",""
"3461","","test","audio-keyboard-response","185","1102119","0.0-9.0-1.77","5a5a507d76d1c60001ab2ac7","condB","","resources/audio/wordStim/S9_AU_20_axb_Step-3.wav","48","","","","","","resources/audio/wordStim/S9_AU_20_axb_Step-3.wav","S9","20","axb","3","CN","CN","S9-CN","0","0","true"
"null","","fixation","html-keyboard-response","186","1103155","0.0-9.0-0.78","5a5a507d76d1c60001ab2ac7","condB","","<div class=""vertical-center"" style='width:60%;'><img src=""resources/images/CN_flag_100x52.jpg"" style=""width:100px;height:52px;opacity:0.35;""> <br> <br> <p style='font-weight:bold;'>Does the middle word sound more like the first word (A) or the last word (B)?</p> <br> <div class=""container""> <div id=""a-box""> <p class=""title-text"">A</h3></p> </div> <div id=""x-box""> <p class=""title-text"">X<p> </div> <div id=""b-box""> <p class=""title-text"">B</p></div> <br> <div style='float: left;padding-left:30px;'><p>Press '1' for A</p></div><div style='float: right;padding-right:30px;'><p>Press '0' for B</p> </div> </div></div>","null","","","","","","","","","","","","","","","",""
"4811","","test","audio-keyboard-response","187","1107965","0.0-9.0-1.78","5a5a507d76d1c60001ab2ac7","condB","","resources/audio/wordStim/S9_AU_18_bxa_Step-8.wav","49","","","","","","resources/audio/wordStim/S9_AU_18_bxa_Step-8.wav","S9","18","bxa","8","CN","CN","S9-CN","1","1","true"
"null","","fixation","html-keyboard-response","188","1108985","0.0-9.0-0.79","5a5a507d76d1c60001ab2ac7","condB","","<div class=""vertical-center"" style='width:60%;'><img src=""resources/images/CN_flag_100x52.jpg"" style=""width:100px;height:52px;opacity:0.35;""> <br> <br> <p style='font-weight:bold;'>Does the middle word sound more like the first word (A) or the last word (B)?</p> <br> <div class=""container""> <div id=""a-box""> <p class=""title-text"">A</h3></p> </div> <div id=""x-box""> <p class=""title-text"">X<p> </div> <div id=""b-box""> <p class=""title-text"">B</p></div> <br> <div style='float: left;padding-left:30px;'><p>Press '1' for A</p></div><div style='float: right;padding-right:30px;'><p>Press '0' for B</p> </div> </div></div>","null","","","","","","","","","","","","","","","",""
"3840","","test","audio-keyboard-response","189","1112824","0.0-9.0-1.79","5a5a507d76d1c60001ab2ac7","condB","","resources/audio/wordStim/S9_AI_29_bxa_Step-5.wav","49","","","","","","resources/audio/wordStim/S9_AI_29_bxa_Step-5.wav","S9","29","bxa","5","CN","CN","S9-CN","1","1","true"
"null","","fixation","html-keyboard-response","190","1113845","0.0-9.0-0.80","5a5a507d76d1c60001ab2ac7","condB","","<div class=""vertical-center"" style='width:60%;'><img src=""resources/images/CN_flag_100x52.jpg"" style=""width:100px;height:52px;opacity:0.35;""> <br> <br> <p style='font-weight:bold;'>Does the middle word sound more like the first word (A) or the last word (B)?</p> <br> <div class=""container""> <div id=""a-box""> <p class=""title-text"">A</h3></p> </div> <div id=""x-box""> <p class=""title-text"">X<p> </div> <div id=""b-box""> <p class=""title-text"">B</p></div> <br> <div style='float: left;padding-left:30px;'><p>Press '1' for A</p></div><div style='float: right;padding-right:30px;'><p>Press '0' for B</p> </div> </div></div>","null","","","","","","","","","","","","","","","",""
"3760","","test","audio-keyboard-response","191","1117606","0.0-9.0-1.80","5a5a507d76d1c60001ab2ac7","condB","","resources/audio/wordStim/S9_AI_23_axb_Step-5.wav","49","","","","","","resources/audio/wordStim/S9_AI_23_axb_Step-5.wav","S9","23","axb","5","CN","CN","S9-CN","0","1","false"
"null","","fixation","html-keyboard-response","192","1118626","0.0-9.0-0.81","5a5a507d76d1c60001ab2ac7","condB","","<div class=""vertical-center"" style='width:60%;'><img src=""resources/images/CN_flag_100x52.jpg"" style=""width:100px;height:52px;opacity:0.35;""> <br> <br> <p style='font-weight:bold;'>Does the middle word sound more like the first word (A) or the last word (B)?</p> <br> <div class=""container""> <div id=""a-box""> <p class=""title-text"">A</h3></p> </div> <div id=""x-box""> <p class=""title-text"">X<p> </div> <div id=""b-box""> <p class=""title-text"">B</p></div> <br> <div style='float: left;padding-left:30px;'><p>Press '1' for A</p></div><div style='float: right;padding-right:30px;'><p>Press '0' for B</p> </div> </div></div>","null","","","","","","","","","","","","","","","",""
"3341","","test","audio-keyboard-response","193","1121958","0.0-9.0-1.81","5a5a507d76d1c60001ab2ac7","condB","","resources/audio/wordStim/S9_AI_23_bxa_Step-5.wav","48","","","","","","resources/audio/wordStim/S9_AI_23_bxa_Step-5.wav","S9","23","bxa","5","CN","CN","S9-CN","1","0","false"
