"rt","url","trial_role","trial_type","trial_index","time_elapsed","internal_node_id","participantId","condition","view_history","stimulus","key_press","button_pressed","correct_answer","correct_response","success","vowel","wordStim","speaker","sentNum","order","step","speakerIdentity","raised_answer","key_response","raised_response"
"11347","micr.con.consent.html","consent","external-html","0","11409","0.0-0.0","5a80e46a2a842c0001fc913f","condA","","","","","","","","","","","","","","","","",""
"47269","","instructions","instructions","1","58681","0.0-1.0","5a80e46a2a842c0001fc913f","condA","[{""page_index"":0,""viewing_time"":11108},{""page_index"":1,""viewing_time"":22727},{""page_index"":2,""viewing_time"":13433}]","","","","","","","","","","","","","","","",""
"null","","fixation","html-keyboard-response","2","59183","0.0-2.0-0.0","5a80e46a2a842c0001fc913f","condA","","<div class=""vertical-center"" style=""font-size:60px;"">+</div>","null","","","","","","","","","","","","","",""
"4390","","tonetest","audio-button-response","3","63576","0.0-2.0-1.0","5a80e46a2a842c0001fc913f","condA","","../../src/audio/toneTest_5.wav","","0","0","true","","","","","","","","","","",""
"null","","fixation","html-keyboard-response","4","64079","0.0-2.0-0.1","5a80e46a2a842c0001fc913f","condA","","<div class=""vertical-center"" style=""font-size:60px;"">+</div>","null","","","","","","","","","","","","","",""
"4254","","tonetest","audio-button-response","5","68335","0.0-2.0-1.1","5a80e46a2a842c0001fc913f","condA","","../../src/audio/toneTest_1.wav","","2","2","true","","","","","","","","","","",""
"null","","fixation","html-keyboard-response","6","68838","0.0-2.0-0.2","5a80e46a2a842c0001fc913f","condA","","<div class=""vertical-center"" style=""font-size:60px;"">+</div>","null","","","","","","","","","","","","","",""
"4240","","tonetest","audio-button-response","7","73080","0.0-2.0-1.2","5a80e46a2a842c0001fc913f","condA","","../../src/audio/toneTest_5.wav","","0","0","true","","","","","","","","","","",""
"null","","fixation","html-keyboard-response","8","73580","0.0-2.0-0.3","5a80e46a2a842c0001fc913f","condA","","<div class=""vertical-center"" style=""font-size:60px;"">+</div>","null","","","","","","","","","","","","","",""
"3977","","tonetest","audio-button-response","9","77559","0.0-2.0-1.3","5a80e46a2a842c0001fc913f","condA","","../../src/audio/toneTest_3.wav","","2","2","true","","","","","","","","","","",""
"null","","fixation","html-keyboard-response","10","78062","0.0-2.0-0.4","5a80e46a2a842c0001fc913f","condA","","<div class=""vertical-center"" style=""font-size:60px;"">+</div>","null","","","","","","","","","","","","","",""
"3920","","tonetest","audio-button-response","11","81983","0.0-2.0-1.4","5a80e46a2a842c0001fc913f","condA","","../../src/audio/toneTest_1.wav","","2","2","true","","","","","","","","","","",""
"null","","fixation","html-keyboard-response","12","82485","0.0-2.0-0.5","5a80e46a2a842c0001fc913f","condA","","<div class=""vertical-center"" style=""font-size:60px;"">+</div>","null","","","","","","","","","","","","","",""
"4201","","tonetest","audio-button-response","13","86687","0.0-2.0-1.5","5a80e46a2a842c0001fc913f","condA","","../../src/audio/toneTest_2.wav","","1","1","true","","","","","","","","","","",""
"5499","","instructions","html-keyboard-response","14","92188","0.0-3.0","5a80e46a2a842c0001fc913f","condA","","<div class=""vertical-center""><p><b>Your score was 6/6.</b></p><p>If you scored below 6, please ensure that you are wearing headphones and in a quiet location free of distractions.</p><p><i>To continue to the main experiment, press SPACE.</i></p></div>","32","","","","","","","","","","","","","",""
"","","","fullscreen","15","95744","0.0-4.0","5a80e46a2a842c0001fc913f","condA","","","","","","","true","","","","","","","","","",""
"30803","","instructions","instructions","16","126548","0.0-5.0","5a80e46a2a842c0001fc913f","condA","[{""page_index"":0,""viewing_time"":30802}]","","","","","","","","","","","","","","","",""
"null","","fixation","html-keyboard-response","17","127050","0.0-6.0-0.0","5a80e46a2a842c0001fc913f","condA","","<div class=""vertical-center"" style='width:60%;'><p style='font-weight:bold;'>Does the middle word sound more like the first word (A) or the last word (B)?</p> <br> <div class=""container""> <div id=""a-box""> <p class=""title-text"">A</h3></p> </div> <div id=""x-box""> <p class=""title-text"">X<p> </div> <div id=""b-box""> <p class=""title-text"">B</p></div> <br> <div style='float: left;padding-left:30px;'><p>Press '1' for A</p></div><div style='float: right;padding-right:30px;'><p>Press '0' for B</p> </div> </div></div>","null","","","","","","","","","","","","","",""
"3291","","practice","audio-keyboard-response","18","130331","0.0-6.0-1.0","5a80e46a2a842c0001fc913f","condA","","resources/audio/practiceStim/S1_AU_14_bxa_Step-6.wav","48","","","","","","","","","","","","","",""
"null","","fixation","html-keyboard-response","19","131333","0.0-6.0-0.1","5a80e46a2a842c0001fc913f","condA","","<div class=""vertical-center"" style='width:60%;'><p style='font-weight:bold;'>Does the middle word sound more like the first word (A) or the last word (B)?</p> <br> <div class=""container""> <div id=""a-box""> <p class=""title-text"">A</h3></p> </div> <div id=""x-box""> <p class=""title-text"">X<p> </div> <div id=""b-box""> <p class=""title-text"">B</p></div> <br> <div style='float: left;padding-left:30px;'><p>Press '1' for A</p></div><div style='float: right;padding-right:30px;'><p>Press '0' for B</p> </div> </div></div>","null","","","","","","","","","","","","","",""
"3280","","practice","audio-keyboard-response","20","134619","0.0-6.0-1.1","5a80e46a2a842c0001fc913f","condA","","resources/audio/practiceStim/S1_AI_21_axb_Step-6.wav","49","","","","","","","","","","","","","",""
"null","","fixation","html-keyboard-response","21","135623","0.0-6.0-0.2","5a80e46a2a842c0001fc913f","condA","","<div class=""vertical-center"" style='width:60%;'><p style='font-weight:bold;'>Does the middle word sound more like the first word (A) or the last word (B)?</p> <br> <div class=""container""> <div id=""a-box""> <p class=""title-text"">A</h3></p> </div> <div id=""x-box""> <p class=""title-text"">X<p> </div> <div id=""b-box""> <p class=""title-text"">B</p></div> <br> <div style='float: left;padding-left:30px;'><p>Press '1' for A</p></div><div style='float: right;padding-right:30px;'><p>Press '0' for B</p> </div> </div></div>","null","","","","","","","","","","","","","",""
"3280","","practice","audio-keyboard-response","22","138906","0.0-6.0-1.2","5a80e46a2a842c0001fc913f","condA","","resources/audio/practiceStim/S1_AI_21_bxa_Step-6.wav","49","","","","","","","","","","","","","",""
"null","","fixation","html-keyboard-response","23","139909","0.0-6.0-0.3","5a80e46a2a842c0001fc913f","condA","","<div class=""vertical-center"" style='width:60%;'><p style='font-weight:bold;'>Does the middle word sound more like the first word (A) or the last word (B)?</p> <br> <div class=""container""> <div id=""a-box""> <p class=""title-text"">A</h3></p> </div> <div id=""x-box""> <p class=""title-text"">X<p> </div> <div id=""b-box""> <p class=""title-text"">B</p></div> <br> <div style='float: left;padding-left:30px;'><p>Press '1' for A</p></div><div style='float: right;padding-right:30px;'><p>Press '0' for B</p> </div> </div></div>","null","","","","","","","","","","","","","",""
"3120","","practice","audio-keyboard-response","24","143026","0.0-6.0-1.3","5a80e46a2a842c0001fc913f","condA","","resources/audio/practiceStim/S1_AU_14_axb_Step-6.wav","49","","","","","","","","","","","","","",""
"2410","","instructions","instructions","25","145939","0.0-7.0","5a80e46a2a842c0001fc913f","condA","[{""page_index"":0,""viewing_time"":2410}]","","","","","","","","","","","","","","","",""
"null","","fixation","html-keyboard-response","26","146440","0.0-8.0-0.0","5a80e46a2a842c0001fc913f","condA","","<div class=""vertical-center"" style='width:60%;'><p style='font-weight:bold;'>Does the middle word sound more like the first word (A) or the last word (B)?</p> <br> <div class=""container""> <div id=""a-box""> <p class=""title-text"">A</h3></p> </div> <div id=""x-box""> <p class=""title-text"">X<p> </div> <div id=""b-box""> <p class=""title-text"">B</p></div> <br> <div style='float: left;padding-left:30px;'><p>Press '1' for A</p></div><div style='float: right;padding-right:30px;'><p>Press '0' for B</p> </div> </div></div>","null","","","","","","","","","","","","","",""
"3392","","test","audio-keyboard-response","27","149835","0.0-8.0-1.0","5a80e46a2a842c0001fc913f","condA","","resources/audio/wordStim/S9_AU_11_bxa_Step-4.wav","49","","","","","AU","resources/audio/wordStim/S9_AU_11_bxa_Step-4.wav","S9","11","bxa","4","CN","1","1","true"
"null","","fixation","html-keyboard-response","28","150839","0.0-8.0-0.1","5a80e46a2a842c0001fc913f","condA","","<div class=""vertical-center"" style='width:60%;'><p style='font-weight:bold;'>Does the middle word sound more like the first word (A) or the last word (B)?</p> <br> <div class=""container""> <div id=""a-box""> <p class=""title-text"">A</h3></p> </div> <div id=""x-box""> <p class=""title-text"">X<p> </div> <div id=""b-box""> <p class=""title-text"">B</p></div> <br> <div style='float: left;padding-left:30px;'><p>Press '1' for A</p></div><div style='float: right;padding-right:30px;'><p>Press '0' for B</p> </div> </div></div>","null","","","","","","","","","","","","","",""
"3640","","test","audio-keyboard-response","29","154474","0.0-8.0-1.1","5a80e46a2a842c0001fc913f","condA","","resources/audio/wordStim/S9_AI_27_bxa_Step-2.wav","48","","","","","AI","resources/audio/wordStim/S9_AI_27_bxa_Step-2.wav","S9","27","bxa","2","CN","1","0","false"
"null","","fixation","html-keyboard-response","30","155475","0.0-8.0-0.2","5a80e46a2a842c0001fc913f","condA","","<div class=""vertical-center"" style='width:60%;'><p style='font-weight:bold;'>Does the middle word sound more like the first word (A) or the last word (B)?</p> <br> <div class=""container""> <div id=""a-box""> <p class=""title-text"">A</h3></p> </div> <div id=""x-box""> <p class=""title-text"">X<p> </div> <div id=""b-box""> <p class=""title-text"">B</p></div> <br> <div style='float: left;padding-left:30px;'><p>Press '1' for A</p></div><div style='float: right;padding-right:30px;'><p>Press '0' for B</p> </div> </div></div>","null","","","","","","","","","","","","","",""
"3600","","test","audio-keyboard-response","31","159075","0.0-8.0-1.2","5a80e46a2a842c0001fc913f","condA","","resources/audio/wordStim/S9_AI_27_bxa_Step-4.wav","49","","","","","AI","resources/audio/wordStim/S9_AI_27_bxa_Step-4.wav","S9","27","bxa","4","CN","1","1","true"
"null","","fixation","html-keyboard-response","32","160077","0.0-8.0-0.3","5a80e46a2a842c0001fc913f","condA","","<div class=""vertical-center"" style='width:60%;'><p style='font-weight:bold;'>Does the middle word sound more like the first word (A) or the last word (B)?</p> <br> <div class=""container""> <div id=""a-box""> <p class=""title-text"">A</h3></p> </div> <div id=""x-box""> <p class=""title-text"">X<p> </div> <div id=""b-box""> <p class=""title-text"">B</p></div> <br> <div style='float: left;padding-left:30px;'><p>Press '1' for A</p></div><div style='float: right;padding-right:30px;'><p>Press '0' for B</p> </div> </div></div>","null","","","","","","","","","","","","","",""
"3179","","test","audio-keyboard-response","33","163250","0.0-8.0-1.3","5a80e46a2a842c0001fc913f","condA","","resources/audio/wordStim/S9_AU_16_axb_Step-9.wav","48","","","","","AU","resources/audio/wordStim/S9_AU_16_axb_Step-9.wav","S9","16","axb","9","CN","0","0","true"
"null","","fixation","html-keyboard-response","34","164252","0.0-8.0-0.4","5a80e46a2a842c0001fc913f","condA","","<div class=""vertical-center"" style='width:60%;'><p style='font-weight:bold;'>Does the middle word sound more like the first word (A) or the last word (B)?</p> <br> <div class=""container""> <div id=""a-box""> <p class=""title-text"">A</h3></p> </div> <div id=""x-box""> <p class=""title-text"">X<p> </div> <div id=""b-box""> <p class=""title-text"">B</p></div> <br> <div style='float: left;padding-left:30px;'><p>Press '1' for A</p></div><div style='float: right;padding-right:30px;'><p>Press '0' for B</p> </div> </div></div>","null","","","","","","","","","","","","","",""
"3411","","test","audio-keyboard-response","35","167666","0.0-8.0-1.4","5a80e46a2a842c0001fc913f","condA","","resources/audio/wordStim/S9_AI_29_axb_Step-3.wav","49","","","","","AI","resources/audio/wordStim/S9_AI_29_axb_Step-3.wav","S9","29","axb","3","CN","0","1","false"
"null","","fixation","html-keyboard-response","36","168668","0.0-8.0-0.5","5a80e46a2a842c0001fc913f","condA","","<div class=""vertical-center"" style='width:60%;'><p style='font-weight:bold;'>Does the middle word sound more like the first word (A) or the last word (B)?</p> <br> <div class=""container""> <div id=""a-box""> <p class=""title-text"">A</h3></p> </div> <div id=""x-box""> <p class=""title-text"">X<p> </div> <div id=""b-box""> <p class=""title-text"">B</p></div> <br> <div style='float: left;padding-left:30px;'><p>Press '1' for A</p></div><div style='float: right;padding-right:30px;'><p>Press '0' for B</p> </div> </div></div>","null","","","","","","","","","","","","","",""
"3979","","test","audio-keyboard-response","37","172642","0.0-8.0-1.5","5a80e46a2a842c0001fc913f","condA","","resources/audio/wordStim/S3_AU_19_bxa_Step-2.wav","48","","","","","AU","resources/audio/wordStim/S3_AU_19_bxa_Step-2.wav","S3","19","bxa","2","MI","1","0","false"
"null","","fixation","html-keyboard-response","38","173645","0.0-8.0-0.6","5a80e46a2a842c0001fc913f","condA","","<div class=""vertical-center"" style='width:60%;'><p style='font-weight:bold;'>Does the middle word sound more like the first word (A) or the last word (B)?</p> <br> <div class=""container""> <div id=""a-box""> <p class=""title-text"">A</h3></p> </div> <div id=""x-box""> <p class=""title-text"">X<p> </div> <div id=""b-box""> <p class=""title-text"">B</p></div> <br> <div style='float: left;padding-left:30px;'><p>Press '1' for A</p></div><div style='float: right;padding-right:30px;'><p>Press '0' for B</p> </div> </div></div>","null","","","","","","","","","","","","","",""
"2792","","test","audio-keyboard-response","39","176435","0.0-8.0-1.6","5a80e46a2a842c0001fc913f","condA","","resources/audio/wordStim/S9_AU_16_axb_Step-5.wav","49","","","","","AU","resources/audio/wordStim/S9_AU_16_axb_Step-5.wav","S9","16","axb","5","CN","0","1","false"
"null","","fixation","html-keyboard-response","40","177435","0.0-8.0-0.7","5a80e46a2a842c0001fc913f","condA","","<div class=""vertical-center"" style='width:60%;'><p style='font-weight:bold;'>Does the middle word sound more like the first word (A) or the last word (B)?</p> <br> <div class=""container""> <div id=""a-box""> <p class=""title-text"">A</h3></p> </div> <div id=""x-box""> <p class=""title-text"">X<p> </div> <div id=""b-box""> <p class=""title-text"">B</p></div> <br> <div style='float: left;padding-left:30px;'><p>Press '1' for A</p></div><div style='float: right;padding-right:30px;'><p>Press '0' for B</p> </div> </div></div>","null","","","","","","","","","","","","","",""
"3528","","test","audio-keyboard-response","41","180962","0.0-8.0-1.7","5a80e46a2a842c0001fc913f","condA","","resources/audio/wordStim/S3_AI_30_axb_Step-5.wav","49","","","","","AI","resources/audio/wordStim/S3_AI_30_axb_Step-5.wav","S3","30","axb","5","MI","0","1","false"
"null","","fixation","html-keyboard-response","42","181966","0.0-8.0-0.8","5a80e46a2a842c0001fc913f","condA","","<div class=""vertical-center"" style='width:60%;'><p style='font-weight:bold;'>Does the middle word sound more like the first word (A) or the last word (B)?</p> <br> <div class=""container""> <div id=""a-box""> <p class=""title-text"">A</h3></p> </div> <div id=""x-box""> <p class=""title-text"">X<p> </div> <div id=""b-box""> <p class=""title-text"">B</p></div> <br> <div style='float: left;padding-left:30px;'><p>Press '1' for A</p></div><div style='float: right;padding-right:30px;'><p>Press '0' for B</p> </div> </div></div>","null","","","","","","","","","","","","","",""
"2752","","test","audio-keyboard-response","43","184714","0.0-8.0-1.8","5a80e46a2a842c0001fc913f","condA","","resources/audio/wordStim/S3_AI_21_axb_Step-9.wav","49","","","","","AI","resources/audio/wordStim/S3_AI_21_axb_Step-9.wav","S3","21","axb","9","MI","0","1","false"
"null","","fixation","html-keyboard-response","44","185716","0.0-8.0-0.9","5a80e46a2a842c0001fc913f","condA","","<div class=""vertical-center"" style='width:60%;'><p style='font-weight:bold;'>Does the middle word sound more like the first word (A) or the last word (B)?</p> <br> <div class=""container""> <div id=""a-box""> <p class=""title-text"">A</h3></p> </div> <div id=""x-box""> <p class=""title-text"">X<p> </div> <div id=""b-box""> <p class=""title-text"">B</p></div> <br> <div style='float: left;padding-left:30px;'><p>Press '1' for A</p></div><div style='float: right;padding-right:30px;'><p>Press '0' for B</p> </div> </div></div>","null","","","","","","","","","","","","","",""
"3160","","test","audio-keyboard-response","45","188874","0.0-8.0-1.9","5a80e46a2a842c0001fc913f","condA","","resources/audio/wordStim/S9_AU_14_bxa_Step-8.wav","49","","","","","AU","resources/audio/wordStim/S9_AU_14_bxa_Step-8.wav","S9","14","bxa","8","CN","1","1","true"
"null","","fixation","html-keyboard-response","46","189877","0.0-8.0-0.10","5a80e46a2a842c0001fc913f","condA","","<div class=""vertical-center"" style='width:60%;'><p style='font-weight:bold;'>Does the middle word sound more like the first word (A) or the last word (B)?</p> <br> <div class=""container""> <div id=""a-box""> <p class=""title-text"">A</h3></p> </div> <div id=""x-box""> <p class=""title-text"">X<p> </div> <div id=""b-box""> <p class=""title-text"">B</p></div> <br> <div style='float: left;padding-left:30px;'><p>Press '1' for A</p></div><div style='float: right;padding-right:30px;'><p>Press '0' for B</p> </div> </div></div>","null","","","","","","","","","","","","","",""
"2840","","test","audio-keyboard-response","47","192714","0.0-8.0-1.10","5a80e46a2a842c0001fc913f","condA","","resources/audio/wordStim/S9_AI_24_axb_Step-9.wav","48","","","","","AI","resources/audio/wordStim/S9_AI_24_axb_Step-9.wav","S9","24","axb","9","CN","0","0","true"
"null","","fixation","html-keyboard-response","48","193716","0.0-8.0-0.11","5a80e46a2a842c0001fc913f","condA","","<div class=""vertical-center"" style='width:60%;'><p style='font-weight:bold;'>Does the middle word sound more like the first word (A) or the last word (B)?</p> <br> <div class=""container""> <div id=""a-box""> <p class=""title-text"">A</h3></p> </div> <div id=""x-box""> <p class=""title-text"">X<p> </div> <div id=""b-box""> <p class=""title-text"">B</p></div> <br> <div style='float: left;padding-left:30px;'><p>Press '1' for A</p></div><div style='float: right;padding-right:30px;'><p>Press '0' for B</p> </div> </div></div>","null","","","","","","","","","","","","","",""
"2648","","test","audio-keyboard-response","49","196362","0.0-8.0-1.11","5a80e46a2a842c0001fc913f","condA","","resources/audio/wordStim/S3_AI_21_axb_Step-3.wav","49","","","","","AI","resources/audio/wordStim/S3_AI_21_axb_Step-3.wav","S3","21","axb","3","MI","0","1","false"
"null","","fixation","html-keyboard-response","50","197364","0.0-8.0-0.12","5a80e46a2a842c0001fc913f","condA","","<div class=""vertical-center"" style='width:60%;'><p style='font-weight:bold;'>Does the middle word sound more like the first word (A) or the last word (B)?</p> <br> <div class=""container""> <div id=""a-box""> <p class=""title-text"">A</h3></p> </div> <div id=""x-box""> <p class=""title-text"">X<p> </div> <div id=""b-box""> <p class=""title-text"">B</p></div> <br> <div style='float: left;padding-left:30px;'><p>Press '1' for A</p></div><div style='float: right;padding-right:30px;'><p>Press '0' for B</p> </div> </div></div>","null","","","","","","","","","","","","","",""
"3392","","test","audio-keyboard-response","51","200754","0.0-8.0-1.12","5a80e46a2a842c0001fc913f","condA","","resources/audio/wordStim/S9_AI_29_axb_Step-7.wav","49","","","","","AI","resources/audio/wordStim/S9_AI_29_axb_Step-7.wav","S9","29","axb","7","CN","0","1","false"
"null","","fixation","html-keyboard-response","52","201755","0.0-8.0-0.13","5a80e46a2a842c0001fc913f","condA","","<div class=""vertical-center"" style='width:60%;'><p style='font-weight:bold;'>Does the middle word sound more like the first word (A) or the last word (B)?</p> <br> <div class=""container""> <div id=""a-box""> <p class=""title-text"">A</h3></p> </div> <div id=""x-box""> <p class=""title-text"">X<p> </div> <div id=""b-box""> <p class=""title-text"">B</p></div> <br> <div style='float: left;padding-left:30px;'><p>Press '1' for A</p></div><div style='float: right;padding-right:30px;'><p>Press '0' for B</p> </div> </div></div>","null","","","","","","","","","","","","","",""
"3909","","test","audio-keyboard-response","53","205666","0.0-8.0-1.13","5a80e46a2a842c0001fc913f","condA","","resources/audio/wordStim/S3_AI_30_bxa_Step-2.wav","49","","","","","AI","resources/audio/wordStim/S3_AI_30_bxa_Step-2.wav","S3","30","bxa","2","MI","1","1","true"
"null","","fixation","html-keyboard-response","54","206668","0.0-8.0-0.14","5a80e46a2a842c0001fc913f","condA","","<div class=""vertical-center"" style='width:60%;'><p style='font-weight:bold;'>Does the middle word sound more like the first word (A) or the last word (B)?</p> <br> <div class=""container""> <div id=""a-box""> <p class=""title-text"">A</h3></p> </div> <div id=""x-box""> <p class=""title-text"">X<p> </div> <div id=""b-box""> <p class=""title-text"">B</p></div> <br> <div style='float: left;padding-left:30px;'><p>Press '1' for A</p></div><div style='float: right;padding-right:30px;'><p>Press '0' for B</p> </div> </div></div>","null","","","","","","","","","","","","","",""
"3229","","test","audio-keyboard-response","55","209899","0.0-8.0-1.14","5a80e46a2a842c0001fc913f","condA","","resources/audio/wordStim/S3_AI_28_bxa_Step-6.wav","49","","","","","AI","resources/audio/wordStim/S3_AI_28_bxa_Step-6.wav","S3","28","bxa","6","MI","1","1","true"
"null","","fixation","html-keyboard-response","56","210901","0.0-8.0-0.15","5a80e46a2a842c0001fc913f","condA","","<div class=""vertical-center"" style='width:60%;'><p style='font-weight:bold;'>Does the middle word sound more like the first word (A) or the last word (B)?</p> <br> <div class=""container""> <div id=""a-box""> <p class=""title-text"">A</h3></p> </div> <div id=""x-box""> <p class=""title-text"">X<p> </div> <div id=""b-box""> <p class=""title-text"">B</p></div> <br> <div style='float: left;padding-left:30px;'><p>Press '1' for A</p></div><div style='float: right;padding-right:30px;'><p>Press '0' for B</p> </div> </div></div>","null","","","","","","","","","","","","","",""
"3189","","test","audio-keyboard-response","57","214090","0.0-8.0-1.15","5a80e46a2a842c0001fc913f","condA","","resources/audio/wordStim/S9_AI_24_axb_Step-7.wav","48","","","","","AI","resources/audio/wordStim/S9_AI_24_axb_Step-7.wav","S9","24","axb","7","CN","0","0","true"
"null","","fixation","html-keyboard-response","58","215093","0.0-8.0-0.16","5a80e46a2a842c0001fc913f","condA","","<div class=""vertical-center"" style='width:60%;'><p style='font-weight:bold;'>Does the middle word sound more like the first word (A) or the last word (B)?</p> <br> <div class=""container""> <div id=""a-box""> <p class=""title-text"">A</h3></p> </div> <div id=""x-box""> <p class=""title-text"">X<p> </div> <div id=""b-box""> <p class=""title-text"">B</p></div> <br> <div style='float: left;padding-left:30px;'><p>Press '1' for A</p></div><div style='float: right;padding-right:30px;'><p>Press '0' for B</p> </div> </div></div>","null","","","","","","","","","","","","","",""
"3080","","test","audio-keyboard-response","59","218178","0.0-8.0-1.16","5a80e46a2a842c0001fc913f","condA","","resources/audio/wordStim/S3_AU_11_axb_Step-5.wav","49","","","","","AU","resources/audio/wordStim/S3_AU_11_axb_Step-5.wav","S3","11","axb","5","MI","0","1","false"
"null","","fixation","html-keyboard-response","60","219180","0.0-8.0-0.17","5a80e46a2a842c0001fc913f","condA","","<div class=""vertical-center"" style='width:60%;'><p style='font-weight:bold;'>Does the middle word sound more like the first word (A) or the last word (B)?</p> <br> <div class=""container""> <div id=""a-box""> <p class=""title-text"">A</h3></p> </div> <div id=""x-box""> <p class=""title-text"">X<p> </div> <div id=""b-box""> <p class=""title-text"">B</p></div> <br> <div style='float: left;padding-left:30px;'><p>Press '1' for A</p></div><div style='float: right;padding-right:30px;'><p>Press '0' for B</p> </div> </div></div>","null","","","","","","","","","","","","","",""
"2789","","test","audio-keyboard-response","61","221978","0.0-8.0-1.17","5a80e46a2a842c0001fc913f","condA","","resources/audio/wordStim/S9_AU_16_axb_Step-3.wav","49","","","","","AU","resources/audio/wordStim/S9_AU_16_axb_Step-3.wav","S9","16","axb","3","CN","0","1","false"
"null","","fixation","html-keyboard-response","62","222980","0.0-8.0-0.18","5a80e46a2a842c0001fc913f","condA","","<div class=""vertical-center"" style='width:60%;'><p style='font-weight:bold;'>Does the middle word sound more like the first word (A) or the last word (B)?</p> <br> <div class=""container""> <div id=""a-box""> <p class=""title-text"">A</h3></p> </div> <div id=""x-box""> <p class=""title-text"">X<p> </div> <div id=""b-box""> <p class=""title-text"">B</p></div> <br> <div style='float: left;padding-left:30px;'><p>Press '1' for A</p></div><div style='float: right;padding-right:30px;'><p>Press '0' for B</p> </div> </div></div>","null","","","","","","","","","","","","","",""
"3771","","test","audio-keyboard-response","63","226754","0.0-8.0-1.18","5a80e46a2a842c0001fc913f","condA","","resources/audio/wordStim/S9_AU_18_axb_Step-10.wav","49","","","","","AU","resources/audio/wordStim/S9_AU_18_axb_Step-10.wav","S9","18","axb","10","CN","0","1","false"
"null","","fixation","html-keyboard-response","64","227755","0.0-8.0-0.19","5a80e46a2a842c0001fc913f","condA","","<div class=""vertical-center"" style='width:60%;'><p style='font-weight:bold;'>Does the middle word sound more like the first word (A) or the last word (B)?</p> <br> <div class=""container""> <div id=""a-box""> <p class=""title-text"">A</h3></p> </div> <div id=""x-box""> <p class=""title-text"">X<p> </div> <div id=""b-box""> <p class=""title-text"">B</p></div> <br> <div style='float: left;padding-left:30px;'><p>Press '1' for A</p></div><div style='float: right;padding-right:30px;'><p>Press '0' for B</p> </div> </div></div>","null","","","","","","","","","","","","","",""
"3568","","test","audio-keyboard-response","65","231321","0.0-8.0-1.19","5a80e46a2a842c0001fc913f","condA","","resources/audio/wordStim/S9_AI_22_bxa_Step-6.wav","49","","","","","AI","resources/audio/wordStim/S9_AI_22_bxa_Step-6.wav","S9","22","bxa","6","CN","1","1","true"
"null","","fixation","html-keyboard-response","66","232324","0.0-8.0-0.20","5a80e46a2a842c0001fc913f","condA","","<div class=""vertical-center"" style='width:60%;'><p style='font-weight:bold;'>Does the middle word sound more like the first word (A) or the last word (B)?</p> <br> <div class=""container""> <div id=""a-box""> <p class=""title-text"">A</h3></p> </div> <div id=""x-box""> <p class=""title-text"">X<p> </div> <div id=""b-box""> <p class=""title-text"">B</p></div> <br> <div style='float: left;padding-left:30px;'><p>Press '1' for A</p></div><div style='float: right;padding-right:30px;'><p>Press '0' for B</p> </div> </div></div>","null","","","","","","","","","","","","","",""
"3640","","test","audio-keyboard-response","67","235962","0.0-8.0-1.20","5a80e46a2a842c0001fc913f","condA","","resources/audio/wordStim/S3_AU_16_bxa_Step-4.wav","48","","","","","AU","resources/audio/wordStim/S3_AU_16_bxa_Step-4.wav","S3","16","bxa","4","MI","1","0","false"
"null","","fixation","html-keyboard-response","68","236965","0.0-8.0-0.21","5a80e46a2a842c0001fc913f","condA","","<div class=""vertical-center"" style='width:60%;'><p style='font-weight:bold;'>Does the middle word sound more like the first word (A) or the last word (B)?</p> <br> <div class=""container""> <div id=""a-box""> <p class=""title-text"">A</h3></p> </div> <div id=""x-box""> <p class=""title-text"">X<p> </div> <div id=""b-box""> <p class=""title-text"">B</p></div> <br> <div style='float: left;padding-left:30px;'><p>Press '1' for A</p></div><div style='float: right;padding-right:30px;'><p>Press '0' for B</p> </div> </div></div>","null","","","","","","","","","","","","","",""
"3691","","test","audio-keyboard-response","69","240650","0.0-8.0-1.21","5a80e46a2a842c0001fc913f","condA","","resources/audio/wordStim/S3_AI_29_axb_Step-7.wav","49","","","","","AI","resources/audio/wordStim/S3_AI_29_axb_Step-7.wav","S3","29","axb","7","MI","0","1","false"
"null","","fixation","html-keyboard-response","70","241652","0.0-8.0-0.22","5a80e46a2a842c0001fc913f","condA","","<div class=""vertical-center"" style='width:60%;'><p style='font-weight:bold;'>Does the middle word sound more like the first word (A) or the last word (B)?</p> <br> <div class=""container""> <div id=""a-box""> <p class=""title-text"">A</h3></p> </div> <div id=""x-box""> <p class=""title-text"">X<p> </div> <div id=""b-box""> <p class=""title-text"">B</p></div> <br> <div style='float: left;padding-left:30px;'><p>Press '1' for A</p></div><div style='float: right;padding-right:30px;'><p>Press '0' for B</p> </div> </div></div>","null","","","","","","","","","","","","","",""
"3141","","test","audio-keyboard-response","71","244794","0.0-8.0-1.22","5a80e46a2a842c0001fc913f","condA","","resources/audio/wordStim/S3_AI_25_bxa_Step-6.wav","49","","","","","AI","resources/audio/wordStim/S3_AI_25_bxa_Step-6.wav","S3","25","bxa","6","MI","1","1","true"
"null","","fixation","html-keyboard-response","72","245796","0.0-8.0-0.23","5a80e46a2a842c0001fc913f","condA","","<div class=""vertical-center"" style='width:60%;'><p style='font-weight:bold;'>Does the middle word sound more like the first word (A) or the last word (B)?</p> <br> <div class=""container""> <div id=""a-box""> <p class=""title-text"">A</h3></p> </div> <div id=""x-box""> <p class=""title-text"">X<p> </div> <div id=""b-box""> <p class=""title-text"">B</p></div> <br> <div style='float: left;padding-left:30px;'><p>Press '1' for A</p></div><div style='float: right;padding-right:30px;'><p>Press '0' for B</p> </div> </div></div>","null","","","","","","","","","","","","","",""
"3699","","test","audio-keyboard-response","73","249497","0.0-8.0-1.23","5a80e46a2a842c0001fc913f","condA","","resources/audio/wordStim/S9_AI_22_axb_Step-9.wav","48","","","","","AI","resources/audio/wordStim/S9_AI_22_axb_Step-9.wav","S9","22","axb","9","CN","0","0","true"
"null","","fixation","html-keyboard-response","74","250501","0.0-8.0-0.24","5a80e46a2a842c0001fc913f","condA","","<div class=""vertical-center"" style='width:60%;'><p style='font-weight:bold;'>Does the middle word sound more like the first word (A) or the last word (B)?</p> <br> <div class=""container""> <div id=""a-box""> <p class=""title-text"">A</h3></p> </div> <div id=""x-box""> <p class=""title-text"">X<p> </div> <div id=""b-box""> <p class=""title-text"">B</p></div> <br> <div style='float: left;padding-left:30px;'><p>Press '1' for A</p></div><div style='float: right;padding-right:30px;'><p>Press '0' for B</p> </div> </div></div>","null","","","","","","","","","","","","","",""
"3720","","test","audio-keyboard-response","75","254226","0.0-8.0-1.24","5a80e46a2a842c0001fc913f","condA","","resources/audio/wordStim/S3_AU_16_axb_Step-5.wav","48","","","","","AU","resources/audio/wordStim/S3_AU_16_axb_Step-5.wav","S3","16","axb","5","MI","0","0","true"
"null","","fixation","html-keyboard-response","76","255228","0.0-8.0-0.25","5a80e46a2a842c0001fc913f","condA","","<div class=""vertical-center"" style='width:60%;'><p style='font-weight:bold;'>Does the middle word sound more like the first word (A) or the last word (B)?</p> <br> <div class=""container""> <div id=""a-box""> <p class=""title-text"">A</h3></p> </div> <div id=""x-box""> <p class=""title-text"">X<p> </div> <div id=""b-box""> <p class=""title-text"">B</p></div> <br> <div style='float: left;padding-left:30px;'><p>Press '1' for A</p></div><div style='float: right;padding-right:30px;'><p>Press '0' for B</p> </div> </div></div>","null","","","","","","","","","","","","","",""
"3651","","test","audio-keyboard-response","77","258874","0.0-8.0-1.25","5a80e46a2a842c0001fc913f","condA","","resources/audio/wordStim/S3_AU_18_bxa_Step-8.wav","48","","","","","AU","resources/audio/wordStim/S3_AU_18_bxa_Step-8.wav","S3","18","bxa","8","MI","1","0","false"
"null","","fixation","html-keyboard-response","78","259875","0.0-8.0-0.26","5a80e46a2a842c0001fc913f","condA","","<div class=""vertical-center"" style='width:60%;'><p style='font-weight:bold;'>Does the middle word sound more like the first word (A) or the last word (B)?</p> <br> <div class=""container""> <div id=""a-box""> <p class=""title-text"">A</h3></p> </div> <div id=""x-box""> <p class=""title-text"">X<p> </div> <div id=""b-box""> <p class=""title-text"">B</p></div> <br> <div style='float: left;padding-left:30px;'><p>Press '1' for A</p></div><div style='float: right;padding-right:30px;'><p>Press '0' for B</p> </div> </div></div>","null","","","","","","","","","","","","","",""
"3200","","test","audio-keyboard-response","79","263073","0.0-8.0-1.26","5a80e46a2a842c0001fc913f","condA","","resources/audio/wordStim/S9_AU_20_bxa_Step-6.wav","49","","","","","AU","resources/audio/wordStim/S9_AU_20_bxa_Step-6.wav","S9","20","bxa","6","CN","1","1","true"
"1978","","break","html-keyboard-response","80","265554","0.0-8.0-2.26-0.26","5a80e46a2a842c0001fc913f","condA","","<div class=""vertical-center""><p>Feel free to take a break!</p><i>When you're ready to continue, press SPACE to begin the next trial.</i></p></div>","32","","","","","","","","","","","","","",""
"null","","fixation","html-keyboard-response","81","266054","0.0-8.0-0.27","5a80e46a2a842c0001fc913f","condA","","<div class=""vertical-center"" style='width:60%;'><p style='font-weight:bold;'>Does the middle word sound more like the first word (A) or the last word (B)?</p> <br> <div class=""container""> <div id=""a-box""> <p class=""title-text"">A</h3></p> </div> <div id=""x-box""> <p class=""title-text"">X<p> </div> <div id=""b-box""> <p class=""title-text"">B</p></div> <br> <div style='float: left;padding-left:30px;'><p>Press '1' for A</p></div><div style='float: right;padding-right:30px;'><p>Press '0' for B</p> </div> </div></div>","null","","","","","","","","","","","","","",""
"3240","","test","audio-keyboard-response","82","269298","0.0-8.0-1.27","5a80e46a2a842c0001fc913f","condA","","resources/audio/wordStim/S9_AI_24_bxa_Step-4.wav","49","","","","","AI","resources/audio/wordStim/S9_AI_24_bxa_Step-4.wav","S9","24","bxa","4","CN","1","1","true"
"null","","fixation","html-keyboard-response","83","270300","0.0-8.0-0.28","5a80e46a2a842c0001fc913f","condA","","<div class=""vertical-center"" style='width:60%;'><p style='font-weight:bold;'>Does the middle word sound more like the first word (A) or the last word (B)?</p> <br> <div class=""container""> <div id=""a-box""> <p class=""title-text"">A</h3></p> </div> <div id=""x-box""> <p class=""title-text"">X<p> </div> <div id=""b-box""> <p class=""title-text"">B</p></div> <br> <div style='float: left;padding-left:30px;'><p>Press '1' for A</p></div><div style='float: right;padding-right:30px;'><p>Press '0' for B</p> </div> </div></div>","null","","","","","","","","","","","","","",""
"2600","","test","audio-keyboard-response","84","272905","0.0-8.0-1.28","5a80e46a2a842c0001fc913f","condA","","resources/audio/wordStim/S3_AU_19_axb_Step-10.wav","48","","","","","AU","resources/audio/wordStim/S3_AU_19_axb_Step-10.wav","S3","19","axb","10","MI","0","0","true"
"null","","fixation","html-keyboard-response","85","273908","0.0-8.0-0.29","5a80e46a2a842c0001fc913f","condA","","<div class=""vertical-center"" style='width:60%;'><p style='font-weight:bold;'>Does the middle word sound more like the first word (A) or the last word (B)?</p> <br> <div class=""container""> <div id=""a-box""> <p class=""title-text"">A</h3></p> </div> <div id=""x-box""> <p class=""title-text"">X<p> </div> <div id=""b-box""> <p class=""title-text"">B</p></div> <br> <div style='float: left;padding-left:30px;'><p>Press '1' for A</p></div><div style='float: right;padding-right:30px;'><p>Press '0' for B</p> </div> </div></div>","null","","","","","","","","","","","","","",""
"3840","","test","audio-keyboard-response","86","277745","0.0-8.0-1.29","5a80e46a2a842c0001fc913f","condA","","resources/audio/wordStim/S3_AU_17_bxa_Step-4.wav","48","","","","","AU","resources/audio/wordStim/S3_AU_17_bxa_Step-4.wav","S3","17","bxa","4","MI","1","0","false"
"null","","fixation","html-keyboard-response","87","278748","0.0-8.0-0.30","5a80e46a2a842c0001fc913f","condA","","<div class=""vertical-center"" style='width:60%;'><p style='font-weight:bold;'>Does the middle word sound more like the first word (A) or the last word (B)?</p> <br> <div class=""container""> <div id=""a-box""> <p class=""title-text"">A</h3></p> </div> <div id=""x-box""> <p class=""title-text"">X<p> </div> <div id=""b-box""> <p class=""title-text"">B</p></div> <br> <div style='float: left;padding-left:30px;'><p>Press '1' for A</p></div><div style='float: right;padding-right:30px;'><p>Press '0' for B</p> </div> </div></div>","null","","","","","","","","","","","","","",""
"3099","","test","audio-keyboard-response","88","281842","0.0-8.0-1.30","5a80e46a2a842c0001fc913f","condA","","resources/audio/wordStim/S9_AU_17_axb_Step-5.wav","49","","","","","AU","resources/audio/wordStim/S9_AU_17_axb_Step-5.wav","S9","17","axb","5","CN","0","1","false"
"null","","fixation","html-keyboard-response","89","282843","0.0-8.0-0.31","5a80e46a2a842c0001fc913f","condA","","<div class=""vertical-center"" style='width:60%;'><p style='font-weight:bold;'>Does the middle word sound more like the first word (A) or the last word (B)?</p> <br> <div class=""container""> <div id=""a-box""> <p class=""title-text"">A</h3></p> </div> <div id=""x-box""> <p class=""title-text"">X<p> </div> <div id=""b-box""> <p class=""title-text"">B</p></div> <br> <div style='float: left;padding-left:30px;'><p>Press '1' for A</p></div><div style='float: right;padding-right:30px;'><p>Press '0' for B</p> </div> </div></div>","null","","","","","","","","","","","","","",""
"3411","","test","audio-keyboard-response","90","286257","0.0-8.0-1.31","5a80e46a2a842c0001fc913f","condA","","resources/audio/wordStim/S3_AI_25_bxa_Step-8.wav","49","","","","","AI","resources/audio/wordStim/S3_AI_25_bxa_Step-8.wav","S3","25","bxa","8","MI","1","1","true"
"null","","fixation","html-keyboard-response","91","287259","0.0-8.0-0.32","5a80e46a2a842c0001fc913f","condA","","<div class=""vertical-center"" style='width:60%;'><p style='font-weight:bold;'>Does the middle word sound more like the first word (A) or the last word (B)?</p> <br> <div class=""container""> <div id=""a-box""> <p class=""title-text"">A</h3></p> </div> <div id=""x-box""> <p class=""title-text"">X<p> </div> <div id=""b-box""> <p class=""title-text"">B</p></div> <br> <div style='float: left;padding-left:30px;'><p>Press '1' for A</p></div><div style='float: right;padding-right:30px;'><p>Press '0' for B</p> </div> </div></div>","null","","","","","","","","","","","","","",""
"3229","","test","audio-keyboard-response","92","290497","0.0-8.0-1.32","5a80e46a2a842c0001fc913f","condA","","resources/audio/wordStim/S3_AU_14_bxa_Step-8.wav","48","","","","","AU","resources/audio/wordStim/S3_AU_14_bxa_Step-8.wav","S3","14","bxa","8","MI","1","0","false"
"null","","fixation","html-keyboard-response","93","291500","0.0-8.0-0.33","5a80e46a2a842c0001fc913f","condA","","<div class=""vertical-center"" style='width:60%;'><p style='font-weight:bold;'>Does the middle word sound more like the first word (A) or the last word (B)?</p> <br> <div class=""container""> <div id=""a-box""> <p class=""title-text"">A</h3></p> </div> <div id=""x-box""> <p class=""title-text"">X<p> </div> <div id=""b-box""> <p class=""title-text"">B</p></div> <br> <div style='float: left;padding-left:30px;'><p>Press '1' for A</p></div><div style='float: right;padding-right:30px;'><p>Press '0' for B</p> </div> </div></div>","null","","","","","","","","","","","","","",""
"3909","","test","audio-keyboard-response","94","295418","0.0-8.0-1.33","5a80e46a2a842c0001fc913f","condA","","resources/audio/wordStim/S3_AI_22_bxa_Step-4.wav","49","","","","","AI","resources/audio/wordStim/S3_AI_22_bxa_Step-4.wav","S3","22","bxa","4","MI","1","1","true"
"null","","fixation","html-keyboard-response","95","296419","0.0-8.0-0.34","5a80e46a2a842c0001fc913f","condA","","<div class=""vertical-center"" style='width:60%;'><p style='font-weight:bold;'>Does the middle word sound more like the first word (A) or the last word (B)?</p> <br> <div class=""container""> <div id=""a-box""> <p class=""title-text"">A</h3></p> </div> <div id=""x-box""> <p class=""title-text"">X<p> </div> <div id=""b-box""> <p class=""title-text"">B</p></div> <br> <div style='float: left;padding-left:30px;'><p>Press '1' for A</p></div><div style='float: right;padding-right:30px;'><p>Press '0' for B</p> </div> </div></div>","null","","","","","","","","","","","","","",""
"3309","","test","audio-keyboard-response","96","299729","0.0-8.0-1.34","5a80e46a2a842c0001fc913f","condA","","resources/audio/wordStim/S3_AI_23_axb_Step-10.wav","49","","","","","AI","resources/audio/wordStim/S3_AI_23_axb_Step-10.wav","S3","23","axb","10","MI","0","1","false"
"null","","fixation","html-keyboard-response","97","300731","0.0-8.0-0.35","5a80e46a2a842c0001fc913f","condA","","<div class=""vertical-center"" style='width:60%;'><p style='font-weight:bold;'>Does the middle word sound more like the first word (A) or the last word (B)?</p> <br> <div class=""container""> <div id=""a-box""> <p class=""title-text"">A</h3></p> </div> <div id=""x-box""> <p class=""title-text"">X<p> </div> <div id=""b-box""> <p class=""title-text"">B</p></div> <br> <div style='float: left;padding-left:30px;'><p>Press '1' for A</p></div><div style='float: right;padding-right:30px;'><p>Press '0' for B</p> </div> </div></div>","null","","","","","","","","","","","","","",""
"3440","","test","audio-keyboard-response","98","304169","0.0-8.0-1.35","5a80e46a2a842c0001fc913f","condA","","resources/audio/wordStim/S9_AI_24_bxa_Step-8.wav","48","","","","","AI","resources/audio/wordStim/S9_AI_24_bxa_Step-8.wav","S9","24","bxa","8","CN","1","0","false"
"null","","fixation","html-keyboard-response","99","305171","0.0-8.0-0.36","5a80e46a2a842c0001fc913f","condA","","<div class=""vertical-center"" style='width:60%;'><p style='font-weight:bold;'>Does the middle word sound more like the first word (A) or the last word (B)?</p> <br> <div class=""container""> <div id=""a-box""> <p class=""title-text"">A</h3></p> </div> <div id=""x-box""> <p class=""title-text"">X<p> </div> <div id=""b-box""> <p class=""title-text"">B</p></div> <br> <div style='float: left;padding-left:30px;'><p>Press '1' for A</p></div><div style='float: right;padding-right:30px;'><p>Press '0' for B</p> </div> </div></div>","null","","","","","","","","","","","","","",""
"4749","","test","audio-keyboard-response","100","309921","0.0-8.0-1.36","5a80e46a2a842c0001fc913f","condA","","resources/audio/wordStim/S9_AU_19_bxa_Step-6.wav","48","","","","","AU","resources/audio/wordStim/S9_AU_19_bxa_Step-6.wav","S9","19","bxa","6","CN","1","0","false"
"null","","fixation","html-keyboard-response","101","310923","0.0-8.0-0.37","5a80e46a2a842c0001fc913f","condA","","<div class=""vertical-center"" style='width:60%;'><p style='font-weight:bold;'>Does the middle word sound more like the first word (A) or the last word (B)?</p> <br> <div class=""container""> <div id=""a-box""> <p class=""title-text"">A</h3></p> </div> <div id=""x-box""> <p class=""title-text"">X<p> </div> <div id=""b-box""> <p class=""title-text"">B</p></div> <br> <div style='float: left;padding-left:30px;'><p>Press '1' for A</p></div><div style='float: right;padding-right:30px;'><p>Press '0' for B</p> </div> </div></div>","null","","","","","","","","","","","","","",""
"3040","","test","audio-keyboard-response","102","313961","0.0-8.0-1.37","5a80e46a2a842c0001fc913f","condA","","resources/audio/wordStim/S9_AI_29_axb_Step-10.wav","48","","","","","AI","resources/audio/wordStim/S9_AI_29_axb_Step-10.wav","S9","29","axb","10","CN","0","0","true"
"null","","fixation","html-keyboard-response","103","314962","0.0-8.0-0.38","5a80e46a2a842c0001fc913f","condA","","<div class=""vertical-center"" style='width:60%;'><p style='font-weight:bold;'>Does the middle word sound more like the first word (A) or the last word (B)?</p> <br> <div class=""container""> <div id=""a-box""> <p class=""title-text"">A</h3></p> </div> <div id=""x-box""> <p class=""title-text"">X<p> </div> <div id=""b-box""> <p class=""title-text"">B</p></div> <br> <div style='float: left;padding-left:30px;'><p>Press '1' for A</p></div><div style='float: right;padding-right:30px;'><p>Press '0' for B</p> </div> </div></div>","null","","","","","","","","","","","","","",""
"3371","","test","audio-keyboard-response","104","318337","0.0-8.0-1.38","5a80e46a2a842c0001fc913f","condA","","resources/audio/wordStim/S9_AI_23_bxa_Step-8.wav","49","","","","","AI","resources/audio/wordStim/S9_AI_23_bxa_Step-8.wav","S9","23","bxa","8","CN","1","1","true"
"null","","fixation","html-keyboard-response","105","319339","0.0-8.0-0.39","5a80e46a2a842c0001fc913f","condA","","<div class=""vertical-center"" style='width:60%;'><p style='font-weight:bold;'>Does the middle word sound more like the first word (A) or the last word (B)?</p> <br> <div class=""container""> <div id=""a-box""> <p class=""title-text"">A</h3></p> </div> <div id=""x-box""> <p class=""title-text"">X<p> </div> <div id=""b-box""> <p class=""title-text"">B</p></div> <br> <div style='float: left;padding-left:30px;'><p>Press '1' for A</p></div><div style='float: right;padding-right:30px;'><p>Press '0' for B</p> </div> </div></div>","null","","","","","","","","","","","","","",""
"3120","","test","audio-keyboard-response","106","322457","0.0-8.0-1.39","5a80e46a2a842c0001fc913f","condA","","resources/audio/wordStim/S3_AU_15_bxa_Step-6.wav","48","","","","","AU","resources/audio/wordStim/S3_AU_15_bxa_Step-6.wav","S3","15","bxa","6","MI","1","0","false"
"null","","fixation","html-keyboard-response","107","323458","0.0-8.0-0.40","5a80e46a2a842c0001fc913f","condA","","<div class=""vertical-center"" style='width:60%;'><p style='font-weight:bold;'>Does the middle word sound more like the first word (A) or the last word (B)?</p> <br> <div class=""container""> <div id=""a-box""> <p class=""title-text"">A</h3></p> </div> <div id=""x-box""> <p class=""title-text"">X<p> </div> <div id=""b-box""> <p class=""title-text"">B</p></div> <br> <div style='float: left;padding-left:30px;'><p>Press '1' for A</p></div><div style='float: right;padding-right:30px;'><p>Press '0' for B</p> </div> </div></div>","null","","","","","","","","","","","","","",""
"2781","","test","audio-keyboard-response","108","326233","0.0-8.0-1.40","5a80e46a2a842c0001fc913f","condA","","resources/audio/wordStim/S9_AU_17_axb_Step-9.wav","48","","","","","AU","resources/audio/wordStim/S9_AU_17_axb_Step-9.wav","S9","17","axb","9","CN","0","0","true"
"null","","fixation","html-keyboard-response","109","327235","0.0-8.0-0.41","5a80e46a2a842c0001fc913f","condA","","<div class=""vertical-center"" style='width:60%;'><p style='font-weight:bold;'>Does the middle word sound more like the first word (A) or the last word (B)?</p> <br> <div class=""container""> <div id=""a-box""> <p class=""title-text"">A</h3></p> </div> <div id=""x-box""> <p class=""title-text"">X<p> </div> <div id=""b-box""> <p class=""title-text"">B</p></div> <br> <div style='float: left;padding-left:30px;'><p>Press '1' for A</p></div><div style='float: right;padding-right:30px;'><p>Press '0' for B</p> </div> </div></div>","null","","","","","","","","","","","","","",""
"3160","","test","audio-keyboard-response","110","330393","0.0-8.0-1.41","5a80e46a2a842c0001fc913f","condA","","resources/audio/wordStim/S9_AI_25_axb_Step-3.wav","49","","","","","AI","resources/audio/wordStim/S9_AI_25_axb_Step-3.wav","S9","25","axb","3","CN","0","1","false"
"null","","fixation","html-keyboard-response","111","331396","0.0-8.0-0.42","5a80e46a2a842c0001fc913f","condA","","<div class=""vertical-center"" style='width:60%;'><p style='font-weight:bold;'>Does the middle word sound more like the first word (A) or the last word (B)?</p> <br> <div class=""container""> <div id=""a-box""> <p class=""title-text"">A</h3></p> </div> <div id=""x-box""> <p class=""title-text"">X<p> </div> <div id=""b-box""> <p class=""title-text"">B</p></div> <br> <div style='float: left;padding-left:30px;'><p>Press '1' for A</p></div><div style='float: right;padding-right:30px;'><p>Press '0' for B</p> </div> </div></div>","null","","","","","","","","","","","","","",""
"2920","","test","audio-keyboard-response","112","334313","0.0-8.0-1.42","5a80e46a2a842c0001fc913f","condA","","resources/audio/wordStim/S3_AI_25_axb_Step-9.wav","49","","","","","AI","resources/audio/wordStim/S3_AI_25_axb_Step-9.wav","S3","25","axb","9","MI","0","1","false"
"null","","fixation","html-keyboard-response","113","335315","0.0-8.0-0.43","5a80e46a2a842c0001fc913f","condA","","<div class=""vertical-center"" style='width:60%;'><p style='font-weight:bold;'>Does the middle word sound more like the first word (A) or the last word (B)?</p> <br> <div class=""container""> <div id=""a-box""> <p class=""title-text"">A</h3></p> </div> <div id=""x-box""> <p class=""title-text"">X<p> </div> <div id=""b-box""> <p class=""title-text"">B</p></div> <br> <div style='float: left;padding-left:30px;'><p>Press '1' for A</p></div><div style='float: right;padding-right:30px;'><p>Press '0' for B</p> </div> </div></div>","null","","","","","","","","","","","","","",""
"3979","","test","audio-keyboard-response","114","339289","0.0-8.0-1.43","5a80e46a2a842c0001fc913f","condA","","resources/audio/wordStim/S3_AU_18_axb_Step-5.wav","49","","","","","AU","resources/audio/wordStim/S3_AU_18_axb_Step-5.wav","S3","18","axb","5","MI","0","1","false"
"null","","fixation","html-keyboard-response","115","340293","0.0-8.0-0.44","5a80e46a2a842c0001fc913f","condA","","<div class=""vertical-center"" style='width:60%;'><p style='font-weight:bold;'>Does the middle word sound more like the first word (A) or the last word (B)?</p> <br> <div class=""container""> <div id=""a-box""> <p class=""title-text"">A</h3></p> </div> <div id=""x-box""> <p class=""title-text"">X<p> </div> <div id=""b-box""> <p class=""title-text"">B</p></div> <br> <div style='float: left;padding-left:30px;'><p>Press '1' for A</p></div><div style='float: right;padding-right:30px;'><p>Press '0' for B</p> </div> </div></div>","null","","","","","","","","","","","","","",""
"3411","","test","audio-keyboard-response","116","343705","0.0-8.0-1.44","5a80e46a2a842c0001fc913f","condA","","resources/audio/wordStim/S3_AI_30_bxa_Step-6.wav","48","","","","","AI","resources/audio/wordStim/S3_AI_30_bxa_Step-6.wav","S3","30","bxa","6","MI","1","0","false"
"null","","fixation","html-keyboard-response","117","344706","0.0-8.0-0.45","5a80e46a2a842c0001fc913f","condA","","<div class=""vertical-center"" style='width:60%;'><p style='font-weight:bold;'>Does the middle word sound more like the first word (A) or the last word (B)?</p> <br> <div class=""container""> <div id=""a-box""> <p class=""title-text"">A</h3></p> </div> <div id=""x-box""> <p class=""title-text"">X<p> </div> <div id=""b-box""> <p class=""title-text"">B</p></div> <br> <div style='float: left;padding-left:30px;'><p>Press '1' for A</p></div><div style='float: right;padding-right:30px;'><p>Press '0' for B</p> </div> </div></div>","null","","","","","","","","","","","","","",""
"3419","","test","audio-keyboard-response","118","348121","0.0-8.0-1.45","5a80e46a2a842c0001fc913f","condA","","resources/audio/wordStim/S3_AI_23_bxa_Step-2.wav","49","","","","","AI","resources/audio/wordStim/S3_AI_23_bxa_Step-2.wav","S3","23","bxa","2","MI","1","1","true"
"null","","fixation","html-keyboard-response","119","349122","0.0-8.0-0.46","5a80e46a2a842c0001fc913f","condA","","<div class=""vertical-center"" style='width:60%;'><p style='font-weight:bold;'>Does the middle word sound more like the first word (A) or the last word (B)?</p> <br> <div class=""container""> <div id=""a-box""> <p class=""title-text"">A</h3></p> </div> <div id=""x-box""> <p class=""title-text"">X<p> </div> <div id=""b-box""> <p class=""title-text"">B</p></div> <br> <div style='float: left;padding-left:30px;'><p>Press '1' for A</p></div><div style='float: right;padding-right:30px;'><p>Press '0' for B</p> </div> </div></div>","null","","","","","","","","","","","","","",""
"3472","","test","audio-keyboard-response","120","352593","0.0-8.0-1.46","5a80e46a2a842c0001fc913f","condA","","resources/audio/wordStim/S3_AU_15_axb_Step-5.wav","48","","","","","AU","resources/audio/wordStim/S3_AU_15_axb_Step-5.wav","S3","15","axb","5","MI","0","0","true"
"null","","fixation","html-keyboard-response","121","353595","0.0-8.0-0.47","5a80e46a2a842c0001fc913f","condA","","<div class=""vertical-center"" style='width:60%;'><p style='font-weight:bold;'>Does the middle word sound more like the first word (A) or the last word (B)?</p> <br> <div class=""container""> <div id=""a-box""> <p class=""title-text"">A</h3></p> </div> <div id=""x-box""> <p class=""title-text"">X<p> </div> <div id=""b-box""> <p class=""title-text"">B</p></div> <br> <div style='float: left;padding-left:30px;'><p>Press '1' for A</p></div><div style='float: right;padding-right:30px;'><p>Press '0' for B</p> </div> </div></div>","null","","","","","","","","","","","","","",""
"3419","","test","audio-keyboard-response","122","357008","0.0-8.0-1.47","5a80e46a2a842c0001fc913f","condA","","resources/audio/wordStim/S9_AU_20_bxa_Step-8.wav","49","","","","","AU","resources/audio/wordStim/S9_AU_20_bxa_Step-8.wav","S9","20","bxa","8","CN","1","1","true"
"null","","fixation","html-keyboard-response","123","358010","0.0-8.0-0.48","5a80e46a2a842c0001fc913f","condA","","<div class=""vertical-center"" style='width:60%;'><p style='font-weight:bold;'>Does the middle word sound more like the first word (A) or the last word (B)?</p> <br> <div class=""container""> <div id=""a-box""> <p class=""title-text"">A</h3></p> </div> <div id=""x-box""> <p class=""title-text"">X<p> </div> <div id=""b-box""> <p class=""title-text"">B</p></div> <br> <div style='float: left;padding-left:30px;'><p>Press '1' for A</p></div><div style='float: right;padding-right:30px;'><p>Press '0' for B</p> </div> </div></div>","null","","","","","","","","","","","","","",""
"2880","","test","audio-keyboard-response","124","360897","0.0-8.0-1.48","5a80e46a2a842c0001fc913f","condA","","resources/audio/wordStim/S9_AU_17_axb_Step-3.wav","49","","","","","AU","resources/audio/wordStim/S9_AU_17_axb_Step-3.wav","S9","17","axb","3","CN","0","1","false"
"null","","fixation","html-keyboard-response","125","361900","0.0-8.0-0.49","5a80e46a2a842c0001fc913f","condA","","<div class=""vertical-center"" style='width:60%;'><p style='font-weight:bold;'>Does the middle word sound more like the first word (A) or the last word (B)?</p> <br> <div class=""container""> <div id=""a-box""> <p class=""title-text"">A</h3></p> </div> <div id=""x-box""> <p class=""title-text"">X<p> </div> <div id=""b-box""> <p class=""title-text"">B</p></div> <br> <div style='float: left;padding-left:30px;'><p>Press '1' for A</p></div><div style='float: right;padding-right:30px;'><p>Press '0' for B</p> </div> </div></div>","null","","","","","","","","","","","","","",""
"3139","","test","audio-keyboard-response","126","365041","0.0-8.0-1.49","5a80e46a2a842c0001fc913f","condA","","resources/audio/wordStim/S9_AI_27_axb_Step-3.wav","49","","","","","AI","resources/audio/wordStim/S9_AI_27_axb_Step-3.wav","S9","27","axb","3","CN","0","1","false"
"null","","fixation","html-keyboard-response","127","366044","0.0-8.0-0.50","5a80e46a2a842c0001fc913f","condA","","<div class=""vertical-center"" style='width:60%;'><p style='font-weight:bold;'>Does the middle word sound more like the first word (A) or the last word (B)?</p> <br> <div class=""container""> <div id=""a-box""> <p class=""title-text"">A</h3></p> </div> <div id=""x-box""> <p class=""title-text"">X<p> </div> <div id=""b-box""> <p class=""title-text"">B</p></div> <br> <div style='float: left;padding-left:30px;'><p>Press '1' for A</p></div><div style='float: right;padding-right:30px;'><p>Press '0' for B</p> </div> </div></div>","null","","","","","","","","","","","","","",""
"3240","","test","audio-keyboard-response","128","369281","0.0-8.0-1.50","5a80e46a2a842c0001fc913f","condA","","resources/audio/wordStim/S9_AU_14_bxa_Step-6.wav","49","","","","","AU","resources/audio/wordStim/S9_AU_14_bxa_Step-6.wav","S9","14","bxa","6","CN","1","1","true"
"null","","fixation","html-keyboard-response","129","370282","0.0-8.0-0.51","5a80e46a2a842c0001fc913f","condA","","<div class=""vertical-center"" style='width:60%;'><p style='font-weight:bold;'>Does the middle word sound more like the first word (A) or the last word (B)?</p> <br> <div class=""container""> <div id=""a-box""> <p class=""title-text"">A</h3></p> </div> <div id=""x-box""> <p class=""title-text"">X<p> </div> <div id=""b-box""> <p class=""title-text"">B</p></div> <br> <div style='float: left;padding-left:30px;'><p>Press '1' for A</p></div><div style='float: right;padding-right:30px;'><p>Press '0' for B</p> </div> </div></div>","null","","","","","","","","","","","","","",""
"2792","","test","audio-keyboard-response","130","373072","0.0-8.0-1.51","5a80e46a2a842c0001fc913f","condA","","resources/audio/wordStim/S3_AI_23_axb_Step-9.wav","48","","","","","AI","resources/audio/wordStim/S3_AI_23_axb_Step-9.wav","S3","23","axb","9","MI","0","0","true"
"null","","fixation","html-keyboard-response","131","374074","0.0-8.0-0.52","5a80e46a2a842c0001fc913f","condA","","<div class=""vertical-center"" style='width:60%;'><p style='font-weight:bold;'>Does the middle word sound more like the first word (A) or the last word (B)?</p> <br> <div class=""container""> <div id=""a-box""> <p class=""title-text"">A</h3></p> </div> <div id=""x-box""> <p class=""title-text"">X<p> </div> <div id=""b-box""> <p class=""title-text"">B</p></div> <br> <div style='float: left;padding-left:30px;'><p>Press '1' for A</p></div><div style='float: right;padding-right:30px;'><p>Press '0' for B</p> </div> </div></div>","null","","","","","","","","","","","","","",""
"3099","","test","audio-keyboard-response","132","377169","0.0-8.0-1.52","5a80e46a2a842c0001fc913f","condA","","resources/audio/wordStim/S9_AU_19_bxa_Step-4.wav","48","","","","","AU","resources/audio/wordStim/S9_AU_19_bxa_Step-4.wav","S9","19","bxa","4","CN","1","0","false"
"null","","fixation","html-keyboard-response","133","378171","0.0-8.0-0.53","5a80e46a2a842c0001fc913f","condA","","<div class=""vertical-center"" style='width:60%;'><p style='font-weight:bold;'>Does the middle word sound more like the first word (A) or the last word (B)?</p> <br> <div class=""container""> <div id=""a-box""> <p class=""title-text"">A</h3></p> </div> <div id=""x-box""> <p class=""title-text"">X<p> </div> <div id=""b-box""> <p class=""title-text"">B</p></div> <br> <div style='float: left;padding-left:30px;'><p>Press '1' for A</p></div><div style='float: right;padding-right:30px;'><p>Press '0' for B</p> </div> </div></div>","null","","","","","","","","","","","","","",""
"3080","","test","audio-keyboard-response","134","381249","0.0-8.0-1.53","5a80e46a2a842c0001fc913f","condA","","resources/audio/wordStim/S3_AI_25_bxa_Step-4.wav","49","","","","","AI","resources/audio/wordStim/S3_AI_25_bxa_Step-4.wav","S3","25","bxa","4","MI","1","1","true"
"1795","","break","html-keyboard-response","135","383545","0.0-8.0-2.53-0.53","5a80e46a2a842c0001fc913f","condA","","<div class=""vertical-center""><p>Feel free to take a break!</p><i>When you're ready to continue, press SPACE to begin the next trial.</i></p></div>","32","","","","","","","","","","","","","",""
"null","","fixation","html-keyboard-response","136","384045","0.0-8.0-0.54","5a80e46a2a842c0001fc913f","condA","","<div class=""vertical-center"" style='width:60%;'><p style='font-weight:bold;'>Does the middle word sound more like the first word (A) or the last word (B)?</p> <br> <div class=""container""> <div id=""a-box""> <p class=""title-text"">A</h3></p> </div> <div id=""x-box""> <p class=""title-text"">X<p> </div> <div id=""b-box""> <p class=""title-text"">B</p></div> <br> <div style='float: left;padding-left:30px;'><p>Press '1' for A</p></div><div style='float: right;padding-right:30px;'><p>Press '0' for B</p> </div> </div></div>","null","","","","","","","","","","","","","",""
"3480","","test","audio-keyboard-response","137","387521","0.0-8.0-1.54","5a80e46a2a842c0001fc913f","condA","","resources/audio/wordStim/S3_AU_18_axb_Step-9.wav","49","","","","","AU","resources/audio/wordStim/S3_AU_18_axb_Step-9.wav","S3","18","axb","9","MI","0","1","false"
"null","","fixation","html-keyboard-response","138","388524","0.0-8.0-0.55","5a80e46a2a842c0001fc913f","condA","","<div class=""vertical-center"" style='width:60%;'><p style='font-weight:bold;'>Does the middle word sound more like the first word (A) or the last word (B)?</p> <br> <div class=""container""> <div id=""a-box""> <p class=""title-text"">A</h3></p> </div> <div id=""x-box""> <p class=""title-text"">X<p> </div> <div id=""b-box""> <p class=""title-text"">B</p></div> <br> <div style='float: left;padding-left:30px;'><p>Press '1' for A</p></div><div style='float: right;padding-right:30px;'><p>Press '0' for B</p> </div> </div></div>","null","","","","","","","","","","","","","",""
"3651","","test","audio-keyboard-response","139","392169","0.0-8.0-1.55","5a80e46a2a842c0001fc913f","condA","","resources/audio/wordStim/S9_AU_18_bxa_Step-2.wav","48","","","","","AU","resources/audio/wordStim/S9_AU_18_bxa_Step-2.wav","S9","18","bxa","2","CN","1","0","false"
"null","","fixation","html-keyboard-response","140","393171","0.0-8.0-0.56","5a80e46a2a842c0001fc913f","condA","","<div class=""vertical-center"" style='width:60%;'><p style='font-weight:bold;'>Does the middle word sound more like the first word (A) or the last word (B)?</p> <br> <div class=""container""> <div id=""a-box""> <p class=""title-text"">A</h3></p> </div> <div id=""x-box""> <p class=""title-text"">X<p> </div> <div id=""b-box""> <p class=""title-text"">B</p></div> <br> <div style='float: left;padding-left:30px;'><p>Press '1' for A</p></div><div style='float: right;padding-right:30px;'><p>Press '0' for B</p> </div> </div></div>","null","","","","","","","","","","","","","",""
"3571","","test","audio-keyboard-response","141","396745","0.0-8.0-1.56","5a80e46a2a842c0001fc913f","condA","","resources/audio/wordStim/S9_AI_29_bxa_Step-8.wav","49","","","","","AI","resources/audio/wordStim/S9_AI_29_bxa_Step-8.wav","S9","29","bxa","8","CN","1","1","true"
"null","","fixation","html-keyboard-response","142","397747","0.0-8.0-0.57","5a80e46a2a842c0001fc913f","condA","","<div class=""vertical-center"" style='width:60%;'><p style='font-weight:bold;'>Does the middle word sound more like the first word (A) or the last word (B)?</p> <br> <div class=""container""> <div id=""a-box""> <p class=""title-text"">A</h3></p> </div> <div id=""x-box""> <p class=""title-text"">X<p> </div> <div id=""b-box""> <p class=""title-text"">B</p></div> <br> <div style='float: left;padding-left:30px;'><p>Press '1' for A</p></div><div style='float: right;padding-right:30px;'><p>Press '0' for B</p> </div> </div></div>","null","","","","","","","","","","","","","",""
"3429","","test","audio-keyboard-response","143","401176","0.0-8.0-1.57","5a80e46a2a842c0001fc913f","condA","","resources/audio/wordStim/S9_AI_22_axb_Step-7.wav","48","","","","","AI","resources/audio/wordStim/S9_AI_22_axb_Step-7.wav","S9","22","axb","7","CN","0","0","true"
"null","","fixation","html-keyboard-response","144","402180","0.0-8.0-0.58","5a80e46a2a842c0001fc913f","condA","","<div class=""vertical-center"" style='width:60%;'><p style='font-weight:bold;'>Does the middle word sound more like the first word (A) or the last word (B)?</p> <br> <div class=""container""> <div id=""a-box""> <p class=""title-text"">A</h3></p> </div> <div id=""x-box""> <p class=""title-text"">X<p> </div> <div id=""b-box""> <p class=""title-text"">B</p></div> <br> <div style='float: left;padding-left:30px;'><p>Press '1' for A</p></div><div style='float: right;padding-right:30px;'><p>Press '0' for B</p> </div> </div></div>","null","","","","","","","","","","","","","",""
"3360","","test","audio-keyboard-response","145","405545","0.0-8.0-1.58","5a80e46a2a842c0001fc913f","condA","","resources/audio/wordStim/S3_AI_28_bxa_Step-4.wav","48","","","","","AI","resources/audio/wordStim/S3_AI_28_bxa_Step-4.wav","S3","28","bxa","4","MI","1","0","false"
"null","","fixation","html-keyboard-response","146","406547","0.0-8.0-0.59","5a80e46a2a842c0001fc913f","condA","","<div class=""vertical-center"" style='width:60%;'><p style='font-weight:bold;'>Does the middle word sound more like the first word (A) or the last word (B)?</p> <br> <div class=""container""> <div id=""a-box""> <p class=""title-text"">A</h3></p> </div> <div id=""x-box""> <p class=""title-text"">X<p> </div> <div id=""b-box""> <p class=""title-text"">B</p></div> <br> <div style='float: left;padding-left:30px;'><p>Press '1' for A</p></div><div style='float: right;padding-right:30px;'><p>Press '0' for B</p> </div> </div></div>","null","","","","","","","","","","","","","",""
"3149","","test","audio-keyboard-response","147","409688","0.0-8.0-1.59","5a80e46a2a842c0001fc913f","condA","","resources/audio/wordStim/S9_AI_27_axb_Step-5.wav","49","","","","","AI","resources/audio/wordStim/S9_AI_27_axb_Step-5.wav","S9","27","axb","5","CN","0","1","false"
"null","","fixation","html-keyboard-response","148","410693","0.0-8.0-0.60","5a80e46a2a842c0001fc913f","condA","","<div class=""vertical-center"" style='width:60%;'><p style='font-weight:bold;'>Does the middle word sound more like the first word (A) or the last word (B)?</p> <br> <div class=""container""> <div id=""a-box""> <p class=""title-text"">A</h3></p> </div> <div id=""x-box""> <p class=""title-text"">X<p> </div> <div id=""b-box""> <p class=""title-text"">B</p></div> <br> <div style='float: left;padding-left:30px;'><p>Press '1' for A</p></div><div style='float: right;padding-right:30px;'><p>Press '0' for B</p> </div> </div></div>","null","","","","","","","","","","","","","",""
"3821","","test","audio-keyboard-response","149","414512","0.0-8.0-1.60","5a80e46a2a842c0001fc913f","condA","","resources/audio/wordStim/S3_AI_22_axb_Step-7.wav","49","","","","","AI","resources/audio/wordStim/S3_AI_22_axb_Step-7.wav","S3","22","axb","7","MI","0","1","false"
"null","","fixation","html-keyboard-response","150","415515","0.0-8.0-0.61","5a80e46a2a842c0001fc913f","condA","","<div class=""vertical-center"" style='width:60%;'><p style='font-weight:bold;'>Does the middle word sound more like the first word (A) or the last word (B)?</p> <br> <div class=""container""> <div id=""a-box""> <p class=""title-text"">A</h3></p> </div> <div id=""x-box""> <p class=""title-text"">X<p> </div> <div id=""b-box""> <p class=""title-text"">B</p></div> <br> <div style='float: left;padding-left:30px;'><p>Press '1' for A</p></div><div style='float: right;padding-right:30px;'><p>Press '0' for B</p> </div> </div></div>","null","","","","","","","","","","","","","",""
"2448","","test","audio-keyboard-response","151","417961","0.0-8.0-1.61","5a80e46a2a842c0001fc913f","condA","","resources/audio/wordStim/S3_AI_21_bxa_Step-8.wav","49","","","","","AI","resources/audio/wordStim/S3_AI_21_bxa_Step-8.wav","S3","21","bxa","8","MI","1","1","true"
"null","","fixation","html-keyboard-response","152","418963","0.0-8.0-0.62","5a80e46a2a842c0001fc913f","condA","","<div class=""vertical-center"" style='width:60%;'><p style='font-weight:bold;'>Does the middle word sound more like the first word (A) or the last word (B)?</p> <br> <div class=""container""> <div id=""a-box""> <p class=""title-text"">A</h3></p> </div> <div id=""x-box""> <p class=""title-text"">X<p> </div> <div id=""b-box""> <p class=""title-text"">B</p></div> <br> <div style='float: left;padding-left:30px;'><p>Press '1' for A</p></div><div style='float: right;padding-right:30px;'><p>Press '0' for B</p> </div> </div></div>","null","","","","","","","","","","","","","",""
"2800","","test","audio-keyboard-response","153","421761","0.0-8.0-1.62","5a80e46a2a842c0001fc913f","condA","","resources/audio/wordStim/S9_AU_16_bxa_Step-8.wav","49","","","","","AU","resources/audio/wordStim/S9_AU_16_bxa_Step-8.wav","S9","16","bxa","8","CN","1","1","true"
"null","","fixation","html-keyboard-response","154","422761","0.0-8.0-0.63","5a80e46a2a842c0001fc913f","condA","","<div class=""vertical-center"" style='width:60%;'><p style='font-weight:bold;'>Does the middle word sound more like the first word (A) or the last word (B)?</p> <br> <div class=""container""> <div id=""a-box""> <p class=""title-text"">A</h3></p> </div> <div id=""x-box""> <p class=""title-text"">X<p> </div> <div id=""b-box""> <p class=""title-text"">B</p></div> <br> <div style='float: left;padding-left:30px;'><p>Press '1' for A</p></div><div style='float: right;padding-right:30px;'><p>Press '0' for B</p> </div> </div></div>","null","","","","","","","","","","","","","",""
"3531","","test","audio-keyboard-response","155","426296","0.0-8.0-1.63","5a80e46a2a842c0001fc913f","condA","","resources/audio/wordStim/S9_AI_25_bxa_Step-2.wav","48","","","","","AI","resources/audio/wordStim/S9_AI_25_bxa_Step-2.wav","S9","25","bxa","2","CN","1","0","false"
"null","","fixation","html-keyboard-response","156","427297","0.0-8.0-0.64","5a80e46a2a842c0001fc913f","condA","","<div class=""vertical-center"" style='width:60%;'><p style='font-weight:bold;'>Does the middle word sound more like the first word (A) or the last word (B)?</p> <br> <div class=""container""> <div id=""a-box""> <p class=""title-text"">A</h3></p> </div> <div id=""x-box""> <p class=""title-text"">X<p> </div> <div id=""b-box""> <p class=""title-text"">B</p></div> <br> <div style='float: left;padding-left:30px;'><p>Press '1' for A</p></div><div style='float: right;padding-right:30px;'><p>Press '0' for B</p> </div> </div></div>","null","","","","","","","","","","","","","",""
"3651","","test","audio-keyboard-response","157","430945","0.0-8.0-1.64","5a80e46a2a842c0001fc913f","condA","","resources/audio/wordStim/S9_AI_27_axb_Step-7.wav","49","","","","","AI","resources/audio/wordStim/S9_AI_27_axb_Step-7.wav","S9","27","axb","7","CN","0","1","false"
"null","","fixation","html-keyboard-response","158","431946","0.0-8.0-0.65","5a80e46a2a842c0001fc913f","condA","","<div class=""vertical-center"" style='width:60%;'><p style='font-weight:bold;'>Does the middle word sound more like the first word (A) or the last word (B)?</p> <br> <div class=""container""> <div id=""a-box""> <p class=""title-text"">A</h3></p> </div> <div id=""x-box""> <p class=""title-text"">X<p> </div> <div id=""b-box""> <p class=""title-text"">B</p></div> <br> <div style='float: left;padding-left:30px;'><p>Press '1' for A</p></div><div style='float: right;padding-right:30px;'><p>Press '0' for B</p> </div> </div></div>","null","","","","","","","","","","","","","",""
"2771","","test","audio-keyboard-response","159","434713","0.0-8.0-1.65","5a80e46a2a842c0001fc913f","condA","","resources/audio/wordStim/S9_AU_13_bxa_Step-4.wav","48","","","","","AU","resources/audio/wordStim/S9_AU_13_bxa_Step-4.wav","S9","13","bxa","4","CN","1","0","false"
"null","","fixation","html-keyboard-response","160","435713","0.0-8.0-0.66","5a80e46a2a842c0001fc913f","condA","","<div class=""vertical-center"" style='width:60%;'><p style='font-weight:bold;'>Does the middle word sound more like the first word (A) or the last word (B)?</p> <br> <div class=""container""> <div id=""a-box""> <p class=""title-text"">A</h3></p> </div> <div id=""x-box""> <p class=""title-text"">X<p> </div> <div id=""b-box""> <p class=""title-text"">B</p></div> <br> <div style='float: left;padding-left:30px;'><p>Press '1' for A</p></div><div style='float: right;padding-right:30px;'><p>Press '0' for B</p> </div> </div></div>","null","","","","","","","","","","","","","",""
"3859","","test","audio-keyboard-response","161","439577","0.0-8.0-1.66","5a80e46a2a842c0001fc913f","condA","","resources/audio/wordStim/S3_AI_22_axb_Step-10.wav","49","","","","","AI","resources/audio/wordStim/S3_AI_22_axb_Step-10.wav","S3","22","axb","10","MI","0","1","false"
"null","","fixation","html-keyboard-response","162","440577","0.0-8.0-0.67","5a80e46a2a842c0001fc913f","condA","","<div class=""vertical-center"" style='width:60%;'><p style='font-weight:bold;'>Does the middle word sound more like the first word (A) or the last word (B)?</p> <br> <div class=""container""> <div id=""a-box""> <p class=""title-text"">A</h3></p> </div> <div id=""x-box""> <p class=""title-text"">X<p> </div> <div id=""b-box""> <p class=""title-text"">B</p></div> <br> <div style='float: left;padding-left:30px;'><p>Press '1' for A</p></div><div style='float: right;padding-right:30px;'><p>Press '0' for B</p> </div> </div></div>","null","","","","","","","","","","","","","",""
"3341","","test","audio-keyboard-response","163","443912","0.0-8.0-1.67","5a80e46a2a842c0001fc913f","condA","","resources/audio/wordStim/S9_AU_19_bxa_Step-2.wav","48","","","","","AU","resources/audio/wordStim/S9_AU_19_bxa_Step-2.wav","S9","19","bxa","2","CN","1","0","false"
"null","","fixation","html-keyboard-response","164","444914","0.0-8.0-0.68","5a80e46a2a842c0001fc913f","condA","","<div class=""vertical-center"" style='width:60%;'><p style='font-weight:bold;'>Does the middle word sound more like the first word (A) or the last word (B)?</p> <br> <div class=""container""> <div id=""a-box""> <p class=""title-text"">A</h3></p> </div> <div id=""x-box""> <p class=""title-text"">X<p> </div> <div id=""b-box""> <p class=""title-text"">B</p></div> <br> <div style='float: left;padding-left:30px;'><p>Press '1' for A</p></div><div style='float: right;padding-right:30px;'><p>Press '0' for B</p> </div> </div></div>","null","","","","","","","","","","","","","",""
"3629","","test","audio-keyboard-response","165","448545","0.0-8.0-1.68","5a80e46a2a842c0001fc913f","condA","","resources/audio/wordStim/S9_AI_22_bxa_Step-2.wav","48","","","","","AI","resources/audio/wordStim/S9_AI_22_bxa_Step-2.wav","S9","22","bxa","2","CN","1","0","false"
"null","","fixation","html-keyboard-response","166","449548","0.0-8.0-0.69","5a80e46a2a842c0001fc913f","condA","","<div class=""vertical-center"" style='width:60%;'><p style='font-weight:bold;'>Does the middle word sound more like the first word (A) or the last word (B)?</p> <br> <div class=""container""> <div id=""a-box""> <p class=""title-text"">A</h3></p> </div> <div id=""x-box""> <p class=""title-text"">X<p> </div> <div id=""b-box""> <p class=""title-text"">B</p></div> <br> <div style='float: left;padding-left:30px;'><p>Press '1' for A</p></div><div style='float: right;padding-right:30px;'><p>Press '0' for B</p> </div> </div></div>","null","","","","","","","","","","","","","",""
"3160","","test","audio-keyboard-response","167","452704","0.0-8.0-1.69","5a80e46a2a842c0001fc913f","condA","","resources/audio/wordStim/S3_AI_23_axb_Step-7.wav","49","","","","","AI","resources/audio/wordStim/S3_AI_23_axb_Step-7.wav","S3","23","axb","7","MI","0","1","false"
"null","","fixation","html-keyboard-response","168","453707","0.0-8.0-0.70","5a80e46a2a842c0001fc913f","condA","","<div class=""vertical-center"" style='width:60%;'><p style='font-weight:bold;'>Does the middle word sound more like the first word (A) or the last word (B)?</p> <br> <div class=""container""> <div id=""a-box""> <p class=""title-text"">A</h3></p> </div> <div id=""x-box""> <p class=""title-text"">X<p> </div> <div id=""b-box""> <p class=""title-text"">B</p></div> <br> <div style='float: left;padding-left:30px;'><p>Press '1' for A</p></div><div style='float: right;padding-right:30px;'><p>Press '0' for B</p> </div> </div></div>","null","","","","","","","","","","","","","",""
"3320","","test","audio-keyboard-response","169","457024","0.0-8.0-1.70","5a80e46a2a842c0001fc913f","condA","","resources/audio/wordStim/S9_AU_18_axb_Step-5.wav","49","","","","","AU","resources/audio/wordStim/S9_AU_18_axb_Step-5.wav","S9","18","axb","5","CN","0","1","false"
"null","","fixation","html-keyboard-response","170","458026","0.0-8.0-0.71","5a80e46a2a842c0001fc913f","condA","","<div class=""vertical-center"" style='width:60%;'><p style='font-weight:bold;'>Does the middle word sound more like the first word (A) or the last word (B)?</p> <br> <div class=""container""> <div id=""a-box""> <p class=""title-text"">A</h3></p> </div> <div id=""x-box""> <p class=""title-text"">X<p> </div> <div id=""b-box""> <p class=""title-text"">B</p></div> <br> <div style='float: left;padding-left:30px;'><p>Press '1' for A</p></div><div style='float: right;padding-right:30px;'><p>Press '0' for B</p> </div> </div></div>","null","","","","","","","","","","","","","",""
"2949","","test","audio-keyboard-response","171","460969","0.0-8.0-1.71","5a80e46a2a842c0001fc913f","condA","","resources/audio/wordStim/S3_AU_15_axb_Step-3.wav","49","","","","","AU","resources/audio/wordStim/S3_AU_15_axb_Step-3.wav","S3","15","axb","3","MI","0","1","false"
"null","","fixation","html-keyboard-response","172","461971","0.0-8.0-0.72","5a80e46a2a842c0001fc913f","condA","","<div class=""vertical-center"" style='width:60%;'><p style='font-weight:bold;'>Does the middle word sound more like the first word (A) or the last word (B)?</p> <br> <div class=""container""> <div id=""a-box""> <p class=""title-text"">A</h3></p> </div> <div id=""x-box""> <p class=""title-text"">X<p> </div> <div id=""b-box""> <p class=""title-text"">B</p></div> <br> <div style='float: left;padding-left:30px;'><p>Press '1' for A</p></div><div style='float: right;padding-right:30px;'><p>Press '0' for B</p> </div> </div></div>","null","","","","","","","","","","","","","",""
"3011","","test","audio-keyboard-response","173","464984","0.0-8.0-1.72","5a80e46a2a842c0001fc913f","condA","","resources/audio/wordStim/S9_AI_29_axb_Step-5.wav","49","","","","","AI","resources/audio/wordStim/S9_AI_29_axb_Step-5.wav","S9","29","axb","5","CN","0","1","false"
"null","","fixation","html-keyboard-response","174","465986","0.0-8.0-0.73","5a80e46a2a842c0001fc913f","condA","","<div class=""vertical-center"" style='width:60%;'><p style='font-weight:bold;'>Does the middle word sound more like the first word (A) or the last word (B)?</p> <br> <div class=""container""> <div id=""a-box""> <p class=""title-text"">A</h3></p> </div> <div id=""x-box""> <p class=""title-text"">X<p> </div> <div id=""b-box""> <p class=""title-text"">B</p></div> <br> <div style='float: left;padding-left:30px;'><p>Press '1' for A</p></div><div style='float: right;padding-right:30px;'><p>Press '0' for B</p> </div> </div></div>","null","","","","","","","","","","","","","",""
"3469","","test","audio-keyboard-response","175","469448","0.0-8.0-1.73","5a80e46a2a842c0001fc913f","condA","","resources/audio/wordStim/S9_AU_14_axb_Step-5.wav","49","","","","","AU","resources/audio/wordStim/S9_AU_14_axb_Step-5.wav","S9","14","axb","5","CN","0","1","false"
"null","","fixation","html-keyboard-response","176","470450","0.0-8.0-0.74","5a80e46a2a842c0001fc913f","condA","","<div class=""vertical-center"" style='width:60%;'><p style='font-weight:bold;'>Does the middle word sound more like the first word (A) or the last word (B)?</p> <br> <div class=""container""> <div id=""a-box""> <p class=""title-text"">A</h3></p> </div> <div id=""x-box""> <p class=""title-text"">X<p> </div> <div id=""b-box""> <p class=""title-text"">B</p></div> <br> <div style='float: left;padding-left:30px;'><p>Press '1' for A</p></div><div style='float: right;padding-right:30px;'><p>Press '0' for B</p> </div> </div></div>","null","","","","","","","","","","","","","",""
"2989","","test","audio-keyboard-response","177","473441","0.0-8.0-1.74","5a80e46a2a842c0001fc913f","condA","","resources/audio/wordStim/S9_AI_27_axb_Step-9.wav","48","","","","","AI","resources/audio/wordStim/S9_AI_27_axb_Step-9.wav","S9","27","axb","9","CN","0","0","true"
"null","","fixation","html-keyboard-response","178","474441","0.0-8.0-0.75","5a80e46a2a842c0001fc913f","condA","","<div class=""vertical-center"" style='width:60%;'><p style='font-weight:bold;'>Does the middle word sound more like the first word (A) or the last word (B)?</p> <br> <div class=""container""> <div id=""a-box""> <p class=""title-text"">A</h3></p> </div> <div id=""x-box""> <p class=""title-text"">X<p> </div> <div id=""b-box""> <p class=""title-text"">B</p></div> <br> <div style='float: left;padding-left:30px;'><p>Press '1' for A</p></div><div style='float: right;padding-right:30px;'><p>Press '0' for B</p> </div> </div></div>","null","","","","","","","","","","","","","",""
"3360","","test","audio-keyboard-response","179","477800","0.0-8.0-1.75","5a80e46a2a842c0001fc913f","condA","","resources/audio/wordStim/S3_AI_28_axb_Step-7.wav","49","","","","","AI","resources/audio/wordStim/S3_AI_28_axb_Step-7.wav","S3","28","axb","7","MI","0","1","false"
"null","","fixation","html-keyboard-response","180","478801","0.0-8.0-0.76","5a80e46a2a842c0001fc913f","condA","","<div class=""vertical-center"" style='width:60%;'><p style='font-weight:bold;'>Does the middle word sound more like the first word (A) or the last word (B)?</p> <br> <div class=""container""> <div id=""a-box""> <p class=""title-text"">A</h3></p> </div> <div id=""x-box""> <p class=""title-text"">X<p> </div> <div id=""b-box""> <p class=""title-text"">B</p></div> <br> <div style='float: left;padding-left:30px;'><p>Press '1' for A</p></div><div style='float: right;padding-right:30px;'><p>Press '0' for B</p> </div> </div></div>","null","","","","","","","","","","","","","",""
"3760","","test","audio-keyboard-response","181","482560","0.0-8.0-1.76","5a80e46a2a842c0001fc913f","condA","","resources/audio/wordStim/S9_AU_11_bxa_Step-2.wav","49","","","","","AU","resources/audio/wordStim/S9_AU_11_bxa_Step-2.wav","S9","11","bxa","2","CN","1","1","true"
"null","","fixation","html-keyboard-response","182","483561","0.0-8.0-0.77","5a80e46a2a842c0001fc913f","condA","","<div class=""vertical-center"" style='width:60%;'><p style='font-weight:bold;'>Does the middle word sound more like the first word (A) or the last word (B)?</p> <br> <div class=""container""> <div id=""a-box""> <p class=""title-text"">A</h3></p> </div> <div id=""x-box""> <p class=""title-text"">X<p> </div> <div id=""b-box""> <p class=""title-text"">B</p></div> <br> <div style='float: left;padding-left:30px;'><p>Press '1' for A</p></div><div style='float: right;padding-right:30px;'><p>Press '0' for B</p> </div> </div></div>","null","","","","","","","","","","","","","",""
"4600","","test","audio-keyboard-response","183","488160","0.0-8.0-1.77","5a80e46a2a842c0001fc913f","condA","","resources/audio/wordStim/S3_AI_22_axb_Step-5.wav","48","","","","","AI","resources/audio/wordStim/S3_AI_22_axb_Step-5.wav","S3","22","axb","5","MI","0","0","true"
"null","","fixation","html-keyboard-response","184","489162","0.0-8.0-0.78","5a80e46a2a842c0001fc913f","condA","","<div class=""vertical-center"" style='width:60%;'><p style='font-weight:bold;'>Does the middle word sound more like the first word (A) or the last word (B)?</p> <br> <div class=""container""> <div id=""a-box""> <p class=""title-text"">A</h3></p> </div> <div id=""x-box""> <p class=""title-text"">X<p> </div> <div id=""b-box""> <p class=""title-text"">B</p></div> <br> <div style='float: left;padding-left:30px;'><p>Press '1' for A</p></div><div style='float: right;padding-right:30px;'><p>Press '0' for B</p> </div> </div></div>","null","","","","","","","","","","","","","",""
"2541","","test","audio-keyboard-response","185","491704","0.0-8.0-1.78","5a80e46a2a842c0001fc913f","condA","","resources/audio/wordStim/S3_AU_15_axb_Step-10.wav","48","","","","","AU","resources/audio/wordStim/S3_AU_15_axb_Step-10.wav","S3","15","axb","10","MI","0","0","true"
"null","","fixation","html-keyboard-response","186","492706","0.0-8.0-0.79","5a80e46a2a842c0001fc913f","condA","","<div class=""vertical-center"" style='width:60%;'><p style='font-weight:bold;'>Does the middle word sound more like the first word (A) or the last word (B)?</p> <br> <div class=""container""> <div id=""a-box""> <p class=""title-text"">A</h3></p> </div> <div id=""x-box""> <p class=""title-text"">X<p> </div> <div id=""b-box""> <p class=""title-text"">B</p></div> <br> <div style='float: left;padding-left:30px;'><p>Press '1' for A</p></div><div style='float: right;padding-right:30px;'><p>Press '0' for B</p> </div> </div></div>","null","","","","","","","","","","","","","",""
"2669","","test","audio-keyboard-response","187","495368","0.0-8.0-1.79","5a80e46a2a842c0001fc913f","condA","","resources/audio/wordStim/S9_AU_17_axb_Step-7.wav","48","","","","","AU","resources/audio/wordStim/S9_AU_17_axb_Step-7.wav","S9","17","axb","7","CN","0","0","true"
"null","","fixation","html-keyboard-response","188","496370","0.0-8.0-0.80","5a80e46a2a842c0001fc913f","condA","","<div class=""vertical-center"" style='width:60%;'><p style='font-weight:bold;'>Does the middle word sound more like the first word (A) or the last word (B)?</p> <br> <div class=""container""> <div id=""a-box""> <p class=""title-text"">A</h3></p> </div> <div id=""x-box""> <p class=""title-text"">X<p> </div> <div id=""b-box""> <p class=""title-text"">B</p></div> <br> <div style='float: left;padding-left:30px;'><p>Press '1' for A</p></div><div style='float: right;padding-right:30px;'><p>Press '0' for B</p> </div> </div></div>","null","","","","","","","","","","","","","",""
"3480","","test","audio-keyboard-response","189","499856","0.0-8.0-1.80","5a80e46a2a842c0001fc913f","condA","","resources/audio/wordStim/S3_AU_14_axb_Step-9.wav","49","","","","","AU","resources/audio/wordStim/S3_AU_14_axb_Step-9.wav","S3","14","axb","9","MI","0","1","false"
"1723","","break","html-keyboard-response","190","502080","0.0-8.0-2.80-0.80","5a80e46a2a842c0001fc913f","condA","","<div class=""vertical-center""><p>Feel free to take a break!</p><i>When you're ready to continue, press SPACE to begin the next trial.</i></p></div>","32","","","","","","","","","","","","","",""
"null","","fixation","html-keyboard-response","191","502580","0.0-8.0-0.81","5a80e46a2a842c0001fc913f","condA","","<div class=""vertical-center"" style='width:60%;'><p style='font-weight:bold;'>Does the middle word sound more like the first word (A) or the last word (B)?</p> <br> <div class=""container""> <div id=""a-box""> <p class=""title-text"">A</h3></p> </div> <div id=""x-box""> <p class=""title-text"">X<p> </div> <div id=""b-box""> <p class=""title-text"">B</p></div> <br> <div style='float: left;padding-left:30px;'><p>Press '1' for A</p></div><div style='float: right;padding-right:30px;'><p>Press '0' for B</p> </div> </div></div>","null","","","","","","","","","","","","","",""
"3600","","test","audio-keyboard-response","192","506184","0.0-8.0-1.81","5a80e46a2a842c0001fc913f","condA","","resources/audio/wordStim/S3_AU_18_axb_Step-10.wav","49","","","","","AU","resources/audio/wordStim/S3_AU_18_axb_Step-10.wav","S3","18","axb","10","MI","0","1","false"
"null","","fixation","html-keyboard-response","193","507186","0.0-8.0-0.82","5a80e46a2a842c0001fc913f","condA","","<div class=""vertical-center"" style='width:60%;'><p style='font-weight:bold;'>Does the middle word sound more like the first word (A) or the last word (B)?</p> <br> <div class=""container""> <div id=""a-box""> <p class=""title-text"">A</h3></p> </div> <div id=""x-box""> <p class=""title-text"">X<p> </div> <div id=""b-box""> <p class=""title-text"">B</p></div> <br> <div style='float: left;padding-left:30px;'><p>Press '1' for A</p></div><div style='float: right;padding-right:30px;'><p>Press '0' for B</p> </div> </div></div>","null","","","","","","","","","","","","","",""
"2899","","test","audio-keyboard-response","194","510080","0.0-8.0-1.82","5a80e46a2a842c0001fc913f","condA","","resources/audio/wordStim/S3_AI_28_axb_Step-3.wav","49","","","","","AI","resources/audio/wordStim/S3_AI_28_axb_Step-3.wav","S3","28","axb","3","MI","0","1","false"
"null","","fixation","html-keyboard-response","195","511082","0.0-8.0-0.83","5a80e46a2a842c0001fc913f","condA","","<div class=""vertical-center"" style='width:60%;'><p style='font-weight:bold;'>Does the middle word sound more like the first word (A) or the last word (B)?</p> <br> <div class=""container""> <div id=""a-box""> <p class=""title-text"">A</h3></p> </div> <div id=""x-box""> <p class=""title-text"">X<p> </div> <div id=""b-box""> <p class=""title-text"">B</p></div> <br> <div style='float: left;padding-left:30px;'><p>Press '1' for A</p></div><div style='float: right;padding-right:30px;'><p>Press '0' for B</p> </div> </div></div>","null","","","","","","","","","","","","","",""
"2891","","test","audio-keyboard-response","196","513968","0.0-8.0-1.83","5a80e46a2a842c0001fc913f","condA","","resources/audio/wordStim/S9_AI_30_axb_Step-7.wav","48","","","","","AI","resources/audio/wordStim/S9_AI_30_axb_Step-7.wav","S9","30","axb","7","CN","0","0","true"
"null","","fixation","html-keyboard-response","197","514970","0.0-8.0-0.84","5a80e46a2a842c0001fc913f","condA","","<div class=""vertical-center"" style='width:60%;'><p style='font-weight:bold;'>Does the middle word sound more like the first word (A) or the last word (B)?</p> <br> <div class=""container""> <div id=""a-box""> <p class=""title-text"">A</h3></p> </div> <div id=""x-box""> <p class=""title-text"">X<p> </div> <div id=""b-box""> <p class=""title-text"">B</p></div> <br> <div style='float: left;padding-left:30px;'><p>Press '1' for A</p></div><div style='float: right;padding-right:30px;'><p>Press '0' for B</p> </div> </div></div>","null","","","","","","","","","","","","","",""
"3469","","test","audio-keyboard-response","198","518440","0.0-8.0-1.84","5a80e46a2a842c0001fc913f","condA","","resources/audio/wordStim/S9_AI_22_bxa_Step-4.wav","48","","","","","AI","resources/audio/wordStim/S9_AI_22_bxa_Step-4.wav","S9","22","bxa","4","CN","1","0","false"
"null","","fixation","html-keyboard-response","199","519443","0.0-8.0-0.85","5a80e46a2a842c0001fc913f","condA","","<div class=""vertical-center"" style='width:60%;'><p style='font-weight:bold;'>Does the middle word sound more like the first word (A) or the last word (B)?</p> <br> <div class=""container""> <div id=""a-box""> <p class=""title-text"">A</h3></p> </div> <div id=""x-box""> <p class=""title-text"">X<p> </div> <div id=""b-box""> <p class=""title-text"">B</p></div> <br> <div style='float: left;padding-left:30px;'><p>Press '1' for A</p></div><div style='float: right;padding-right:30px;'><p>Press '0' for B</p> </div> </div></div>","null","","","","","","","","","","","","","",""
"3691","","test","audio-keyboard-response","200","523127","0.0-8.0-1.85","5a80e46a2a842c0001fc913f","condA","","resources/audio/wordStim/S9_AU_11_axb_Step-7.wav","49","","","","","AU","resources/audio/wordStim/S9_AU_11_axb_Step-7.wav","S9","11","axb","7","CN","0","1","false"
"null","","fixation","html-keyboard-response","201","524130","0.0-8.0-0.86","5a80e46a2a842c0001fc913f","condA","","<div class=""vertical-center"" style='width:60%;'><p style='font-weight:bold;'>Does the middle word sound more like the first word (A) or the last word (B)?</p> <br> <div class=""container""> <div id=""a-box""> <p class=""title-text"">A</h3></p> </div> <div id=""x-box""> <p class=""title-text"">X<p> </div> <div id=""b-box""> <p class=""title-text"">B</p></div> <br> <div style='float: left;padding-left:30px;'><p>Press '1' for A</p></div><div style='float: right;padding-right:30px;'><p>Press '0' for B</p> </div> </div></div>","null","","","","","","","","","","","","","",""
"2781","","test","audio-keyboard-response","202","526911","0.0-8.0-1.86","5a80e46a2a842c0001fc913f","condA","","resources/audio/wordStim/S3_AU_15_axb_Step-7.wav","49","","","","","AU","resources/audio/wordStim/S3_AU_15_axb_Step-7.wav","S3","15","axb","7","MI","0","1","false"
"null","","fixation","html-keyboard-response","203","527913","0.0-8.0-0.87","5a80e46a2a842c0001fc913f","condA","","<div class=""vertical-center"" style='width:60%;'><p style='font-weight:bold;'>Does the middle word sound more like the first word (A) or the last word (B)?</p> <br> <div class=""container""> <div id=""a-box""> <p class=""title-text"">A</h3></p> </div> <div id=""x-box""> <p class=""title-text"">X<p> </div> <div id=""b-box""> <p class=""title-text"">B</p></div> <br> <div style='float: left;padding-left:30px;'><p>Press '1' for A</p></div><div style='float: right;padding-right:30px;'><p>Press '0' for B</p> </div> </div></div>","null","","","","","","","","","","","","","",""
"3349","","test","audio-keyboard-response","204","531263","0.0-8.0-1.87","5a80e46a2a842c0001fc913f","condA","","resources/audio/wordStim/S9_AU_11_axb_Step-5.wav","49","","","","","AU","resources/audio/wordStim/S9_AU_11_axb_Step-5.wav","S9","11","axb","5","CN","0","1","false"
"null","","fixation","html-keyboard-response","205","532265","0.0-8.0-0.88","5a80e46a2a842c0001fc913f","condA","","<div class=""vertical-center"" style='width:60%;'><p style='font-weight:bold;'>Does the middle word sound more like the first word (A) or the last word (B)?</p> <br> <div class=""container""> <div id=""a-box""> <p class=""title-text"">A</h3></p> </div> <div id=""x-box""> <p class=""title-text"">X<p> </div> <div id=""b-box""> <p class=""title-text"">B</p></div> <br> <div style='float: left;padding-left:30px;'><p>Press '1' for A</p></div><div style='float: right;padding-right:30px;'><p>Press '0' for B</p> </div> </div></div>","null","","","","","","","","","","","","","",""
"3299","","test","audio-keyboard-response","206","535559","0.0-8.0-1.88","5a80e46a2a842c0001fc913f","condA","","resources/audio/wordStim/S9_AU_19_axb_Step-10.wav","48","","","","","AU","resources/audio/wordStim/S9_AU_19_axb_Step-10.wav","S9","19","axb","10","CN","0","0","true"
"null","","fixation","html-keyboard-response","207","536562","0.0-8.0-0.89","5a80e46a2a842c0001fc913f","condA","","<div class=""vertical-center"" style='width:60%;'><p style='font-weight:bold;'>Does the middle word sound more like the first word (A) or the last word (B)?</p> <br> <div class=""container""> <div id=""a-box""> <p class=""title-text"">A</h3></p> </div> <div id=""x-box""> <p class=""title-text"">X<p> </div> <div id=""b-box""> <p class=""title-text"">B</p></div> <br> <div style='float: left;padding-left:30px;'><p>Press '1' for A</p></div><div style='float: right;padding-right:30px;'><p>Press '0' for B</p> </div> </div></div>","null","","","","","","","","","","","","","",""
"3072","","test","audio-keyboard-response","208","539632","0.0-8.0-1.89","5a80e46a2a842c0001fc913f","condA","","resources/audio/wordStim/S9_AU_13_axb_Step-3.wav","49","","","","","AU","resources/audio/wordStim/S9_AU_13_axb_Step-3.wav","S9","13","axb","3","CN","0","1","false"
"null","","fixation","html-keyboard-response","209","540634","0.0-8.0-0.90","5a80e46a2a842c0001fc913f","condA","","<div class=""vertical-center"" style='width:60%;'><p style='font-weight:bold;'>Does the middle word sound more like the first word (A) or the last word (B)?</p> <br> <div class=""container""> <div id=""a-box""> <p class=""title-text"">A</h3></p> </div> <div id=""x-box""> <p class=""title-text"">X<p> </div> <div id=""b-box""> <p class=""title-text"">B</p></div> <br> <div style='float: left;padding-left:30px;'><p>Press '1' for A</p></div><div style='float: right;padding-right:30px;'><p>Press '0' for B</p> </div> </div></div>","null","","","","","","","","","","","","","",""
"2648","","test","audio-keyboard-response","210","543279","0.0-8.0-1.90","5a80e46a2a842c0001fc913f","condA","","resources/audio/wordStim/S9_AU_16_axb_Step-7.wav","48","","","","","AU","resources/audio/wordStim/S9_AU_16_axb_Step-7.wav","S9","16","axb","7","CN","0","0","true"
"null","","fixation","html-keyboard-response","211","544282","0.0-8.0-0.91","5a80e46a2a842c0001fc913f","condA","","<div class=""vertical-center"" style='width:60%;'><p style='font-weight:bold;'>Does the middle word sound more like the first word (A) or the last word (B)?</p> <br> <div class=""container""> <div id=""a-box""> <p class=""title-text"">A</h3></p> </div> <div id=""x-box""> <p class=""title-text"">X<p> </div> <div id=""b-box""> <p class=""title-text"">B</p></div> <br> <div style='float: left;padding-left:30px;'><p>Press '1' for A</p></div><div style='float: right;padding-right:30px;'><p>Press '0' for B</p> </div> </div></div>","null","","","","","","","","","","","","","",""
"3731","","test","audio-keyboard-response","212","548008","0.0-8.0-1.91","5a80e46a2a842c0001fc913f","condA","","resources/audio/wordStim/S9_AU_13_axb_Step-10.wav","49","","","","","AU","resources/audio/wordStim/S9_AU_13_axb_Step-10.wav","S9","13","axb","10","CN","0","1","false"
"null","","fixation","html-keyboard-response","213","549010","0.0-8.0-0.92","5a80e46a2a842c0001fc913f","condA","","<div class=""vertical-center"" style='width:60%;'><p style='font-weight:bold;'>Does the middle word sound more like the first word (A) or the last word (B)?</p> <br> <div class=""container""> <div id=""a-box""> <p class=""title-text"">A</h3></p> </div> <div id=""x-box""> <p class=""title-text"">X<p> </div> <div id=""b-box""> <p class=""title-text"">B</p></div> <br> <div style='float: left;padding-left:30px;'><p>Press '1' for A</p></div><div style='float: right;padding-right:30px;'><p>Press '0' for B</p> </div> </div></div>","null","","","","","","","","","","","","","",""
"3051","","test","audio-keyboard-response","214","552063","0.0-8.0-1.92","5a80e46a2a842c0001fc913f","condA","","resources/audio/wordStim/S9_AU_20_axb_Step-7.wav","48","","","","","AU","resources/audio/wordStim/S9_AU_20_axb_Step-7.wav","S9","20","axb","7","CN","0","0","true"
"null","","fixation","html-keyboard-response","215","553065","0.0-8.0-0.93","5a80e46a2a842c0001fc913f","condA","","<div class=""vertical-center"" style='width:60%;'><p style='font-weight:bold;'>Does the middle word sound more like the first word (A) or the last word (B)?</p> <br> <div class=""container""> <div id=""a-box""> <p class=""title-text"">A</h3></p> </div> <div id=""x-box""> <p class=""title-text"">X<p> </div> <div id=""b-box""> <p class=""title-text"">B</p></div> <br> <div style='float: left;padding-left:30px;'><p>Press '1' for A</p></div><div style='float: right;padding-right:30px;'><p>Press '0' for B</p> </div> </div></div>","null","","","","","","","","","","","","","",""
