"rt","url","trial_role","trial_type","trial_index","time_elapsed","internal_node_id","participantId","condition","view_history","stimulus","key_press","button_pressed","correct_answer","correct_response","success","vowel","wordStim","speaker","sentNum","order","step","speakerIdentity","raised_answer","key_response","raised_response"
"22543.170000019018","micr.con.consent.html","consent","external-html","0","27180","0.0-0.0","5bdc8d12b2fff7000189b6f8","condA","","","","","","","","","","","","","","","","",""
"45926.60000000615","","instructions","instructions","1","73108","0.0-1.0","5bdc8d12b2fff7000189b6f8","condA","[{""page_index"":0,""viewing_time"":20239.440000033937},{""page_index"":1,""viewing_time"":11176.799999957439},{""page_index"":2,""viewing_time"":14509.425000054762}]","","","","","","","","","","","","","","","",""
"null","","fixation","html-keyboard-response","2","73611","0.0-2.0-0.0","5bdc8d12b2fff7000189b6f8","condA","","<div class=""vertical-center"" style=""font-size:60px;"">+</div>","null","","","","","","","","","","","","","",""
"6393.255000002682","","tonetest","audio-button-response","3","80019","0.0-2.0-1.0","5bdc8d12b2fff7000189b6f8","condA","","../../src/audio/toneTest_5.wav","","2","0","false","","","","","","","","","","",""
"null","","fixation","html-keyboard-response","4","80522","0.0-2.0-0.1","5bdc8d12b2fff7000189b6f8","condA","","<div class=""vertical-center"" style=""font-size:60px;"">+</div>","null","","","","","","","","","","","","","",""
"7862.759999989066","","tonetest","audio-button-response","5","88386","0.0-2.0-1.1","5bdc8d12b2fff7000189b6f8","condA","","../../src/audio/toneTest_4.wav","","2","1","false","","","","","","","","","","",""
"null","","fixation","html-keyboard-response","6","88888","0.0-2.0-0.2","5bdc8d12b2fff7000189b6f8","condA","","<div class=""vertical-center"" style=""font-size:60px;"">+</div>","null","","","","","","","","","","","","","",""
"8502.395000017714","","tonetest","audio-button-response","7","97393","0.0-2.0-1.2","5bdc8d12b2fff7000189b6f8","condA","","../../src/audio/toneTest_5.wav","","1","0","false","","","","","","","","","","",""
"null","","fixation","html-keyboard-response","8","97895","0.0-2.0-0.3","5bdc8d12b2fff7000189b6f8","condA","","<div class=""vertical-center"" style=""font-size:60px;"">+</div>","null","","","","","","","","","","","","","",""
"6434.629999974277","","tonetest","audio-button-response","9","104333","0.0-2.0-1.3","5bdc8d12b2fff7000189b6f8","condA","","../../src/audio/toneTest_5.wav","","2","0","false","","","","","","","","","","",""
"null","","fixation","html-keyboard-response","10","104835","0.0-2.0-0.4","5bdc8d12b2fff7000189b6f8","condA","","<div class=""vertical-center"" style=""font-size:60px;"">+</div>","null","","","","","","","","","","","","","",""
"6859.560000011697","","tonetest","audio-button-response","11","111698","0.0-2.0-1.4","5bdc8d12b2fff7000189b6f8","condA","","../../src/audio/toneTest_2.wav","","0","1","false","","","","","","","","","","",""
"null","","fixation","html-keyboard-response","12","112200","0.0-2.0-0.5","5bdc8d12b2fff7000189b6f8","condA","","<div class=""vertical-center"" style=""font-size:60px;"">+</div>","null","","","","","","","","","","","","","",""
"6333.670000021812","","tonetest","audio-button-response","13","118537","0.0-2.0-1.5","5bdc8d12b2fff7000189b6f8","condA","","../../src/audio/toneTest_1.wav","","1","2","false","","","","","","","","","","",""
"18368.4549999889","","instructions","html-keyboard-response","14","136908","0.0-3.0","5bdc8d12b2fff7000189b6f8","condA","","<div class=""vertical-center""><p><b>Your score was 0/6.</b></p><p>If you scored below 6, please ensure that you are wearing headphones and in a quiet location free of distractions.</p><p><i>To continue to the main experiment, press SPACE.</i></p></div>","32","","","","","","","","","","","","","",""
"","","","fullscreen","15","140849","0.0-4.0","5bdc8d12b2fff7000189b6f8","condA","","","","","","","true","","","","","","","","","",""
"27904.23499996541","","instructions","instructions","16","168755","0.0-5.0","5bdc8d12b2fff7000189b6f8","condA","[{""page_index"":0,""viewing_time"":27903.874999959953}]","","","","","","","","","","","","","","","",""
"null","","fixation","html-keyboard-response","17","169260","0.0-6.0-0.0","5bdc8d12b2fff7000189b6f8","condA","","<div class=""vertical-center"" style='width:60%;'><p style='font-weight:bold;'>Does the middle word sound more like the first word (A) or the last word (B)?</p> <br> <div class=""container""> <div id=""a-box""> <p class=""title-text"">A</h3></p> </div> <div id=""x-box""> <p class=""title-text"">X<p> </div> <div id=""b-box""> <p class=""title-text"">B</p></div> <br> <div style='float: left;padding-left:30px;'><p>Press '1' for A</p></div><div style='float: right;padding-right:30px;'><p>Press '0' for B</p> </div> </div></div>","null","","","","","","","","","","","","","",""
"4792","","practice","audio-keyboard-response","18","174699","0.0-6.0-1.0","5bdc8d12b2fff7000189b6f8","condA","","resources/audio/practiceStim/S1_AI_21_bxa_Step-6.wav","48","","","","","","","","","","","","","",""
"null","","fixation","html-keyboard-response","19","175703","0.0-6.0-0.1","5bdc8d12b2fff7000189b6f8","condA","","<div class=""vertical-center"" style='width:60%;'><p style='font-weight:bold;'>Does the middle word sound more like the first word (A) or the last word (B)?</p> <br> <div class=""container""> <div id=""a-box""> <p class=""title-text"">A</h3></p> </div> <div id=""x-box""> <p class=""title-text"">X<p> </div> <div id=""b-box""> <p class=""title-text"">B</p></div> <br> <div style='float: left;padding-left:30px;'><p>Press '1' for A</p></div><div style='float: right;padding-right:30px;'><p>Press '0' for B</p> </div> </div></div>","null","","","","","","","","","","","","","",""
"4931","","practice","audio-keyboard-response","20","180638","0.0-6.0-1.1","5bdc8d12b2fff7000189b6f8","condA","","resources/audio/practiceStim/S1_AI_21_axb_Step-6.wav","49","","","","","","","","","","","","","",""
"null","","fixation","html-keyboard-response","21","181640","0.0-6.0-0.2","5bdc8d12b2fff7000189b6f8","condA","","<div class=""vertical-center"" style='width:60%;'><p style='font-weight:bold;'>Does the middle word sound more like the first word (A) or the last word (B)?</p> <br> <div class=""container""> <div id=""a-box""> <p class=""title-text"">A</h3></p> </div> <div id=""x-box""> <p class=""title-text"">X<p> </div> <div id=""b-box""> <p class=""title-text"">B</p></div> <br> <div style='float: left;padding-left:30px;'><p>Press '1' for A</p></div><div style='float: right;padding-right:30px;'><p>Press '0' for B</p> </div> </div></div>","null","","","","","","","","","","","","","",""
"2840","","practice","audio-keyboard-response","22","184490","0.0-6.0-1.2","5bdc8d12b2fff7000189b6f8","condA","","resources/audio/practiceStim/S1_AU_14_bxa_Step-6.wav","48","","","","","","","","","","","","","",""
"null","","fixation","html-keyboard-response","23","185494","0.0-6.0-0.3","5bdc8d12b2fff7000189b6f8","condA","","<div class=""vertical-center"" style='width:60%;'><p style='font-weight:bold;'>Does the middle word sound more like the first word (A) or the last word (B)?</p> <br> <div class=""container""> <div id=""a-box""> <p class=""title-text"">A</h3></p> </div> <div id=""x-box""> <p class=""title-text"">X<p> </div> <div id=""b-box""> <p class=""title-text"">B</p></div> <br> <div style='float: left;padding-left:30px;'><p>Press '1' for A</p></div><div style='float: right;padding-right:30px;'><p>Press '0' for B</p> </div> </div></div>","null","","","","","","","","","","","","","",""
"2819","","practice","audio-keyboard-response","24","188317","0.0-6.0-1.3","5bdc8d12b2fff7000189b6f8","condA","","resources/audio/practiceStim/S1_AU_14_axb_Step-6.wav","48","","","","","","","","","","","","","",""
"3413.8599999714643","","instructions","instructions","25","192234","0.0-7.0","5bdc8d12b2fff7000189b6f8","condA","[{""page_index"":0,""viewing_time"":3413.509999983944}]","","","","","","","","","","","","","","","",""
"null","","fixation","html-keyboard-response","26","192740","0.0-8.0-0.0","5bdc8d12b2fff7000189b6f8","condA","","<div class=""vertical-center"" style='width:60%;'><p style='font-weight:bold;'>Does the middle word sound more like the first word (A) or the last word (B)?</p> <br> <div class=""container""> <div id=""a-box""> <p class=""title-text"">A</h3></p> </div> <div id=""x-box""> <p class=""title-text"">X<p> </div> <div id=""b-box""> <p class=""title-text"">B</p></div> <br> <div style='float: left;padding-left:30px;'><p>Press '1' for A</p></div><div style='float: right;padding-right:30px;'><p>Press '0' for B</p> </div> </div></div>","null","","","","","","","","","","","","","",""
"3611","","test","audio-keyboard-response","27","196348","0.0-8.0-1.0","5bdc8d12b2fff7000189b6f8","condA","","resources/audio/wordStim/S3_AU_17_bxa_Step-4.wav","48","","","","","AU","resources/audio/wordStim/S3_AU_17_bxa_Step-4.wav","S3","17","bxa","4","MI","1","0","false"
"null","","fixation","html-keyboard-response","28","197357","0.0-8.0-0.1","5bdc8d12b2fff7000189b6f8","condA","","<div class=""vertical-center"" style='width:60%;'><p style='font-weight:bold;'>Does the middle word sound more like the first word (A) or the last word (B)?</p> <br> <div class=""container""> <div id=""a-box""> <p class=""title-text"">A</h3></p> </div> <div id=""x-box""> <p class=""title-text"">X<p> </div> <div id=""b-box""> <p class=""title-text"">B</p></div> <br> <div style='float: left;padding-left:30px;'><p>Press '1' for A</p></div><div style='float: right;padding-right:30px;'><p>Press '0' for B</p> </div> </div></div>","null","","","","","","","","","","","","","",""
"2891","","test","audio-keyboard-response","29","200251","0.0-8.0-1.1","5bdc8d12b2fff7000189b6f8","condA","","resources/audio/wordStim/S9_AU_13_axb_Step-7.wav","48","","","","","AU","resources/audio/wordStim/S9_AU_13_axb_Step-7.wav","S9","13","axb","7","CN","0","0","true"
"null","","fixation","html-keyboard-response","30","201258","0.0-8.0-0.2","5bdc8d12b2fff7000189b6f8","condA","","<div class=""vertical-center"" style='width:60%;'><p style='font-weight:bold;'>Does the middle word sound more like the first word (A) or the last word (B)?</p> <br> <div class=""container""> <div id=""a-box""> <p class=""title-text"">A</h3></p> </div> <div id=""x-box""> <p class=""title-text"">X<p> </div> <div id=""b-box""> <p class=""title-text"">B</p></div> <br> <div style='float: left;padding-left:30px;'><p>Press '1' for A</p></div><div style='float: right;padding-right:30px;'><p>Press '0' for B</p> </div> </div></div>","null","","","","","","","","","","","","","",""
"3061","","test","audio-keyboard-response","31","204321","0.0-8.0-1.2","5bdc8d12b2fff7000189b6f8","condA","","resources/audio/wordStim/S3_AI_28_bxa_Step-8.wav","48","","","","","AI","resources/audio/wordStim/S3_AI_28_bxa_Step-8.wav","S3","28","bxa","8","MI","1","0","false"
"null","","fixation","html-keyboard-response","32","205327","0.0-8.0-0.3","5bdc8d12b2fff7000189b6f8","condA","","<div class=""vertical-center"" style='width:60%;'><p style='font-weight:bold;'>Does the middle word sound more like the first word (A) or the last word (B)?</p> <br> <div class=""container""> <div id=""a-box""> <p class=""title-text"">A</h3></p> </div> <div id=""x-box""> <p class=""title-text"">X<p> </div> <div id=""b-box""> <p class=""title-text"">B</p></div> <br> <div style='float: left;padding-left:30px;'><p>Press '1' for A</p></div><div style='float: right;padding-right:30px;'><p>Press '0' for B</p> </div> </div></div>","null","","","","","","","","","","","","","",""
"3029","","test","audio-keyboard-response","33","208358","0.0-8.0-1.3","5bdc8d12b2fff7000189b6f8","condA","","resources/audio/wordStim/S9_AU_11_bxa_Step-4.wav","48","","","","","AU","resources/audio/wordStim/S9_AU_11_bxa_Step-4.wav","S9","11","bxa","4","CN","1","0","false"
"null","","fixation","html-keyboard-response","34","209362","0.0-8.0-0.4","5bdc8d12b2fff7000189b6f8","condA","","<div class=""vertical-center"" style='width:60%;'><p style='font-weight:bold;'>Does the middle word sound more like the first word (A) or the last word (B)?</p> <br> <div class=""container""> <div id=""a-box""> <p class=""title-text"">A</h3></p> </div> <div id=""x-box""> <p class=""title-text"">X<p> </div> <div id=""b-box""> <p class=""title-text"">B</p></div> <br> <div style='float: left;padding-left:30px;'><p>Press '1' for A</p></div><div style='float: right;padding-right:30px;'><p>Press '0' for B</p> </div> </div></div>","null","","","","","","","","","","","","","",""
"2760","","test","audio-keyboard-response","35","212118","0.0-8.0-1.4","5bdc8d12b2fff7000189b6f8","condA","","resources/audio/wordStim/S3_AI_25_axb_Step-9.wav","48","","","","","AI","resources/audio/wordStim/S3_AI_25_axb_Step-9.wav","S3","25","axb","9","MI","0","0","true"
"null","","fixation","html-keyboard-response","36","213123","0.0-8.0-0.5","5bdc8d12b2fff7000189b6f8","condA","","<div class=""vertical-center"" style='width:60%;'><p style='font-weight:bold;'>Does the middle word sound more like the first word (A) or the last word (B)?</p> <br> <div class=""container""> <div id=""a-box""> <p class=""title-text"">A</h3></p> </div> <div id=""x-box""> <p class=""title-text"">X<p> </div> <div id=""b-box""> <p class=""title-text"">B</p></div> <br> <div style='float: left;padding-left:30px;'><p>Press '1' for A</p></div><div style='float: right;padding-right:30px;'><p>Press '0' for B</p> </div> </div></div>","null","","","","","","","","","","","","","",""
"3011","","test","audio-keyboard-response","37","216128","0.0-8.0-1.5","5bdc8d12b2fff7000189b6f8","condA","","resources/audio/wordStim/S3_AU_14_axb_Step-9.wav","48","","","","","AU","resources/audio/wordStim/S3_AU_14_axb_Step-9.wav","S3","14","axb","9","MI","0","0","true"
"null","","fixation","html-keyboard-response","38","217136","0.0-8.0-0.6","5bdc8d12b2fff7000189b6f8","condA","","<div class=""vertical-center"" style='width:60%;'><p style='font-weight:bold;'>Does the middle word sound more like the first word (A) or the last word (B)?</p> <br> <div class=""container""> <div id=""a-box""> <p class=""title-text"">A</h3></p> </div> <div id=""x-box""> <p class=""title-text"">X<p> </div> <div id=""b-box""> <p class=""title-text"">B</p></div> <br> <div style='float: left;padding-left:30px;'><p>Press '1' for A</p></div><div style='float: right;padding-right:30px;'><p>Press '0' for B</p> </div> </div></div>","null","","","","","","","","","","","","","",""
"2552","","test","audio-keyboard-response","39","219689","0.0-8.0-1.6","5bdc8d12b2fff7000189b6f8","condA","","resources/audio/wordStim/S3_AU_15_bxa_Step-6.wav","49","","","","","AU","resources/audio/wordStim/S3_AU_15_bxa_Step-6.wav","S3","15","bxa","6","MI","1","1","true"
"null","","fixation","html-keyboard-response","40","220696","0.0-8.0-0.7","5bdc8d12b2fff7000189b6f8","condA","","<div class=""vertical-center"" style='width:60%;'><p style='font-weight:bold;'>Does the middle word sound more like the first word (A) or the last word (B)?</p> <br> <div class=""container""> <div id=""a-box""> <p class=""title-text"">A</h3></p> </div> <div id=""x-box""> <p class=""title-text"">X<p> </div> <div id=""b-box""> <p class=""title-text"">B</p></div> <br> <div style='float: left;padding-left:30px;'><p>Press '1' for A</p></div><div style='float: right;padding-right:30px;'><p>Press '0' for B</p> </div> </div></div>","null","","","","","","","","","","","","","",""
"3000","","test","audio-keyboard-response","41","223702","0.0-8.0-1.7","5bdc8d12b2fff7000189b6f8","condA","","resources/audio/wordStim/S3_AI_23_axb_Step-5.wav","48","","","","","AI","resources/audio/wordStim/S3_AI_23_axb_Step-5.wav","S3","23","axb","5","MI","0","0","true"
"null","","fixation","html-keyboard-response","42","224707","0.0-8.0-0.8","5bdc8d12b2fff7000189b6f8","condA","","<div class=""vertical-center"" style='width:60%;'><p style='font-weight:bold;'>Does the middle word sound more like the first word (A) or the last word (B)?</p> <br> <div class=""container""> <div id=""a-box""> <p class=""title-text"">A</h3></p> </div> <div id=""x-box""> <p class=""title-text"">X<p> </div> <div id=""b-box""> <p class=""title-text"">B</p></div> <br> <div style='float: left;padding-left:30px;'><p>Press '1' for A</p></div><div style='float: right;padding-right:30px;'><p>Press '0' for B</p> </div> </div></div>","null","","","","","","","","","","","","","",""
"2749","","test","audio-keyboard-response","43","227461","0.0-8.0-1.8","5bdc8d12b2fff7000189b6f8","condA","","resources/audio/wordStim/S9_AU_20_bxa_Step-8.wav","48","","","","","AU","resources/audio/wordStim/S9_AU_20_bxa_Step-8.wav","S9","20","bxa","8","CN","1","0","false"
"null","","fixation","html-keyboard-response","44","228470","0.0-8.0-0.9","5bdc8d12b2fff7000189b6f8","condA","","<div class=""vertical-center"" style='width:60%;'><p style='font-weight:bold;'>Does the middle word sound more like the first word (A) or the last word (B)?</p> <br> <div class=""container""> <div id=""a-box""> <p class=""title-text"">A</h3></p> </div> <div id=""x-box""> <p class=""title-text"">X<p> </div> <div id=""b-box""> <p class=""title-text"">B</p></div> <br> <div style='float: left;padding-left:30px;'><p>Press '1' for A</p></div><div style='float: right;padding-right:30px;'><p>Press '0' for B</p> </div> </div></div>","null","","","","","","","","","","","","","",""
"2680","","test","audio-keyboard-response","45","231156","0.0-8.0-1.9","5bdc8d12b2fff7000189b6f8","condA","","resources/audio/wordStim/S3_AI_28_bxa_Step-6.wav","48","","","","","AI","resources/audio/wordStim/S3_AI_28_bxa_Step-6.wav","S3","28","bxa","6","MI","1","0","false"
"null","","fixation","html-keyboard-response","46","232162","0.0-8.0-0.10","5bdc8d12b2fff7000189b6f8","condA","","<div class=""vertical-center"" style='width:60%;'><p style='font-weight:bold;'>Does the middle word sound more like the first word (A) or the last word (B)?</p> <br> <div class=""container""> <div id=""a-box""> <p class=""title-text"">A</h3></p> </div> <div id=""x-box""> <p class=""title-text"">X<p> </div> <div id=""b-box""> <p class=""title-text"">B</p></div> <br> <div style='float: left;padding-left:30px;'><p>Press '1' for A</p></div><div style='float: right;padding-right:30px;'><p>Press '0' for B</p> </div> </div></div>","null","","","","","","","","","","","","","",""
"2819","","test","audio-keyboard-response","47","234985","0.0-8.0-1.10","5bdc8d12b2fff7000189b6f8","condA","","resources/audio/wordStim/S9_AI_27_axb_Step-9.wav","48","","","","","AI","resources/audio/wordStim/S9_AI_27_axb_Step-9.wav","S9","27","axb","9","CN","0","0","true"
"null","","fixation","html-keyboard-response","48","235993","0.0-8.0-0.11","5bdc8d12b2fff7000189b6f8","condA","","<div class=""vertical-center"" style='width:60%;'><p style='font-weight:bold;'>Does the middle word sound more like the first word (A) or the last word (B)?</p> <br> <div class=""container""> <div id=""a-box""> <p class=""title-text"">A</h3></p> </div> <div id=""x-box""> <p class=""title-text"">X<p> </div> <div id=""b-box""> <p class=""title-text"">B</p></div> <br> <div style='float: left;padding-left:30px;'><p>Press '1' for A</p></div><div style='float: right;padding-right:30px;'><p>Press '0' for B</p> </div> </div></div>","null","","","","","","","","","","","","","",""
"3360","","test","audio-keyboard-response","49","239364","0.0-8.0-1.11","5bdc8d12b2fff7000189b6f8","condA","","resources/audio/wordStim/S3_AI_21_axb_Step-10.wav","48","","","","","AI","resources/audio/wordStim/S3_AI_21_axb_Step-10.wav","S3","21","axb","10","MI","0","0","true"
"null","","fixation","html-keyboard-response","50","240372","0.0-8.0-0.12","5bdc8d12b2fff7000189b6f8","condA","","<div class=""vertical-center"" style='width:60%;'><p style='font-weight:bold;'>Does the middle word sound more like the first word (A) or the last word (B)?</p> <br> <div class=""container""> <div id=""a-box""> <p class=""title-text"">A</h3></p> </div> <div id=""x-box""> <p class=""title-text"">X<p> </div> <div id=""b-box""> <p class=""title-text"">B</p></div> <br> <div style='float: left;padding-left:30px;'><p>Press '1' for A</p></div><div style='float: right;padding-right:30px;'><p>Press '0' for B</p> </div> </div></div>","null","","","","","","","","","","","","","",""
"3349","","test","audio-keyboard-response","51","243718","0.0-8.0-1.12","5bdc8d12b2fff7000189b6f8","condA","","resources/audio/wordStim/S9_AI_22_bxa_Step-4.wav","48","","","","","AI","resources/audio/wordStim/S9_AI_22_bxa_Step-4.wav","S9","22","bxa","4","CN","1","0","false"
"null","","fixation","html-keyboard-response","52","244728","0.0-8.0-0.13","5bdc8d12b2fff7000189b6f8","condA","","<div class=""vertical-center"" style='width:60%;'><p style='font-weight:bold;'>Does the middle word sound more like the first word (A) or the last word (B)?</p> <br> <div class=""container""> <div id=""a-box""> <p class=""title-text"">A</h3></p> </div> <div id=""x-box""> <p class=""title-text"">X<p> </div> <div id=""b-box""> <p class=""title-text"">B</p></div> <br> <div style='float: left;padding-left:30px;'><p>Press '1' for A</p></div><div style='float: right;padding-right:30px;'><p>Press '0' for B</p> </div> </div></div>","null","","","","","","","","","","","","","",""
"3320","","test","audio-keyboard-response","53","248048","0.0-8.0-1.13","5bdc8d12b2fff7000189b6f8","condA","","resources/audio/wordStim/S3_AU_18_bxa_Step-6.wav","48","","","","","AU","resources/audio/wordStim/S3_AU_18_bxa_Step-6.wav","S3","18","bxa","6","MI","1","0","false"
"null","","fixation","html-keyboard-response","54","249055","0.0-8.0-0.14","5bdc8d12b2fff7000189b6f8","condA","","<div class=""vertical-center"" style='width:60%;'><p style='font-weight:bold;'>Does the middle word sound more like the first word (A) or the last word (B)?</p> <br> <div class=""container""> <div id=""a-box""> <p class=""title-text"">A</h3></p> </div> <div id=""x-box""> <p class=""title-text"">X<p> </div> <div id=""b-box""> <p class=""title-text"">B</p></div> <br> <div style='float: left;padding-left:30px;'><p>Press '1' for A</p></div><div style='float: right;padding-right:30px;'><p>Press '0' for B</p> </div> </div></div>","null","","","","","","","","","","","","","",""
"3021","","test","audio-keyboard-response","55","252083","0.0-8.0-1.14","5bdc8d12b2fff7000189b6f8","condA","","resources/audio/wordStim/S3_AI_30_axb_Step-9.wav","48","","","","","AI","resources/audio/wordStim/S3_AI_30_axb_Step-9.wav","S3","30","axb","9","MI","0","0","true"
"null","","fixation","html-keyboard-response","56","253087","0.0-8.0-0.15","5bdc8d12b2fff7000189b6f8","condA","","<div class=""vertical-center"" style='width:60%;'><p style='font-weight:bold;'>Does the middle word sound more like the first word (A) or the last word (B)?</p> <br> <div class=""container""> <div id=""a-box""> <p class=""title-text"">A</h3></p> </div> <div id=""x-box""> <p class=""title-text"">X<p> </div> <div id=""b-box""> <p class=""title-text"">B</p></div> <br> <div style='float: left;padding-left:30px;'><p>Press '1' for A</p></div><div style='float: right;padding-right:30px;'><p>Press '0' for B</p> </div> </div></div>","null","","","","","","","","","","","","","",""
"3899","","test","audio-keyboard-response","57","256991","0.0-8.0-1.15","5bdc8d12b2fff7000189b6f8","condA","","resources/audio/wordStim/S9_AI_24_bxa_Step-8.wav","48","","","","","AI","resources/audio/wordStim/S9_AI_24_bxa_Step-8.wav","S9","24","bxa","8","CN","1","0","false"
"null","","fixation","html-keyboard-response","58","257996","0.0-8.0-0.16","5bdc8d12b2fff7000189b6f8","condA","","<div class=""vertical-center"" style='width:60%;'><p style='font-weight:bold;'>Does the middle word sound more like the first word (A) or the last word (B)?</p> <br> <div class=""container""> <div id=""a-box""> <p class=""title-text"">A</h3></p> </div> <div id=""x-box""> <p class=""title-text"">X<p> </div> <div id=""b-box""> <p class=""title-text"">B</p></div> <br> <div style='float: left;padding-left:30px;'><p>Press '1' for A</p></div><div style='float: right;padding-right:30px;'><p>Press '0' for B</p> </div> </div></div>","null","","","","","","","","","","","","","",""
"3179","","test","audio-keyboard-response","59","261180","0.0-8.0-1.16","5bdc8d12b2fff7000189b6f8","condA","","resources/audio/wordStim/S9_AI_25_bxa_Step-4.wav","49","","","","","AI","resources/audio/wordStim/S9_AI_25_bxa_Step-4.wav","S9","25","bxa","4","CN","1","1","true"
"null","","fixation","html-keyboard-response","60","262187","0.0-8.0-0.17","5bdc8d12b2fff7000189b6f8","condA","","<div class=""vertical-center"" style='width:60%;'><p style='font-weight:bold;'>Does the middle word sound more like the first word (A) or the last word (B)?</p> <br> <div class=""container""> <div id=""a-box""> <p class=""title-text"">A</h3></p> </div> <div id=""x-box""> <p class=""title-text"">X<p> </div> <div id=""b-box""> <p class=""title-text"">B</p></div> <br> <div style='float: left;padding-left:30px;'><p>Press '1' for A</p></div><div style='float: right;padding-right:30px;'><p>Press '0' for B</p> </div> </div></div>","null","","","","","","","","","","","","","",""
"2971","","test","audio-keyboard-response","61","265164","0.0-8.0-1.17","5bdc8d12b2fff7000189b6f8","condA","","resources/audio/wordStim/S3_AI_29_axb_Step-3.wav","48","","","","","AI","resources/audio/wordStim/S3_AI_29_axb_Step-3.wav","S3","29","axb","3","MI","0","0","true"
"null","","fixation","html-keyboard-response","62","266168","0.0-8.0-0.18","5bdc8d12b2fff7000189b6f8","condA","","<div class=""vertical-center"" style='width:60%;'><p style='font-weight:bold;'>Does the middle word sound more like the first word (A) or the last word (B)?</p> <br> <div class=""container""> <div id=""a-box""> <p class=""title-text"">A</h3></p> </div> <div id=""x-box""> <p class=""title-text"">X<p> </div> <div id=""b-box""> <p class=""title-text"">B</p></div> <br> <div style='float: left;padding-left:30px;'><p>Press '1' for A</p></div><div style='float: right;padding-right:30px;'><p>Press '0' for B</p> </div> </div></div>","null","","","","","","","","","","","","","",""
"2888","","test","audio-keyboard-response","63","269058","0.0-8.0-1.18","5bdc8d12b2fff7000189b6f8","condA","","resources/audio/wordStim/S3_AU_11_axb_Step-10.wav","49","","","","","AU","resources/audio/wordStim/S3_AU_11_axb_Step-10.wav","S3","11","axb","10","MI","0","1","false"
"null","","fixation","html-keyboard-response","64","270064","0.0-8.0-0.19","5bdc8d12b2fff7000189b6f8","condA","","<div class=""vertical-center"" style='width:60%;'><p style='font-weight:bold;'>Does the middle word sound more like the first word (A) or the last word (B)?</p> <br> <div class=""container""> <div id=""a-box""> <p class=""title-text"">A</h3></p> </div> <div id=""x-box""> <p class=""title-text"">X<p> </div> <div id=""b-box""> <p class=""title-text"">B</p></div> <br> <div style='float: left;padding-left:30px;'><p>Press '1' for A</p></div><div style='float: right;padding-right:30px;'><p>Press '0' for B</p> </div> </div></div>","null","","","","","","","","","","","","","",""
"3509","","test","audio-keyboard-response","65","273579","0.0-8.0-1.19","5bdc8d12b2fff7000189b6f8","condA","","resources/audio/wordStim/S9_AU_19_axb_Step-7.wav","48","","","","","AU","resources/audio/wordStim/S9_AU_19_axb_Step-7.wav","S9","19","axb","7","CN","0","0","true"
"null","","fixation","html-keyboard-response","66","274583","0.0-8.0-0.20","5bdc8d12b2fff7000189b6f8","condA","","<div class=""vertical-center"" style='width:60%;'><p style='font-weight:bold;'>Does the middle word sound more like the first word (A) or the last word (B)?</p> <br> <div class=""container""> <div id=""a-box""> <p class=""title-text"">A</h3></p> </div> <div id=""x-box""> <p class=""title-text"">X<p> </div> <div id=""b-box""> <p class=""title-text"">B</p></div> <br> <div style='float: left;padding-left:30px;'><p>Press '1' for A</p></div><div style='float: right;padding-right:30px;'><p>Press '0' for B</p> </div> </div></div>","null","","","","","","","","","","","","","",""
"3301","","test","audio-keyboard-response","67","277886","0.0-8.0-1.20","5bdc8d12b2fff7000189b6f8","condA","","resources/audio/wordStim/S9_AU_14_axb_Step-9.wav","48","","","","","AU","resources/audio/wordStim/S9_AU_14_axb_Step-9.wav","S9","14","axb","9","CN","0","0","true"
"null","","fixation","html-keyboard-response","68","278893","0.0-8.0-0.21","5bdc8d12b2fff7000189b6f8","condA","","<div class=""vertical-center"" style='width:60%;'><p style='font-weight:bold;'>Does the middle word sound more like the first word (A) or the last word (B)?</p> <br> <div class=""container""> <div id=""a-box""> <p class=""title-text"">A</h3></p> </div> <div id=""x-box""> <p class=""title-text"">X<p> </div> <div id=""b-box""> <p class=""title-text"">B</p></div> <br> <div style='float: left;padding-left:30px;'><p>Press '1' for A</p></div><div style='float: right;padding-right:30px;'><p>Press '0' for B</p> </div> </div></div>","null","","","","","","","","","","","","","",""
"2259","","test","audio-keyboard-response","69","281151","0.0-8.0-1.21","5bdc8d12b2fff7000189b6f8","condA","","resources/audio/wordStim/S3_AI_21_axb_Step-3.wav","48","","","","","AI","resources/audio/wordStim/S3_AI_21_axb_Step-3.wav","S3","21","axb","3","MI","0","0","true"
"null","","fixation","html-keyboard-response","70","282155","0.0-8.0-0.22","5bdc8d12b2fff7000189b6f8","condA","","<div class=""vertical-center"" style='width:60%;'><p style='font-weight:bold;'>Does the middle word sound more like the first word (A) or the last word (B)?</p> <br> <div class=""container""> <div id=""a-box""> <p class=""title-text"">A</h3></p> </div> <div id=""x-box""> <p class=""title-text"">X<p> </div> <div id=""b-box""> <p class=""title-text"">B</p></div> <br> <div style='float: left;padding-left:30px;'><p>Press '1' for A</p></div><div style='float: right;padding-right:30px;'><p>Press '0' for B</p> </div> </div></div>","null","","","","","","","","","","","","","",""
"3160","","test","audio-keyboard-response","71","285324","0.0-8.0-1.22","5bdc8d12b2fff7000189b6f8","condA","","resources/audio/wordStim/S9_AI_22_bxa_Step-2.wav","48","","","","","AI","resources/audio/wordStim/S9_AI_22_bxa_Step-2.wav","S9","22","bxa","2","CN","1","0","false"
"null","","fixation","html-keyboard-response","72","286328","0.0-8.0-0.23","5bdc8d12b2fff7000189b6f8","condA","","<div class=""vertical-center"" style='width:60%;'><p style='font-weight:bold;'>Does the middle word sound more like the first word (A) or the last word (B)?</p> <br> <div class=""container""> <div id=""a-box""> <p class=""title-text"">A</h3></p> </div> <div id=""x-box""> <p class=""title-text"">X<p> </div> <div id=""b-box""> <p class=""title-text"">B</p></div> <br> <div style='float: left;padding-left:30px;'><p>Press '1' for A</p></div><div style='float: right;padding-right:30px;'><p>Press '0' for B</p> </div> </div></div>","null","","","","","","","","","","","","","",""
"3299","","test","audio-keyboard-response","73","289637","0.0-8.0-1.23","5bdc8d12b2fff7000189b6f8","condA","","resources/audio/wordStim/S3_AU_19_axb_Step-3.wav","49","","","","","AU","resources/audio/wordStim/S3_AU_19_axb_Step-3.wav","S3","19","axb","3","MI","0","1","false"
"null","","fixation","html-keyboard-response","74","290645","0.0-8.0-0.24","5bdc8d12b2fff7000189b6f8","condA","","<div class=""vertical-center"" style='width:60%;'><p style='font-weight:bold;'>Does the middle word sound more like the first word (A) or the last word (B)?</p> <br> <div class=""container""> <div id=""a-box""> <p class=""title-text"">A</h3></p> </div> <div id=""x-box""> <p class=""title-text"">X<p> </div> <div id=""b-box""> <p class=""title-text"">B</p></div> <br> <div style='float: left;padding-left:30px;'><p>Press '1' for A</p></div><div style='float: right;padding-right:30px;'><p>Press '0' for B</p> </div> </div></div>","null","","","","","","","","","","","","","",""
"2819","","test","audio-keyboard-response","75","293468","0.0-8.0-1.24","5bdc8d12b2fff7000189b6f8","condA","","resources/audio/wordStim/S9_AI_23_axb_Step-9.wav","48","","","","","AI","resources/audio/wordStim/S9_AI_23_axb_Step-9.wav","S9","23","axb","9","CN","0","0","true"
"null","","fixation","html-keyboard-response","76","294480","0.0-8.0-0.25","5bdc8d12b2fff7000189b6f8","condA","","<div class=""vertical-center"" style='width:60%;'><p style='font-weight:bold;'>Does the middle word sound more like the first word (A) or the last word (B)?</p> <br> <div class=""container""> <div id=""a-box""> <p class=""title-text"">A</h3></p> </div> <div id=""x-box""> <p class=""title-text"">X<p> </div> <div id=""b-box""> <p class=""title-text"">B</p></div> <br> <div style='float: left;padding-left:30px;'><p>Press '1' for A</p></div><div style='float: right;padding-right:30px;'><p>Press '0' for B</p> </div> </div></div>","null","","","","","","","","","","","","","",""
"3640","","test","audio-keyboard-response","77","298123","0.0-8.0-1.25","5bdc8d12b2fff7000189b6f8","condA","","resources/audio/wordStim/S9_AU_18_bxa_Step-4.wav","49","","","","","AU","resources/audio/wordStim/S9_AU_18_bxa_Step-4.wav","S9","18","bxa","4","CN","1","1","true"
"null","","fixation","html-keyboard-response","78","299128","0.0-8.0-0.26","5bdc8d12b2fff7000189b6f8","condA","","<div class=""vertical-center"" style='width:60%;'><p style='font-weight:bold;'>Does the middle word sound more like the first word (A) or the last word (B)?</p> <br> <div class=""container""> <div id=""a-box""> <p class=""title-text"">A</h3></p> </div> <div id=""x-box""> <p class=""title-text"">X<p> </div> <div id=""b-box""> <p class=""title-text"">B</p></div> <br> <div style='float: left;padding-left:30px;'><p>Press '1' for A</p></div><div style='float: right;padding-right:30px;'><p>Press '0' for B</p> </div> </div></div>","null","","","","","","","","","","","","","",""
"3389","","test","audio-keyboard-response","79","302517","0.0-8.0-1.26","5bdc8d12b2fff7000189b6f8","condA","","resources/audio/wordStim/S9_AU_11_bxa_Step-6.wav","48","","","","","AU","resources/audio/wordStim/S9_AU_11_bxa_Step-6.wav","S9","11","bxa","6","CN","1","0","false"
"2488.2999999681488","","break","html-keyboard-response","80","305508","0.0-8.0-2.26-0.26","5bdc8d12b2fff7000189b6f8","condA","","<div class=""vertical-center""><p>Feel free to take a break!</p><i>When you're ready to continue, press SPACE to begin the next trial.</i></p></div>","32","","","","","","","","","","","","","",""
"null","","fixation","html-keyboard-response","81","306011","0.0-8.0-0.27","5bdc8d12b2fff7000189b6f8","condA","","<div class=""vertical-center"" style='width:60%;'><p style='font-weight:bold;'>Does the middle word sound more like the first word (A) or the last word (B)?</p> <br> <div class=""container""> <div id=""a-box""> <p class=""title-text"">A</h3></p> </div> <div id=""x-box""> <p class=""title-text"">X<p> </div> <div id=""b-box""> <p class=""title-text"">B</p></div> <br> <div style='float: left;padding-left:30px;'><p>Press '1' for A</p></div><div style='float: right;padding-right:30px;'><p>Press '0' for B</p> </div> </div></div>","null","","","","","","","","","","","","","",""
"3128","","test","audio-keyboard-response","82","309137","0.0-8.0-1.27","5bdc8d12b2fff7000189b6f8","condA","","resources/audio/wordStim/S9_AI_22_axb_Step-7.wav","48","","","","","AI","resources/audio/wordStim/S9_AI_22_axb_Step-7.wav","S9","22","axb","7","CN","0","0","true"
"null","","fixation","html-keyboard-response","83","310143","0.0-8.0-0.28","5bdc8d12b2fff7000189b6f8","condA","","<div class=""vertical-center"" style='width:60%;'><p style='font-weight:bold;'>Does the middle word sound more like the first word (A) or the last word (B)?</p> <br> <div class=""container""> <div id=""a-box""> <p class=""title-text"">A</h3></p> </div> <div id=""x-box""> <p class=""title-text"">X<p> </div> <div id=""b-box""> <p class=""title-text"">B</p></div> <br> <div style='float: left;padding-left:30px;'><p>Press '1' for A</p></div><div style='float: right;padding-right:30px;'><p>Press '0' for B</p> </div> </div></div>","null","","","","","","","","","","","","","",""
"2851","","test","audio-keyboard-response","84","313006","0.0-8.0-1.28","5bdc8d12b2fff7000189b6f8","condA","","resources/audio/wordStim/S9_AI_25_axb_Step-10.wav","48","","","","","AI","resources/audio/wordStim/S9_AI_25_axb_Step-10.wav","S9","25","axb","10","CN","0","0","true"
"null","","fixation","html-keyboard-response","85","314013","0.0-8.0-0.29","5bdc8d12b2fff7000189b6f8","condA","","<div class=""vertical-center"" style='width:60%;'><p style='font-weight:bold;'>Does the middle word sound more like the first word (A) or the last word (B)?</p> <br> <div class=""container""> <div id=""a-box""> <p class=""title-text"">A</h3></p> </div> <div id=""x-box""> <p class=""title-text"">X<p> </div> <div id=""b-box""> <p class=""title-text"">B</p></div> <br> <div style='float: left;padding-left:30px;'><p>Press '1' for A</p></div><div style='float: right;padding-right:30px;'><p>Press '0' for B</p> </div> </div></div>","null","","","","","","","","","","","","","",""
"3440","","test","audio-keyboard-response","86","317456","0.0-8.0-1.29","5bdc8d12b2fff7000189b6f8","condA","","resources/audio/wordStim/S3_AU_14_bxa_Step-6.wav","48","","","","","AU","resources/audio/wordStim/S3_AU_14_bxa_Step-6.wav","S3","14","bxa","6","MI","1","0","false"
"null","","fixation","html-keyboard-response","87","318461","0.0-8.0-0.30","5bdc8d12b2fff7000189b6f8","condA","","<div class=""vertical-center"" style='width:60%;'><p style='font-weight:bold;'>Does the middle word sound more like the first word (A) or the last word (B)?</p> <br> <div class=""container""> <div id=""a-box""> <p class=""title-text"">A</h3></p> </div> <div id=""x-box""> <p class=""title-text"">X<p> </div> <div id=""b-box""> <p class=""title-text"">B</p></div> <br> <div style='float: left;padding-left:30px;'><p>Press '1' for A</p></div><div style='float: right;padding-right:30px;'><p>Press '0' for B</p> </div> </div></div>","null","","","","","","","","","","","","","",""
"3592","","test","audio-keyboard-response","88","322053","0.0-8.0-1.30","5bdc8d12b2fff7000189b6f8","condA","","resources/audio/wordStim/S9_AU_17_axb_Step-10.wav","49","","","","","AU","resources/audio/wordStim/S9_AU_17_axb_Step-10.wav","S9","17","axb","10","CN","0","1","false"
"null","","fixation","html-keyboard-response","89","323057","0.0-8.0-0.31","5bdc8d12b2fff7000189b6f8","condA","","<div class=""vertical-center"" style='width:60%;'><p style='font-weight:bold;'>Does the middle word sound more like the first word (A) or the last word (B)?</p> <br> <div class=""container""> <div id=""a-box""> <p class=""title-text"">A</h3></p> </div> <div id=""x-box""> <p class=""title-text"">X<p> </div> <div id=""b-box""> <p class=""title-text"">B</p></div> <br> <div style='float: left;padding-left:30px;'><p>Press '1' for A</p></div><div style='float: right;padding-right:30px;'><p>Press '0' for B</p> </div> </div></div>","null","","","","","","","","","","","","","",""
"4152","","test","audio-keyboard-response","90","327212","0.0-8.0-1.31","5bdc8d12b2fff7000189b6f8","condA","","resources/audio/wordStim/S9_AU_13_bxa_Step-2.wav","49","","","","","AU","resources/audio/wordStim/S9_AU_13_bxa_Step-2.wav","S9","13","bxa","2","CN","1","1","true"
"null","","fixation","html-keyboard-response","91","328221","0.0-8.0-0.32","5bdc8d12b2fff7000189b6f8","condA","","<div class=""vertical-center"" style='width:60%;'><p style='font-weight:bold;'>Does the middle word sound more like the first word (A) or the last word (B)?</p> <br> <div class=""container""> <div id=""a-box""> <p class=""title-text"">A</h3></p> </div> <div id=""x-box""> <p class=""title-text"">X<p> </div> <div id=""b-box""> <p class=""title-text"">B</p></div> <br> <div style='float: left;padding-left:30px;'><p>Press '1' for A</p></div><div style='float: right;padding-right:30px;'><p>Press '0' for B</p> </div> </div></div>","null","","","","","","","","","","","","","",""
"2901","","test","audio-keyboard-response","92","331126","0.0-8.0-1.32","5bdc8d12b2fff7000189b6f8","condA","","resources/audio/wordStim/S3_AU_11_bxa_Step-8.wav","48","","","","","AU","resources/audio/wordStim/S3_AU_11_bxa_Step-8.wav","S3","11","bxa","8","MI","1","0","false"
"null","","fixation","html-keyboard-response","93","332133","0.0-8.0-0.33","5bdc8d12b2fff7000189b6f8","condA","","<div class=""vertical-center"" style='width:60%;'><p style='font-weight:bold;'>Does the middle word sound more like the first word (A) or the last word (B)?</p> <br> <div class=""container""> <div id=""a-box""> <p class=""title-text"">A</h3></p> </div> <div id=""x-box""> <p class=""title-text"">X<p> </div> <div id=""b-box""> <p class=""title-text"">B</p></div> <br> <div style='float: left;padding-left:30px;'><p>Press '1' for A</p></div><div style='float: right;padding-right:30px;'><p>Press '0' for B</p> </div> </div></div>","null","","","","","","","","","","","","","",""
"3232","","test","audio-keyboard-response","94","335371","0.0-8.0-1.33","5bdc8d12b2fff7000189b6f8","condA","","resources/audio/wordStim/S9_AU_11_axb_Step-3.wav","48","","","","","AU","resources/audio/wordStim/S9_AU_11_axb_Step-3.wav","S9","11","axb","3","CN","0","0","true"
"null","","fixation","html-keyboard-response","95","336378","0.0-8.0-0.34","5bdc8d12b2fff7000189b6f8","condA","","<div class=""vertical-center"" style='width:60%;'><p style='font-weight:bold;'>Does the middle word sound more like the first word (A) or the last word (B)?</p> <br> <div class=""container""> <div id=""a-box""> <p class=""title-text"">A</h3></p> </div> <div id=""x-box""> <p class=""title-text"">X<p> </div> <div id=""b-box""> <p class=""title-text"">B</p></div> <br> <div style='float: left;padding-left:30px;'><p>Press '1' for A</p></div><div style='float: right;padding-right:30px;'><p>Press '0' for B</p> </div> </div></div>","null","","","","","","","","","","","","","",""
"3080","","test","audio-keyboard-response","96","339458","0.0-8.0-1.34","5bdc8d12b2fff7000189b6f8","condA","","resources/audio/wordStim/S9_AU_18_axb_Step-9.wav","48","","","","","AU","resources/audio/wordStim/S9_AU_18_axb_Step-9.wav","S9","18","axb","9","CN","0","0","true"
"null","","fixation","html-keyboard-response","97","340464","0.0-8.0-0.35","5bdc8d12b2fff7000189b6f8","condA","","<div class=""vertical-center"" style='width:60%;'><p style='font-weight:bold;'>Does the middle word sound more like the first word (A) or the last word (B)?</p> <br> <div class=""container""> <div id=""a-box""> <p class=""title-text"">A</h3></p> </div> <div id=""x-box""> <p class=""title-text"">X<p> </div> <div id=""b-box""> <p class=""title-text"">B</p></div> <br> <div style='float: left;padding-left:30px;'><p>Press '1' for A</p></div><div style='float: right;padding-right:30px;'><p>Press '0' for B</p> </div> </div></div>","null","","","","","","","","","","","","","",""
"4029","","test","audio-keyboard-response","98","344498","0.0-8.0-1.35","5bdc8d12b2fff7000189b6f8","condA","","resources/audio/wordStim/S3_AI_29_axb_Step-9.wav","49","","","","","AI","resources/audio/wordStim/S3_AI_29_axb_Step-9.wav","S3","29","axb","9","MI","0","1","false"
"null","","fixation","html-keyboard-response","99","345503","0.0-8.0-0.36","5bdc8d12b2fff7000189b6f8","condA","","<div class=""vertical-center"" style='width:60%;'><p style='font-weight:bold;'>Does the middle word sound more like the first word (A) or the last word (B)?</p> <br> <div class=""container""> <div id=""a-box""> <p class=""title-text"">A</h3></p> </div> <div id=""x-box""> <p class=""title-text"">X<p> </div> <div id=""b-box""> <p class=""title-text"">B</p></div> <br> <div style='float: left;padding-left:30px;'><p>Press '1' for A</p></div><div style='float: right;padding-right:30px;'><p>Press '0' for B</p> </div> </div></div>","null","","","","","","","","","","","","","",""
"3600","","test","audio-keyboard-response","100","349115","0.0-8.0-1.36","5bdc8d12b2fff7000189b6f8","condA","","resources/audio/wordStim/S3_AU_16_axb_Step-10.wav","48","","","","","AU","resources/audio/wordStim/S3_AU_16_axb_Step-10.wav","S3","16","axb","10","MI","0","0","true"
"null","","fixation","html-keyboard-response","101","350126","0.0-8.0-0.37","5bdc8d12b2fff7000189b6f8","condA","","<div class=""vertical-center"" style='width:60%;'><p style='font-weight:bold;'>Does the middle word sound more like the first word (A) or the last word (B)?</p> <br> <div class=""container""> <div id=""a-box""> <p class=""title-text"">A</h3></p> </div> <div id=""x-box""> <p class=""title-text"">X<p> </div> <div id=""b-box""> <p class=""title-text"">B</p></div> <br> <div style='float: left;padding-left:30px;'><p>Press '1' for A</p></div><div style='float: right;padding-right:30px;'><p>Press '0' for B</p> </div> </div></div>","null","","","","","","","","","","","","","",""
"2939","","test","audio-keyboard-response","102","353075","0.0-8.0-1.37","5bdc8d12b2fff7000189b6f8","condA","","resources/audio/wordStim/S9_AI_23_axb_Step-10.wav","48","","","","","AI","resources/audio/wordStim/S9_AI_23_axb_Step-10.wav","S9","23","axb","10","CN","0","0","true"
"null","","fixation","html-keyboard-response","103","354079","0.0-8.0-0.38","5bdc8d12b2fff7000189b6f8","condA","","<div class=""vertical-center"" style='width:60%;'><p style='font-weight:bold;'>Does the middle word sound more like the first word (A) or the last word (B)?</p> <br> <div class=""container""> <div id=""a-box""> <p class=""title-text"">A</h3></p> </div> <div id=""x-box""> <p class=""title-text"">X<p> </div> <div id=""b-box""> <p class=""title-text"">B</p></div> <br> <div style='float: left;padding-left:30px;'><p>Press '1' for A</p></div><div style='float: right;padding-right:30px;'><p>Press '0' for B</p> </div> </div></div>","null","","","","","","","","","","","","","",""
"3189","","test","audio-keyboard-response","104","357274","0.0-8.0-1.38","5bdc8d12b2fff7000189b6f8","condA","","resources/audio/wordStim/S9_AI_29_bxa_Step-2.wav","49","","","","","AI","resources/audio/wordStim/S9_AI_29_bxa_Step-2.wav","S9","29","bxa","2","CN","1","1","true"
"null","","fixation","html-keyboard-response","105","358282","0.0-8.0-0.39","5bdc8d12b2fff7000189b6f8","condA","","<div class=""vertical-center"" style='width:60%;'><p style='font-weight:bold;'>Does the middle word sound more like the first word (A) or the last word (B)?</p> <br> <div class=""container""> <div id=""a-box""> <p class=""title-text"">A</h3></p> </div> <div id=""x-box""> <p class=""title-text"">X<p> </div> <div id=""b-box""> <p class=""title-text"">B</p></div> <br> <div style='float: left;padding-left:30px;'><p>Press '1' for A</p></div><div style='float: right;padding-right:30px;'><p>Press '0' for B</p> </div> </div></div>","null","","","","","","","","","","","","","",""
"3131","","test","audio-keyboard-response","106","361407","0.0-8.0-1.39","5bdc8d12b2fff7000189b6f8","condA","","resources/audio/wordStim/S9_AU_20_bxa_Step-2.wav","48","","","","","AU","resources/audio/wordStim/S9_AU_20_bxa_Step-2.wav","S9","20","bxa","2","CN","1","0","false"
"null","","fixation","html-keyboard-response","107","362414","0.0-8.0-0.40","5bdc8d12b2fff7000189b6f8","condA","","<div class=""vertical-center"" style='width:60%;'><p style='font-weight:bold;'>Does the middle word sound more like the first word (A) or the last word (B)?</p> <br> <div class=""container""> <div id=""a-box""> <p class=""title-text"">A</h3></p> </div> <div id=""x-box""> <p class=""title-text"">X<p> </div> <div id=""b-box""> <p class=""title-text"">B</p></div> <br> <div style='float: left;padding-left:30px;'><p>Press '1' for A</p></div><div style='float: right;padding-right:30px;'><p>Press '0' for B</p> </div> </div></div>","null","","","","","","","","","","","","","",""
"2880","","test","audio-keyboard-response","108","365303","0.0-8.0-1.40","5bdc8d12b2fff7000189b6f8","condA","","resources/audio/wordStim/S3_AI_23_bxa_Step-2.wav","48","","","","","AI","resources/audio/wordStim/S3_AI_23_bxa_Step-2.wav","S3","23","bxa","2","MI","1","0","false"
"null","","fixation","html-keyboard-response","109","366311","0.0-8.0-0.41","5bdc8d12b2fff7000189b6f8","condA","","<div class=""vertical-center"" style='width:60%;'><p style='font-weight:bold;'>Does the middle word sound more like the first word (A) or the last word (B)?</p> <br> <div class=""container""> <div id=""a-box""> <p class=""title-text"">A</h3></p> </div> <div id=""x-box""> <p class=""title-text"">X<p> </div> <div id=""b-box""> <p class=""title-text"">B</p></div> <br> <div style='float: left;padding-left:30px;'><p>Press '1' for A</p></div><div style='float: right;padding-right:30px;'><p>Press '0' for B</p> </div> </div></div>","null","","","","","","","","","","","","","",""
"2371","","test","audio-keyboard-response","110","368680","0.0-8.0-1.41","5bdc8d12b2fff7000189b6f8","condA","","resources/audio/wordStim/S3_AI_21_bxa_Step-8.wav","49","","","","","AI","resources/audio/wordStim/S3_AI_21_bxa_Step-8.wav","S3","21","bxa","8","MI","1","1","true"
"null","","fixation","html-keyboard-response","111","369687","0.0-8.0-0.42","5bdc8d12b2fff7000189b6f8","condA","","<div class=""vertical-center"" style='width:60%;'><p style='font-weight:bold;'>Does the middle word sound more like the first word (A) or the last word (B)?</p> <br> <div class=""container""> <div id=""a-box""> <p class=""title-text"">A</h3></p> </div> <div id=""x-box""> <p class=""title-text"">X<p> </div> <div id=""b-box""> <p class=""title-text"">B</p></div> <br> <div style='float: left;padding-left:30px;'><p>Press '1' for A</p></div><div style='float: right;padding-right:30px;'><p>Press '0' for B</p> </div> </div></div>","null","","","","","","","","","","","","","",""
"3299","","test","audio-keyboard-response","112","372990","0.0-8.0-1.42","5bdc8d12b2fff7000189b6f8","condA","","resources/audio/wordStim/S9_AU_20_axb_Step-5.wav","48","","","","","AU","resources/audio/wordStim/S9_AU_20_axb_Step-5.wav","S9","20","axb","5","CN","0","0","true"
"null","","fixation","html-keyboard-response","113","373996","0.0-8.0-0.43","5bdc8d12b2fff7000189b6f8","condA","","<div class=""vertical-center"" style='width:60%;'><p style='font-weight:bold;'>Does the middle word sound more like the first word (A) or the last word (B)?</p> <br> <div class=""container""> <div id=""a-box""> <p class=""title-text"">A</h3></p> </div> <div id=""x-box""> <p class=""title-text"">X<p> </div> <div id=""b-box""> <p class=""title-text"">B</p></div> <br> <div style='float: left;padding-left:30px;'><p>Press '1' for A</p></div><div style='float: right;padding-right:30px;'><p>Press '0' for B</p> </div> </div></div>","null","","","","","","","","","","","","","",""
"2640","","test","audio-keyboard-response","114","376646","0.0-8.0-1.43","5bdc8d12b2fff7000189b6f8","condA","","resources/audio/wordStim/S9_AU_20_bxa_Step-4.wav","48","","","","","AU","resources/audio/wordStim/S9_AU_20_bxa_Step-4.wav","S9","20","bxa","4","CN","1","0","false"
"null","","fixation","html-keyboard-response","115","377655","0.0-8.0-0.44","5bdc8d12b2fff7000189b6f8","condA","","<div class=""vertical-center"" style='width:60%;'><p style='font-weight:bold;'>Does the middle word sound more like the first word (A) or the last word (B)?</p> <br> <div class=""container""> <div id=""a-box""> <p class=""title-text"">A</h3></p> </div> <div id=""x-box""> <p class=""title-text"">X<p> </div> <div id=""b-box""> <p class=""title-text"">B</p></div> <br> <div style='float: left;padding-left:30px;'><p>Press '1' for A</p></div><div style='float: right;padding-right:30px;'><p>Press '0' for B</p> </div> </div></div>","null","","","","","","","","","","","","","",""
"3741","","test","audio-keyboard-response","116","381399","0.0-8.0-1.44","5bdc8d12b2fff7000189b6f8","condA","","resources/audio/wordStim/S3_AU_16_bxa_Step-2.wav","49","","","","","AU","resources/audio/wordStim/S3_AU_16_bxa_Step-2.wav","S3","16","bxa","2","MI","1","1","true"
"null","","fixation","html-keyboard-response","117","382408","0.0-8.0-0.45","5bdc8d12b2fff7000189b6f8","condA","","<div class=""vertical-center"" style='width:60%;'><p style='font-weight:bold;'>Does the middle word sound more like the first word (A) or the last word (B)?</p> <br> <div class=""container""> <div id=""a-box""> <p class=""title-text"">A</h3></p> </div> <div id=""x-box""> <p class=""title-text"">X<p> </div> <div id=""b-box""> <p class=""title-text"">B</p></div> <br> <div style='float: left;padding-left:30px;'><p>Press '1' for A</p></div><div style='float: right;padding-right:30px;'><p>Press '0' for B</p> </div> </div></div>","null","","","","","","","","","","","","","",""
"3208","","test","audio-keyboard-response","118","385625","0.0-8.0-1.45","5bdc8d12b2fff7000189b6f8","condA","","resources/audio/wordStim/S9_AI_23_bxa_Step-4.wav","49","","","","","AI","resources/audio/wordStim/S9_AI_23_bxa_Step-4.wav","S9","23","bxa","4","CN","1","1","true"
"null","","fixation","html-keyboard-response","119","386630","0.0-8.0-0.46","5bdc8d12b2fff7000189b6f8","condA","","<div class=""vertical-center"" style='width:60%;'><p style='font-weight:bold;'>Does the middle word sound more like the first word (A) or the last word (B)?</p> <br> <div class=""container""> <div id=""a-box""> <p class=""title-text"">A</h3></p> </div> <div id=""x-box""> <p class=""title-text"">X<p> </div> <div id=""b-box""> <p class=""title-text"">B</p></div> <br> <div style='float: left;padding-left:30px;'><p>Press '1' for A</p></div><div style='float: right;padding-right:30px;'><p>Press '0' for B</p> </div> </div></div>","null","","","","","","","","","","","","","",""
"4120","","test","audio-keyboard-response","120","390752","0.0-8.0-1.46","5bdc8d12b2fff7000189b6f8","condA","","resources/audio/wordStim/S9_AU_17_bxa_Step-4.wav","49","","","","","AU","resources/audio/wordStim/S9_AU_17_bxa_Step-4.wav","S9","17","bxa","4","CN","1","1","true"
"null","","fixation","html-keyboard-response","121","391758","0.0-8.0-0.47","5bdc8d12b2fff7000189b6f8","condA","","<div class=""vertical-center"" style='width:60%;'><p style='font-weight:bold;'>Does the middle word sound more like the first word (A) or the last word (B)?</p> <br> <div class=""container""> <div id=""a-box""> <p class=""title-text"">A</h3></p> </div> <div id=""x-box""> <p class=""title-text"">X<p> </div> <div id=""b-box""> <p class=""title-text"">B</p></div> <br> <div style='float: left;padding-left:30px;'><p>Press '1' for A</p></div><div style='float: right;padding-right:30px;'><p>Press '0' for B</p> </div> </div></div>","null","","","","","","","","","","","","","",""
"2891","","test","audio-keyboard-response","122","394657","0.0-8.0-1.47","5bdc8d12b2fff7000189b6f8","condA","","resources/audio/wordStim/S3_AU_20_axb_Step-7.wav","48","","","","","AU","resources/audio/wordStim/S3_AU_20_axb_Step-7.wav","S3","20","axb","7","MI","0","0","true"
"null","","fixation","html-keyboard-response","123","395664","0.0-8.0-0.48","5bdc8d12b2fff7000189b6f8","condA","","<div class=""vertical-center"" style='width:60%;'><p style='font-weight:bold;'>Does the middle word sound more like the first word (A) or the last word (B)?</p> <br> <div class=""container""> <div id=""a-box""> <p class=""title-text"">A</h3></p> </div> <div id=""x-box""> <p class=""title-text"">X<p> </div> <div id=""b-box""> <p class=""title-text"">B</p></div> <br> <div style='float: left;padding-left:30px;'><p>Press '1' for A</p></div><div style='float: right;padding-right:30px;'><p>Press '0' for B</p> </div> </div></div>","null","","","","","","","","","","","","","",""
"2952","","test","audio-keyboard-response","124","398614","0.0-8.0-1.48","5bdc8d12b2fff7000189b6f8","condA","","resources/audio/wordStim/S3_AI_25_axb_Step-10.wav","48","","","","","AI","resources/audio/wordStim/S3_AI_25_axb_Step-10.wav","S3","25","axb","10","MI","0","0","true"
"null","","fixation","html-keyboard-response","125","399619","0.0-8.0-0.49","5bdc8d12b2fff7000189b6f8","condA","","<div class=""vertical-center"" style='width:60%;'><p style='font-weight:bold;'>Does the middle word sound more like the first word (A) or the last word (B)?</p> <br> <div class=""container""> <div id=""a-box""> <p class=""title-text"">A</h3></p> </div> <div id=""x-box""> <p class=""title-text"">X<p> </div> <div id=""b-box""> <p class=""title-text"">B</p></div> <br> <div style='float: left;padding-left:30px;'><p>Press '1' for A</p></div><div style='float: right;padding-right:30px;'><p>Press '0' for B</p> </div> </div></div>","null","","","","","","","","","","","","","",""
"2941","","test","audio-keyboard-response","126","402558","0.0-8.0-1.49","5bdc8d12b2fff7000189b6f8","condA","","resources/audio/wordStim/S9_AU_16_axb_Step-5.wav","49","","","","","AU","resources/audio/wordStim/S9_AU_16_axb_Step-5.wav","S9","16","axb","5","CN","0","1","false"
"null","","fixation","html-keyboard-response","127","403565","0.0-8.0-0.50","5bdc8d12b2fff7000189b6f8","condA","","<div class=""vertical-center"" style='width:60%;'><p style='font-weight:bold;'>Does the middle word sound more like the first word (A) or the last word (B)?</p> <br> <div class=""container""> <div id=""a-box""> <p class=""title-text"">A</h3></p> </div> <div id=""x-box""> <p class=""title-text"">X<p> </div> <div id=""b-box""> <p class=""title-text"">B</p></div> <br> <div style='float: left;padding-left:30px;'><p>Press '1' for A</p></div><div style='float: right;padding-right:30px;'><p>Press '0' for B</p> </div> </div></div>","null","","","","","","","","","","","","","",""
"2829","","test","audio-keyboard-response","128","406409","0.0-8.0-1.50","5bdc8d12b2fff7000189b6f8","condA","","resources/audio/wordStim/S9_AI_29_axb_Step-9.wav","48","","","","","AI","resources/audio/wordStim/S9_AI_29_axb_Step-9.wav","S9","29","axb","9","CN","0","0","true"
"null","","fixation","html-keyboard-response","129","407418","0.0-8.0-0.51","5bdc8d12b2fff7000189b6f8","condA","","<div class=""vertical-center"" style='width:60%;'><p style='font-weight:bold;'>Does the middle word sound more like the first word (A) or the last word (B)?</p> <br> <div class=""container""> <div id=""a-box""> <p class=""title-text"">A</h3></p> </div> <div id=""x-box""> <p class=""title-text"">X<p> </div> <div id=""b-box""> <p class=""title-text"">B</p></div> <br> <div style='float: left;padding-left:30px;'><p>Press '1' for A</p></div><div style='float: right;padding-right:30px;'><p>Press '0' for B</p> </div> </div></div>","null","","","","","","","","","","","","","",""
"2771","","test","audio-keyboard-response","130","410192","0.0-8.0-1.51","5bdc8d12b2fff7000189b6f8","condA","","resources/audio/wordStim/S3_AU_20_axb_Step-10.wav","49","","","","","AU","resources/audio/wordStim/S3_AU_20_axb_Step-10.wav","S3","20","axb","10","MI","0","1","false"
"null","","fixation","html-keyboard-response","131","411201","0.0-8.0-0.52","5bdc8d12b2fff7000189b6f8","condA","","<div class=""vertical-center"" style='width:60%;'><p style='font-weight:bold;'>Does the middle word sound more like the first word (A) or the last word (B)?</p> <br> <div class=""container""> <div id=""a-box""> <p class=""title-text"">A</h3></p> </div> <div id=""x-box""> <p class=""title-text"">X<p> </div> <div id=""b-box""> <p class=""title-text"">B</p></div> <br> <div style='float: left;padding-left:30px;'><p>Press '1' for A</p></div><div style='float: right;padding-right:30px;'><p>Press '0' for B</p> </div> </div></div>","null","","","","","","","","","","","","","",""
"2939","","test","audio-keyboard-response","132","414143","0.0-8.0-1.52","5bdc8d12b2fff7000189b6f8","condA","","resources/audio/wordStim/S9_AU_13_axb_Step-9.wav","48","","","","","AU","resources/audio/wordStim/S9_AU_13_axb_Step-9.wav","S9","13","axb","9","CN","0","0","true"
"null","","fixation","html-keyboard-response","133","415148","0.0-8.0-0.53","5bdc8d12b2fff7000189b6f8","condA","","<div class=""vertical-center"" style='width:60%;'><p style='font-weight:bold;'>Does the middle word sound more like the first word (A) or the last word (B)?</p> <br> <div class=""container""> <div id=""a-box""> <p class=""title-text"">A</h3></p> </div> <div id=""x-box""> <p class=""title-text"">X<p> </div> <div id=""b-box""> <p class=""title-text"">B</p></div> <br> <div style='float: left;padding-left:30px;'><p>Press '1' for A</p></div><div style='float: right;padding-right:30px;'><p>Press '0' for B</p> </div> </div></div>","null","","","","","","","","","","","","","",""
"2771","","test","audio-keyboard-response","134","417920","0.0-8.0-1.53","5bdc8d12b2fff7000189b6f8","condA","","resources/audio/wordStim/S3_AI_30_bxa_Step-4.wav","48","","","","","AI","resources/audio/wordStim/S3_AI_30_bxa_Step-4.wav","S3","30","bxa","4","MI","1","0","false"
"5161.550000018906","","break","html-keyboard-response","135","423586","0.0-8.0-2.53-0.53","5bdc8d12b2fff7000189b6f8","condA","","<div class=""vertical-center""><p>Feel free to take a break!</p><i>When you're ready to continue, press SPACE to begin the next trial.</i></p></div>","32","","","","","","","","","","","","","",""
"null","","fixation","html-keyboard-response","136","424090","0.0-8.0-0.54","5bdc8d12b2fff7000189b6f8","condA","","<div class=""vertical-center"" style='width:60%;'><p style='font-weight:bold;'>Does the middle word sound more like the first word (A) or the last word (B)?</p> <br> <div class=""container""> <div id=""a-box""> <p class=""title-text"">A</h3></p> </div> <div id=""x-box""> <p class=""title-text"">X<p> </div> <div id=""b-box""> <p class=""title-text"">B</p></div> <br> <div style='float: left;padding-left:30px;'><p>Press '1' for A</p></div><div style='float: right;padding-right:30px;'><p>Press '0' for B</p> </div> </div></div>","null","","","","","","","","","","","","","",""
"2840","","test","audio-keyboard-response","137","426938","0.0-8.0-1.54","5bdc8d12b2fff7000189b6f8","condA","","resources/audio/wordStim/S3_AU_20_bxa_Step-6.wav","49","","","","","AU","resources/audio/wordStim/S3_AU_20_bxa_Step-6.wav","S3","20","bxa","6","MI","1","1","true"
"null","","fixation","html-keyboard-response","138","427944","0.0-8.0-0.55","5bdc8d12b2fff7000189b6f8","condA","","<div class=""vertical-center"" style='width:60%;'><p style='font-weight:bold;'>Does the middle word sound more like the first word (A) or the last word (B)?</p> <br> <div class=""container""> <div id=""a-box""> <p class=""title-text"">A</h3></p> </div> <div id=""x-box""> <p class=""title-text"">X<p> </div> <div id=""b-box""> <p class=""title-text"">B</p></div> <br> <div style='float: left;padding-left:30px;'><p>Press '1' for A</p></div><div style='float: right;padding-right:30px;'><p>Press '0' for B</p> </div> </div></div>","null","","","","","","","","","","","","","",""
"2581","","test","audio-keyboard-response","139","430528","0.0-8.0-1.55","5bdc8d12b2fff7000189b6f8","condA","","resources/audio/wordStim/S9_AU_20_axb_Step-3.wav","48","","","","","AU","resources/audio/wordStim/S9_AU_20_axb_Step-3.wav","S9","20","axb","3","CN","0","0","true"
"null","","fixation","html-keyboard-response","140","431536","0.0-8.0-0.56","5bdc8d12b2fff7000189b6f8","condA","","<div class=""vertical-center"" style='width:60%;'><p style='font-weight:bold;'>Does the middle word sound more like the first word (A) or the last word (B)?</p> <br> <div class=""container""> <div id=""a-box""> <p class=""title-text"">A</h3></p> </div> <div id=""x-box""> <p class=""title-text"">X<p> </div> <div id=""b-box""> <p class=""title-text"">B</p></div> <br> <div style='float: left;padding-left:30px;'><p>Press '1' for A</p></div><div style='float: right;padding-right:30px;'><p>Press '0' for B</p> </div> </div></div>","null","","","","","","","","","","","","","",""
"2701","","test","audio-keyboard-response","141","434245","0.0-8.0-1.56","5bdc8d12b2fff7000189b6f8","condA","","resources/audio/wordStim/S3_AI_23_bxa_Step-4.wav","49","","","","","AI","resources/audio/wordStim/S3_AI_23_bxa_Step-4.wav","S3","23","bxa","4","MI","1","1","true"
"null","","fixation","html-keyboard-response","142","435250","0.0-8.0-0.57","5bdc8d12b2fff7000189b6f8","condA","","<div class=""vertical-center"" style='width:60%;'><p style='font-weight:bold;'>Does the middle word sound more like the first word (A) or the last word (B)?</p> <br> <div class=""container""> <div id=""a-box""> <p class=""title-text"">A</h3></p> </div> <div id=""x-box""> <p class=""title-text"">X<p> </div> <div id=""b-box""> <p class=""title-text"">B</p></div> <br> <div style='float: left;padding-left:30px;'><p>Press '1' for A</p></div><div style='float: right;padding-right:30px;'><p>Press '0' for B</p> </div> </div></div>","null","","","","","","","","","","","","","",""
"3160","","test","audio-keyboard-response","143","438407","0.0-8.0-1.57","5bdc8d12b2fff7000189b6f8","condA","","resources/audio/wordStim/S9_AI_29_axb_Step-10.wav","49","","","","","AI","resources/audio/wordStim/S9_AI_29_axb_Step-10.wav","S9","29","axb","10","CN","0","1","false"
"null","","fixation","html-keyboard-response","144","439413","0.0-8.0-0.58","5bdc8d12b2fff7000189b6f8","condA","","<div class=""vertical-center"" style='width:60%;'><p style='font-weight:bold;'>Does the middle word sound more like the first word (A) or the last word (B)?</p> <br> <div class=""container""> <div id=""a-box""> <p class=""title-text"">A</h3></p> </div> <div id=""x-box""> <p class=""title-text"">X<p> </div> <div id=""b-box""> <p class=""title-text"">B</p></div> <br> <div style='float: left;padding-left:30px;'><p>Press '1' for A</p></div><div style='float: right;padding-right:30px;'><p>Press '0' for B</p> </div> </div></div>","null","","","","","","","","","","","","","",""
"2912","","test","audio-keyboard-response","145","442328","0.0-8.0-1.58","5bdc8d12b2fff7000189b6f8","condA","","resources/audio/wordStim/S3_AI_30_axb_Step-7.wav","48","","","","","AI","resources/audio/wordStim/S3_AI_30_axb_Step-7.wav","S3","30","axb","7","MI","0","0","true"
"null","","fixation","html-keyboard-response","146","443335","0.0-8.0-0.59","5bdc8d12b2fff7000189b6f8","condA","","<div class=""vertical-center"" style='width:60%;'><p style='font-weight:bold;'>Does the middle word sound more like the first word (A) or the last word (B)?</p> <br> <div class=""container""> <div id=""a-box""> <p class=""title-text"">A</h3></p> </div> <div id=""x-box""> <p class=""title-text"">X<p> </div> <div id=""b-box""> <p class=""title-text"">B</p></div> <br> <div style='float: left;padding-left:30px;'><p>Press '1' for A</p></div><div style='float: right;padding-right:30px;'><p>Press '0' for B</p> </div> </div></div>","null","","","","","","","","","","","","","",""
"2952","","test","audio-keyboard-response","147","446294","0.0-8.0-1.59","5bdc8d12b2fff7000189b6f8","condA","","resources/audio/wordStim/S3_AU_19_axb_Step-10.wav","49","","","","","AU","resources/audio/wordStim/S3_AU_19_axb_Step-10.wav","S3","19","axb","10","MI","0","1","false"
"null","","fixation","html-keyboard-response","148","447297","0.0-8.0-0.60","5bdc8d12b2fff7000189b6f8","condA","","<div class=""vertical-center"" style='width:60%;'><p style='font-weight:bold;'>Does the middle word sound more like the first word (A) or the last word (B)?</p> <br> <div class=""container""> <div id=""a-box""> <p class=""title-text"">A</h3></p> </div> <div id=""x-box""> <p class=""title-text"">X<p> </div> <div id=""b-box""> <p class=""title-text"">B</p></div> <br> <div style='float: left;padding-left:30px;'><p>Press '1' for A</p></div><div style='float: right;padding-right:30px;'><p>Press '0' for B</p> </div> </div></div>","null","","","","","","","","","","","","","",""
"2792","","test","audio-keyboard-response","149","450096","0.0-8.0-1.60","5bdc8d12b2fff7000189b6f8","condA","","resources/audio/wordStim/S9_AI_27_bxa_Step-6.wav","48","","","","","AI","resources/audio/wordStim/S9_AI_27_bxa_Step-6.wav","S9","27","bxa","6","CN","1","0","false"
"null","","fixation","html-keyboard-response","150","451102","0.0-8.0-0.61","5bdc8d12b2fff7000189b6f8","condA","","<div class=""vertical-center"" style='width:60%;'><p style='font-weight:bold;'>Does the middle word sound more like the first word (A) or the last word (B)?</p> <br> <div class=""container""> <div id=""a-box""> <p class=""title-text"">A</h3></p> </div> <div id=""x-box""> <p class=""title-text"">X<p> </div> <div id=""b-box""> <p class=""title-text"">B</p></div> <br> <div style='float: left;padding-left:30px;'><p>Press '1' for A</p></div><div style='float: right;padding-right:30px;'><p>Press '0' for B</p> </div> </div></div>","null","","","","","","","","","","","","","",""
"2731","","test","audio-keyboard-response","151","453829","0.0-8.0-1.61","5bdc8d12b2fff7000189b6f8","condA","","resources/audio/wordStim/S9_AU_16_axb_Step-7.wav","49","","","","","AU","resources/audio/wordStim/S9_AU_16_axb_Step-7.wav","S9","16","axb","7","CN","0","1","false"
"null","","fixation","html-keyboard-response","152","454837","0.0-8.0-0.62","5bdc8d12b2fff7000189b6f8","condA","","<div class=""vertical-center"" style='width:60%;'><p style='font-weight:bold;'>Does the middle word sound more like the first word (A) or the last word (B)?</p> <br> <div class=""container""> <div id=""a-box""> <p class=""title-text"">A</h3></p> </div> <div id=""x-box""> <p class=""title-text"">X<p> </div> <div id=""b-box""> <p class=""title-text"">B</p></div> <br> <div style='float: left;padding-left:30px;'><p>Press '1' for A</p></div><div style='float: right;padding-right:30px;'><p>Press '0' for B</p> </div> </div></div>","null","","","","","","","","","","","","","",""
"3859","","test","audio-keyboard-response","153","458702","0.0-8.0-1.62","5bdc8d12b2fff7000189b6f8","condA","","resources/audio/wordStim/S3_AI_22_axb_Step-10.wav","49","","","","","AI","resources/audio/wordStim/S3_AI_22_axb_Step-10.wav","S3","22","axb","10","MI","0","1","false"
"null","","fixation","html-keyboard-response","154","459708","0.0-8.0-0.63","5bdc8d12b2fff7000189b6f8","condA","","<div class=""vertical-center"" style='width:60%;'><p style='font-weight:bold;'>Does the middle word sound more like the first word (A) or the last word (B)?</p> <br> <div class=""container""> <div id=""a-box""> <p class=""title-text"">A</h3></p> </div> <div id=""x-box""> <p class=""title-text"">X<p> </div> <div id=""b-box""> <p class=""title-text"">B</p></div> <br> <div style='float: left;padding-left:30px;'><p>Press '1' for A</p></div><div style='float: right;padding-right:30px;'><p>Press '0' for B</p> </div> </div></div>","null","","","","","","","","","","","","","",""
"3109","","test","audio-keyboard-response","155","462822","0.0-8.0-1.63","5bdc8d12b2fff7000189b6f8","condA","","resources/audio/wordStim/S3_AI_23_axb_Step-3.wav","48","","","","","AI","resources/audio/wordStim/S3_AI_23_axb_Step-3.wav","S3","23","axb","3","MI","0","0","true"
"null","","fixation","html-keyboard-response","156","463825","0.0-8.0-0.64","5bdc8d12b2fff7000189b6f8","condA","","<div class=""vertical-center"" style='width:60%;'><p style='font-weight:bold;'>Does the middle word sound more like the first word (A) or the last word (B)?</p> <br> <div class=""container""> <div id=""a-box""> <p class=""title-text"">A</h3></p> </div> <div id=""x-box""> <p class=""title-text"">X<p> </div> <div id=""b-box""> <p class=""title-text"">B</p></div> <br> <div style='float: left;padding-left:30px;'><p>Press '1' for A</p></div><div style='float: right;padding-right:30px;'><p>Press '0' for B</p> </div> </div></div>","null","","","","","","","","","","","","","",""
"3811","","test","audio-keyboard-response","157","467639","0.0-8.0-1.64","5bdc8d12b2fff7000189b6f8","condA","","resources/audio/wordStim/S3_AU_18_axb_Step-3.wav","48","","","","","AU","resources/audio/wordStim/S3_AU_18_axb_Step-3.wav","S3","18","axb","3","MI","0","0","true"
"null","","fixation","html-keyboard-response","158","468644","0.0-8.0-0.65","5bdc8d12b2fff7000189b6f8","condA","","<div class=""vertical-center"" style='width:60%;'><p style='font-weight:bold;'>Does the middle word sound more like the first word (A) or the last word (B)?</p> <br> <div class=""container""> <div id=""a-box""> <p class=""title-text"">A</h3></p> </div> <div id=""x-box""> <p class=""title-text"">X<p> </div> <div id=""b-box""> <p class=""title-text"">B</p></div> <br> <div style='float: left;padding-left:30px;'><p>Press '1' for A</p></div><div style='float: right;padding-right:30px;'><p>Press '0' for B</p> </div> </div></div>","null","","","","","","","","","","","","","",""
"3669","","test","audio-keyboard-response","159","472317","0.0-8.0-1.65","5bdc8d12b2fff7000189b6f8","condA","","resources/audio/wordStim/S9_AU_16_bxa_Step-6.wav","49","","","","","AU","resources/audio/wordStim/S9_AU_16_bxa_Step-6.wav","S9","16","bxa","6","CN","1","1","true"
"null","","fixation","html-keyboard-response","160","473325","0.0-8.0-0.66","5bdc8d12b2fff7000189b6f8","condA","","<div class=""vertical-center"" style='width:60%;'><p style='font-weight:bold;'>Does the middle word sound more like the first word (A) or the last word (B)?</p> <br> <div class=""container""> <div id=""a-box""> <p class=""title-text"">A</h3></p> </div> <div id=""x-box""> <p class=""title-text"">X<p> </div> <div id=""b-box""> <p class=""title-text"">B</p></div> <br> <div style='float: left;padding-left:30px;'><p>Press '1' for A</p></div><div style='float: right;padding-right:30px;'><p>Press '0' for B</p> </div> </div></div>","null","","","","","","","","","","","","","",""
"3328","","test","audio-keyboard-response","161","476663","0.0-8.0-1.66","5bdc8d12b2fff7000189b6f8","condA","","resources/audio/wordStim/S9_AU_17_axb_Step-5.wav","49","","","","","AU","resources/audio/wordStim/S9_AU_17_axb_Step-5.wav","S9","17","axb","5","CN","0","1","false"
"null","","fixation","html-keyboard-response","162","477671","0.0-8.0-0.67","5bdc8d12b2fff7000189b6f8","condA","","<div class=""vertical-center"" style='width:60%;'><p style='font-weight:bold;'>Does the middle word sound more like the first word (A) or the last word (B)?</p> <br> <div class=""container""> <div id=""a-box""> <p class=""title-text"">A</h3></p> </div> <div id=""x-box""> <p class=""title-text"">X<p> </div> <div id=""b-box""> <p class=""title-text"">B</p></div> <br> <div style='float: left;padding-left:30px;'><p>Press '1' for A</p></div><div style='float: right;padding-right:30px;'><p>Press '0' for B</p> </div> </div></div>","null","","","","","","","","","","","","","",""
"3440","","test","audio-keyboard-response","163","481109","0.0-8.0-1.67","5bdc8d12b2fff7000189b6f8","condA","","resources/audio/wordStim/S9_AU_14_axb_Step-10.wav","49","","","","","AU","resources/audio/wordStim/S9_AU_14_axb_Step-10.wav","S9","14","axb","10","CN","0","1","false"
"null","","fixation","html-keyboard-response","164","482116","0.0-8.0-0.68","5bdc8d12b2fff7000189b6f8","condA","","<div class=""vertical-center"" style='width:60%;'><p style='font-weight:bold;'>Does the middle word sound more like the first word (A) or the last word (B)?</p> <br> <div class=""container""> <div id=""a-box""> <p class=""title-text"">A</h3></p> </div> <div id=""x-box""> <p class=""title-text"">X<p> </div> <div id=""b-box""> <p class=""title-text"">B</p></div> <br> <div style='float: left;padding-left:30px;'><p>Press '1' for A</p></div><div style='float: right;padding-right:30px;'><p>Press '0' for B</p> </div> </div></div>","null","","","","","","","","","","","","","",""
"3520","","test","audio-keyboard-response","165","485645","0.0-8.0-1.68","5bdc8d12b2fff7000189b6f8","condA","","resources/audio/wordStim/S9_AU_18_axb_Step-3.wav","49","","","","","AU","resources/audio/wordStim/S9_AU_18_axb_Step-3.wav","S9","18","axb","3","CN","0","1","false"
"null","","fixation","html-keyboard-response","166","486652","0.0-8.0-0.69","5bdc8d12b2fff7000189b6f8","condA","","<div class=""vertical-center"" style='width:60%;'><p style='font-weight:bold;'>Does the middle word sound more like the first word (A) or the last word (B)?</p> <br> <div class=""container""> <div id=""a-box""> <p class=""title-text"">A</h3></p> </div> <div id=""x-box""> <p class=""title-text"">X<p> </div> <div id=""b-box""> <p class=""title-text"">B</p></div> <br> <div style='float: left;padding-left:30px;'><p>Press '1' for A</p></div><div style='float: right;padding-right:30px;'><p>Press '0' for B</p> </div> </div></div>","null","","","","","","","","","","","","","",""
"3299","","test","audio-keyboard-response","167","489950","0.0-8.0-1.69","5bdc8d12b2fff7000189b6f8","condA","","resources/audio/wordStim/S9_AI_29_axb_Step-3.wav","49","","","","","AI","resources/audio/wordStim/S9_AI_29_axb_Step-3.wav","S9","29","axb","3","CN","0","1","false"
"null","","fixation","html-keyboard-response","168","490954","0.0-8.0-0.70","5bdc8d12b2fff7000189b6f8","condA","","<div class=""vertical-center"" style='width:60%;'><p style='font-weight:bold;'>Does the middle word sound more like the first word (A) or the last word (B)?</p> <br> <div class=""container""> <div id=""a-box""> <p class=""title-text"">A</h3></p> </div> <div id=""x-box""> <p class=""title-text"">X<p> </div> <div id=""b-box""> <p class=""title-text"">B</p></div> <br> <div style='float: left;padding-left:30px;'><p>Press '1' for A</p></div><div style='float: right;padding-right:30px;'><p>Press '0' for B</p> </div> </div></div>","null","","","","","","","","","","","","","",""
"3229","","test","audio-keyboard-response","169","494196","0.0-8.0-1.70","5bdc8d12b2fff7000189b6f8","condA","","resources/audio/wordStim/S9_AU_19_axb_Step-10.wav","48","","","","","AU","resources/audio/wordStim/S9_AU_19_axb_Step-10.wav","S9","19","axb","10","CN","0","0","true"
"null","","fixation","html-keyboard-response","170","495200","0.0-8.0-0.71","5bdc8d12b2fff7000189b6f8","condA","","<div class=""vertical-center"" style='width:60%;'><p style='font-weight:bold;'>Does the middle word sound more like the first word (A) or the last word (B)?</p> <br> <div class=""container""> <div id=""a-box""> <p class=""title-text"">A</h3></p> </div> <div id=""x-box""> <p class=""title-text"">X<p> </div> <div id=""b-box""> <p class=""title-text"">B</p></div> <br> <div style='float: left;padding-left:30px;'><p>Press '1' for A</p></div><div style='float: right;padding-right:30px;'><p>Press '0' for B</p> </div> </div></div>","null","","","","","","","","","","","","","",""
"3960","","test","audio-keyboard-response","171","499164","0.0-8.0-1.71","5bdc8d12b2fff7000189b6f8","condA","","resources/audio/wordStim/S3_AI_22_axb_Step-3.wav","49","","","","","AI","resources/audio/wordStim/S3_AI_22_axb_Step-3.wav","S3","22","axb","3","MI","0","1","false"
"null","","fixation","html-keyboard-response","172","500171","0.0-8.0-0.72","5bdc8d12b2fff7000189b6f8","condA","","<div class=""vertical-center"" style='width:60%;'><p style='font-weight:bold;'>Does the middle word sound more like the first word (A) or the last word (B)?</p> <br> <div class=""container""> <div id=""a-box""> <p class=""title-text"">A</h3></p> </div> <div id=""x-box""> <p class=""title-text"">X<p> </div> <div id=""b-box""> <p class=""title-text"">B</p></div> <br> <div style='float: left;padding-left:30px;'><p>Press '1' for A</p></div><div style='float: right;padding-right:30px;'><p>Press '0' for B</p> </div> </div></div>","null","","","","","","","","","","","","","",""
"3459","","test","audio-keyboard-response","173","503635","0.0-8.0-1.72","5bdc8d12b2fff7000189b6f8","condA","","resources/audio/wordStim/S9_AU_11_bxa_Step-8.wav","48","","","","","AU","resources/audio/wordStim/S9_AU_11_bxa_Step-8.wav","S9","11","bxa","8","CN","1","0","false"
"null","","fixation","html-keyboard-response","174","504640","0.0-8.0-0.73","5bdc8d12b2fff7000189b6f8","condA","","<div class=""vertical-center"" style='width:60%;'><p style='font-weight:bold;'>Does the middle word sound more like the first word (A) or the last word (B)?</p> <br> <div class=""container""> <div id=""a-box""> <p class=""title-text"">A</h3></p> </div> <div id=""x-box""> <p class=""title-text"">X<p> </div> <div id=""b-box""> <p class=""title-text"">B</p></div> <br> <div style='float: left;padding-left:30px;'><p>Press '1' for A</p></div><div style='float: right;padding-right:30px;'><p>Press '0' for B</p> </div> </div></div>","null","","","","","","","","","","","","","",""
"3800","","test","audio-keyboard-response","175","508443","0.0-8.0-1.73","5bdc8d12b2fff7000189b6f8","condA","","resources/audio/wordStim/S9_AU_16_axb_Step-9.wav","48","","","","","AU","resources/audio/wordStim/S9_AU_16_axb_Step-9.wav","S9","16","axb","9","CN","0","0","true"
"null","","fixation","html-keyboard-response","176","509450","0.0-8.0-0.74","5bdc8d12b2fff7000189b6f8","condA","","<div class=""vertical-center"" style='width:60%;'><p style='font-weight:bold;'>Does the middle word sound more like the first word (A) or the last word (B)?</p> <br> <div class=""container""> <div id=""a-box""> <p class=""title-text"">A</h3></p> </div> <div id=""x-box""> <p class=""title-text"">X<p> </div> <div id=""b-box""> <p class=""title-text"">B</p></div> <br> <div style='float: left;padding-left:30px;'><p>Press '1' for A</p></div><div style='float: right;padding-right:30px;'><p>Press '0' for B</p> </div> </div></div>","null","","","","","","","","","","","","","",""
"3709","","test","audio-keyboard-response","177","513165","0.0-8.0-1.74","5bdc8d12b2fff7000189b6f8","condA","","resources/audio/wordStim/S3_AI_25_axb_Step-7.wav","49","","","","","AI","resources/audio/wordStim/S3_AI_25_axb_Step-7.wav","S3","25","axb","7","MI","0","1","false"
"null","","fixation","html-keyboard-response","178","514171","0.0-8.0-0.75","5bdc8d12b2fff7000189b6f8","condA","","<div class=""vertical-center"" style='width:60%;'><p style='font-weight:bold;'>Does the middle word sound more like the first word (A) or the last word (B)?</p> <br> <div class=""container""> <div id=""a-box""> <p class=""title-text"">A</h3></p> </div> <div id=""x-box""> <p class=""title-text"">X<p> </div> <div id=""b-box""> <p class=""title-text"">B</p></div> <br> <div style='float: left;padding-left:30px;'><p>Press '1' for A</p></div><div style='float: right;padding-right:30px;'><p>Press '0' for B</p> </div> </div></div>","null","","","","","","","","","","","","","",""
"3248","","test","audio-keyboard-response","179","517420","0.0-8.0-1.75","5bdc8d12b2fff7000189b6f8","condA","","resources/audio/wordStim/S3_AU_20_axb_Step-5.wav","48","","","","","AU","resources/audio/wordStim/S3_AU_20_axb_Step-5.wav","S3","20","axb","5","MI","0","0","true"
"null","","fixation","html-keyboard-response","180","518425","0.0-8.0-0.76","5bdc8d12b2fff7000189b6f8","condA","","<div class=""vertical-center"" style='width:60%;'><p style='font-weight:bold;'>Does the middle word sound more like the first word (A) or the last word (B)?</p> <br> <div class=""container""> <div id=""a-box""> <p class=""title-text"">A</h3></p> </div> <div id=""x-box""> <p class=""title-text"">X<p> </div> <div id=""b-box""> <p class=""title-text"">B</p></div> <br> <div style='float: left;padding-left:30px;'><p>Press '1' for A</p></div><div style='float: right;padding-right:30px;'><p>Press '0' for B</p> </div> </div></div>","null","","","","","","","","","","","","","",""
"3541","","test","audio-keyboard-response","181","521973","0.0-8.0-1.76","5bdc8d12b2fff7000189b6f8","condA","","resources/audio/wordStim/S3_AI_28_axb_Step-10.wav","48","","","","","AI","resources/audio/wordStim/S3_AI_28_axb_Step-10.wav","S3","28","axb","10","MI","0","0","true"
"null","","fixation","html-keyboard-response","182","522981","0.0-8.0-0.77","5bdc8d12b2fff7000189b6f8","condA","","<div class=""vertical-center"" style='width:60%;'><p style='font-weight:bold;'>Does the middle word sound more like the first word (A) or the last word (B)?</p> <br> <div class=""container""> <div id=""a-box""> <p class=""title-text"">A</h3></p> </div> <div id=""x-box""> <p class=""title-text"">X<p> </div> <div id=""b-box""> <p class=""title-text"">B</p></div> <br> <div style='float: left;padding-left:30px;'><p>Press '1' for A</p></div><div style='float: right;padding-right:30px;'><p>Press '0' for B</p> </div> </div></div>","null","","","","","","","","","","","","","",""
"2920","","test","audio-keyboard-response","183","525905","0.0-8.0-1.77","5bdc8d12b2fff7000189b6f8","condA","","resources/audio/wordStim/S9_AU_20_axb_Step-7.wav","49","","","","","AU","resources/audio/wordStim/S9_AU_20_axb_Step-7.wav","S9","20","axb","7","CN","0","1","false"
"null","","fixation","html-keyboard-response","184","526913","0.0-8.0-0.78","5bdc8d12b2fff7000189b6f8","condA","","<div class=""vertical-center"" style='width:60%;'><p style='font-weight:bold;'>Does the middle word sound more like the first word (A) or the last word (B)?</p> <br> <div class=""container""> <div id=""a-box""> <p class=""title-text"">A</h3></p> </div> <div id=""x-box""> <p class=""title-text"">X<p> </div> <div id=""b-box""> <p class=""title-text"">B</p></div> <br> <div style='float: left;padding-left:30px;'><p>Press '1' for A</p></div><div style='float: right;padding-right:30px;'><p>Press '0' for B</p> </div> </div></div>","null","","","","","","","","","","","","","",""
"3149","","test","audio-keyboard-response","185","530060","0.0-8.0-1.78","5bdc8d12b2fff7000189b6f8","condA","","resources/audio/wordStim/S3_AU_11_axb_Step-3.wav","49","","","","","AU","resources/audio/wordStim/S3_AU_11_axb_Step-3.wav","S3","11","axb","3","MI","0","1","false"
"null","","fixation","html-keyboard-response","186","531066","0.0-8.0-0.79","5bdc8d12b2fff7000189b6f8","condA","","<div class=""vertical-center"" style='width:60%;'><p style='font-weight:bold;'>Does the middle word sound more like the first word (A) or the last word (B)?</p> <br> <div class=""container""> <div id=""a-box""> <p class=""title-text"">A</h3></p> </div> <div id=""x-box""> <p class=""title-text"">X<p> </div> <div id=""b-box""> <p class=""title-text"">B</p></div> <br> <div style='float: left;padding-left:30px;'><p>Press '1' for A</p></div><div style='float: right;padding-right:30px;'><p>Press '0' for B</p> </div> </div></div>","null","","","","","","","","","","","","","",""
"2981","","test","audio-keyboard-response","187","534051","0.0-8.0-1.79","5bdc8d12b2fff7000189b6f8","condA","","resources/audio/wordStim/S9_AU_19_bxa_Step-4.wav","48","","","","","AU","resources/audio/wordStim/S9_AU_19_bxa_Step-4.wav","S9","19","bxa","4","CN","1","0","false"
"null","","fixation","html-keyboard-response","188","535055","0.0-8.0-0.80","5bdc8d12b2fff7000189b6f8","condA","","<div class=""vertical-center"" style='width:60%;'><p style='font-weight:bold;'>Does the middle word sound more like the first word (A) or the last word (B)?</p> <br> <div class=""container""> <div id=""a-box""> <p class=""title-text"">A</h3></p> </div> <div id=""x-box""> <p class=""title-text"">X<p> </div> <div id=""b-box""> <p class=""title-text"">B</p></div> <br> <div style='float: left;padding-left:30px;'><p>Press '1' for A</p></div><div style='float: right;padding-right:30px;'><p>Press '0' for B</p> </div> </div></div>","null","","","","","","","","","","","","","",""
"4240","","test","audio-keyboard-response","189","539307","0.0-8.0-1.80","5bdc8d12b2fff7000189b6f8","condA","","resources/audio/wordStim/S3_AU_16_bxa_Step-6.wav","49","","","","","AU","resources/audio/wordStim/S3_AU_16_bxa_Step-6.wav","S3","16","bxa","6","MI","1","1","true"
"2693.0750000174157","","break","html-keyboard-response","190","542504","0.0-8.0-2.80-0.80","5bdc8d12b2fff7000189b6f8","condA","","<div class=""vertical-center""><p>Feel free to take a break!</p><i>When you're ready to continue, press SPACE to begin the next trial.</i></p></div>","32","","","","","","","","","","","","","",""
"null","","fixation","html-keyboard-response","191","543008","0.0-8.0-0.81","5bdc8d12b2fff7000189b6f8","condA","","<div class=""vertical-center"" style='width:60%;'><p style='font-weight:bold;'>Does the middle word sound more like the first word (A) or the last word (B)?</p> <br> <div class=""container""> <div id=""a-box""> <p class=""title-text"">A</h3></p> </div> <div id=""x-box""> <p class=""title-text"">X<p> </div> <div id=""b-box""> <p class=""title-text"">B</p></div> <br> <div style='float: left;padding-left:30px;'><p>Press '1' for A</p></div><div style='float: right;padding-right:30px;'><p>Press '0' for B</p> </div> </div></div>","null","","","","","","","","","","","","","",""
"3149","","test","audio-keyboard-response","192","546164","0.0-8.0-1.81","5bdc8d12b2fff7000189b6f8","condA","","resources/audio/wordStim/S9_AI_24_axb_Step-9.wav","48","","","","","AI","resources/audio/wordStim/S9_AI_24_axb_Step-9.wav","S9","24","axb","9","CN","0","0","true"
"null","","fixation","html-keyboard-response","193","547171","0.0-8.0-0.82","5bdc8d12b2fff7000189b6f8","condA","","<div class=""vertical-center"" style='width:60%;'><p style='font-weight:bold;'>Does the middle word sound more like the first word (A) or the last word (B)?</p> <br> <div class=""container""> <div id=""a-box""> <p class=""title-text"">A</h3></p> </div> <div id=""x-box""> <p class=""title-text"">X<p> </div> <div id=""b-box""> <p class=""title-text"">B</p></div> <br> <div style='float: left;padding-left:30px;'><p>Press '1' for A</p></div><div style='float: right;padding-right:30px;'><p>Press '0' for B</p> </div> </div></div>","null","","","","","","","","","","","","","",""
"3648","","test","audio-keyboard-response","194","550827","0.0-8.0-1.82","5bdc8d12b2fff7000189b6f8","condA","","resources/audio/wordStim/S9_AI_30_bxa_Step-6.wav","48","","","","","AI","resources/audio/wordStim/S9_AI_30_bxa_Step-6.wav","S9","30","bxa","6","CN","1","0","false"
"null","","fixation","html-keyboard-response","195","551833","0.0-8.0-0.83","5bdc8d12b2fff7000189b6f8","condA","","<div class=""vertical-center"" style='width:60%;'><p style='font-weight:bold;'>Does the middle word sound more like the first word (A) or the last word (B)?</p> <br> <div class=""container""> <div id=""a-box""> <p class=""title-text"">A</h3></p> </div> <div id=""x-box""> <p class=""title-text"">X<p> </div> <div id=""b-box""> <p class=""title-text"">B</p></div> <br> <div style='float: left;padding-left:30px;'><p>Press '1' for A</p></div><div style='float: right;padding-right:30px;'><p>Press '0' for B</p> </div> </div></div>","null","","","","","","","","","","","","","",""
"3669","","test","audio-keyboard-response","196","555504","0.0-8.0-1.83","5bdc8d12b2fff7000189b6f8","condA","","resources/audio/wordStim/S3_AU_18_axb_Step-9.wav","48","","","","","AU","resources/audio/wordStim/S3_AU_18_axb_Step-9.wav","S3","18","axb","9","MI","0","0","true"
"null","","fixation","html-keyboard-response","197","556509","0.0-8.0-0.84","5bdc8d12b2fff7000189b6f8","condA","","<div class=""vertical-center"" style='width:60%;'><p style='font-weight:bold;'>Does the middle word sound more like the first word (A) or the last word (B)?</p> <br> <div class=""container""> <div id=""a-box""> <p class=""title-text"">A</h3></p> </div> <div id=""x-box""> <p class=""title-text"">X<p> </div> <div id=""b-box""> <p class=""title-text"">B</p></div> <br> <div style='float: left;padding-left:30px;'><p>Press '1' for A</p></div><div style='float: right;padding-right:30px;'><p>Press '0' for B</p> </div> </div></div>","null","","","","","","","","","","","","","",""
"3371","","test","audio-keyboard-response","198","559879","0.0-8.0-1.84","5bdc8d12b2fff7000189b6f8","condA","","resources/audio/wordStim/S3_AI_22_bxa_Step-6.wav","49","","","","","AI","resources/audio/wordStim/S3_AI_22_bxa_Step-6.wav","S3","22","bxa","6","MI","1","1","true"
"null","","fixation","html-keyboard-response","199","560887","0.0-8.0-0.85","5bdc8d12b2fff7000189b6f8","condA","","<div class=""vertical-center"" style='width:60%;'><p style='font-weight:bold;'>Does the middle word sound more like the first word (A) or the last word (B)?</p> <br> <div class=""container""> <div id=""a-box""> <p class=""title-text"">A</h3></p> </div> <div id=""x-box""> <p class=""title-text"">X<p> </div> <div id=""b-box""> <p class=""title-text"">B</p></div> <br> <div style='float: left;padding-left:30px;'><p>Press '1' for A</p></div><div style='float: right;padding-right:30px;'><p>Press '0' for B</p> </div> </div></div>","null","","","","","","","","","","","","","",""
"3680","","test","audio-keyboard-response","200","564571","0.0-8.0-1.85","5bdc8d12b2fff7000189b6f8","condA","","resources/audio/wordStim/S3_AU_14_axb_Step-7.wav","48","","","","","AU","resources/audio/wordStim/S3_AU_14_axb_Step-7.wav","S3","14","axb","7","MI","0","0","true"
"null","","fixation","html-keyboard-response","201","565579","0.0-8.0-0.86","5bdc8d12b2fff7000189b6f8","condA","","<div class=""vertical-center"" style='width:60%;'><p style='font-weight:bold;'>Does the middle word sound more like the first word (A) or the last word (B)?</p> <br> <div class=""container""> <div id=""a-box""> <p class=""title-text"">A</h3></p> </div> <div id=""x-box""> <p class=""title-text"">X<p> </div> <div id=""b-box""> <p class=""title-text"">B</p></div> <br> <div style='float: left;padding-left:30px;'><p>Press '1' for A</p></div><div style='float: right;padding-right:30px;'><p>Press '0' for B</p> </div> </div></div>","null","","","","","","","","","","","","","",""
"2960","","test","audio-keyboard-response","202","568548","0.0-8.0-1.86","5bdc8d12b2fff7000189b6f8","condA","","resources/audio/wordStim/S3_AU_11_bxa_Step-4.wav","49","","","","","AU","resources/audio/wordStim/S3_AU_11_bxa_Step-4.wav","S3","11","bxa","4","MI","1","1","true"
"null","","fixation","html-keyboard-response","203","569554","0.0-8.0-0.87","5bdc8d12b2fff7000189b6f8","condA","","<div class=""vertical-center"" style='width:60%;'><p style='font-weight:bold;'>Does the middle word sound more like the first word (A) or the last word (B)?</p> <br> <div class=""container""> <div id=""a-box""> <p class=""title-text"">A</h3></p> </div> <div id=""x-box""> <p class=""title-text"">X<p> </div> <div id=""b-box""> <p class=""title-text"">B</p></div> <br> <div style='float: left;padding-left:30px;'><p>Press '1' for A</p></div><div style='float: right;padding-right:30px;'><p>Press '0' for B</p> </div> </div></div>","null","","","","","","","","","","","","","",""
"2781","","test","audio-keyboard-response","204","572330","0.0-8.0-1.87","5bdc8d12b2fff7000189b6f8","condA","","resources/audio/wordStim/S9_AI_24_axb_Step-10.wav","48","","","","","AI","resources/audio/wordStim/S9_AI_24_axb_Step-10.wav","S9","24","axb","10","CN","0","0","true"
"null","","fixation","html-keyboard-response","205","573338","0.0-8.0-0.88","5bdc8d12b2fff7000189b6f8","condA","","<div class=""vertical-center"" style='width:60%;'><p style='font-weight:bold;'>Does the middle word sound more like the first word (A) or the last word (B)?</p> <br> <div class=""container""> <div id=""a-box""> <p class=""title-text"">A</h3></p> </div> <div id=""x-box""> <p class=""title-text"">X<p> </div> <div id=""b-box""> <p class=""title-text"">B</p></div> <br> <div style='float: left;padding-left:30px;'><p>Press '1' for A</p></div><div style='float: right;padding-right:30px;'><p>Press '0' for B</p> </div> </div></div>","null","","","","","","","","","","","","","",""
"3472","","test","audio-keyboard-response","206","576815","0.0-8.0-1.88","5bdc8d12b2fff7000189b6f8","condA","","resources/audio/wordStim/S3_AU_18_axb_Step-5.wav","49","","","","","AU","resources/audio/wordStim/S3_AU_18_axb_Step-5.wav","S3","18","axb","5","MI","0","1","false"
"null","","fixation","html-keyboard-response","207","577824","0.0-8.0-0.89","5bdc8d12b2fff7000189b6f8","condA","","<div class=""vertical-center"" style='width:60%;'><p style='font-weight:bold;'>Does the middle word sound more like the first word (A) or the last word (B)?</p> <br> <div class=""container""> <div id=""a-box""> <p class=""title-text"">A</h3></p> </div> <div id=""x-box""> <p class=""title-text"">X<p> </div> <div id=""b-box""> <p class=""title-text"">B</p></div> <br> <div style='float: left;padding-left:30px;'><p>Press '1' for A</p></div><div style='float: right;padding-right:30px;'><p>Press '0' for B</p> </div> </div></div>","null","","","","","","","","","","","","","",""
"3112","","test","audio-keyboard-response","208","580937","0.0-8.0-1.89","5bdc8d12b2fff7000189b6f8","condA","","resources/audio/wordStim/S3_AU_18_bxa_Step-2.wav","48","","","","","AU","resources/audio/wordStim/S3_AU_18_bxa_Step-2.wav","S3","18","bxa","2","MI","1","0","false"
"null","","fixation","html-keyboard-response","209","581944","0.0-8.0-0.90","5bdc8d12b2fff7000189b6f8","condA","","<div class=""vertical-center"" style='width:60%;'><p style='font-weight:bold;'>Does the middle word sound more like the first word (A) or the last word (B)?</p> <br> <div class=""container""> <div id=""a-box""> <p class=""title-text"">A</h3></p> </div> <div id=""x-box""> <p class=""title-text"">X<p> </div> <div id=""b-box""> <p class=""title-text"">B</p></div> <br> <div style='float: left;padding-left:30px;'><p>Press '1' for A</p></div><div style='float: right;padding-right:30px;'><p>Press '0' for B</p> </div> </div></div>","null","","","","","","","","","","","","","",""
"2640","","test","audio-keyboard-response","210","584580","0.0-8.0-1.90","5bdc8d12b2fff7000189b6f8","condA","","resources/audio/wordStim/S3_AI_25_bxa_Step-8.wav","48","","","","","AI","resources/audio/wordStim/S3_AI_25_bxa_Step-8.wav","S3","25","bxa","8","MI","1","0","false"
"null","","fixation","html-keyboard-response","211","585590","0.0-8.0-0.91","5bdc8d12b2fff7000189b6f8","condA","","<div class=""vertical-center"" style='width:60%;'><p style='font-weight:bold;'>Does the middle word sound more like the first word (A) or the last word (B)?</p> <br> <div class=""container""> <div id=""a-box""> <p class=""title-text"">A</h3></p> </div> <div id=""x-box""> <p class=""title-text"">X<p> </div> <div id=""b-box""> <p class=""title-text"">B</p></div> <br> <div style='float: left;padding-left:30px;'><p>Press '1' for A</p></div><div style='float: right;padding-right:30px;'><p>Press '0' for B</p> </div> </div></div>","null","","","","","","","","","","","","","",""
"3211","","test","audio-keyboard-response","212","588801","0.0-8.0-1.91","5bdc8d12b2fff7000189b6f8","condA","","resources/audio/wordStim/S3_AI_28_bxa_Step-4.wav","49","","","","","AI","resources/audio/wordStim/S3_AI_28_bxa_Step-4.wav","S3","28","bxa","4","MI","1","1","true"
"null","","fixation","html-keyboard-response","213","589809","0.0-8.0-0.92","5bdc8d12b2fff7000189b6f8","condA","","<div class=""vertical-center"" style='width:60%;'><p style='font-weight:bold;'>Does the middle word sound more like the first word (A) or the last word (B)?</p> <br> <div class=""container""> <div id=""a-box""> <p class=""title-text"">A</h3></p> </div> <div id=""x-box""> <p class=""title-text"">X<p> </div> <div id=""b-box""> <p class=""title-text"">B</p></div> <br> <div style='float: left;padding-left:30px;'><p>Press '1' for A</p></div><div style='float: right;padding-right:30px;'><p>Press '0' for B</p> </div> </div></div>","null","","","","","","","","","","","","","",""
"3979","","test","audio-keyboard-response","214","593790","0.0-8.0-1.92","5bdc8d12b2fff7000189b6f8","condA","","resources/audio/wordStim/S3_AU_16_axb_Step-3.wav","48","","","","","AU","resources/audio/wordStim/S3_AU_16_axb_Step-3.wav","S3","16","axb","3","MI","0","0","true"
