"rt","url","trial_role","trial_type","trial_index","time_elapsed","internal_node_id","participantId","condition","view_history","stimulus","key_press","button_pressed","correct_answer","correct_response","success","vowel","wordStim","speaker","sentNum","order","step","speakerIdentity","raised_answer","key_response","raised_response"
"34798.46499999985","micr.con.consent.html","consent","external-html","0","34836","0.0-0.0","5c8d7f4ca5092100014b00a4","condA","","","","","","","","","","","","","","","","",""
"68680.99000002258","","instructions","instructions","1","103521","0.0-1.0","5c8d7f4ca5092100014b00a4","condA","[{""page_index"":0,""viewing_time"":15602.450000005774},{""page_index"":1,""viewing_time"":34397.76000002166},{""page_index"":2,""viewing_time"":18680.149999971036}]","","","","","","","","","","","","","","","",""
"null","","fixation","html-keyboard-response","2","104024","0.0-2.0-0.0","5c8d7f4ca5092100014b00a4","condA","","<div class=""vertical-center"" style=""font-size:60px;"">+</div>","null","","","","","","","","","","","","","",""
"5857.0250000339","","tonetest","audio-button-response","3","109887","0.0-2.0-1.0","5c8d7f4ca5092100014b00a4","condA","","../../src/audio/toneTest_4.wav","","1","1","true","","","","","","","","","","",""
"null","","fixation","html-keyboard-response","4","110389","0.0-2.0-0.1","5c8d7f4ca5092100014b00a4","condA","","<div class=""vertical-center"" style=""font-size:60px;"">+</div>","null","","","","","","","","","","","","","",""
"5966.829999990296","","tonetest","audio-button-response","5","116357","0.0-2.0-1.1","5c8d7f4ca5092100014b00a4","condA","","../../src/audio/toneTest_5.wav","","0","0","true","","","","","","","","","","",""
"null","","fixation","html-keyboard-response","6","116859","0.0-2.0-0.2","5c8d7f4ca5092100014b00a4","condA","","<div class=""vertical-center"" style=""font-size:60px;"">+</div>","null","","","","","","","","","","","","","",""
"4556.365000025835","","tonetest","audio-button-response","7","121417","0.0-2.0-1.2","5c8d7f4ca5092100014b00a4","condA","","../../src/audio/toneTest_1.wav","","2","2","true","","","","","","","","","","",""
"null","","fixation","html-keyboard-response","8","121918","0.0-2.0-0.3","5c8d7f4ca5092100014b00a4","condA","","<div class=""vertical-center"" style=""font-size:60px;"">+</div>","null","","","","","","","","","","","","","",""
"4469.1449999809265","","tonetest","audio-button-response","9","126389","0.0-2.0-1.3","5c8d7f4ca5092100014b00a4","condA","","../../src/audio/toneTest_6.wav","","0","0","true","","","","","","","","","","",""
"null","","fixation","html-keyboard-response","10","126890","0.0-2.0-0.4","5c8d7f4ca5092100014b00a4","condA","","<div class=""vertical-center"" style=""font-size:60px;"">+</div>","null","","","","","","","","","","","","","",""
"4681.429999996908","","tonetest","audio-button-response","11","131573","0.0-2.0-1.4","5c8d7f4ca5092100014b00a4","condA","","../../src/audio/toneTest_4.wav","","1","1","true","","","","","","","","","","",""
"null","","fixation","html-keyboard-response","12","132075","0.0-2.0-0.5","5c8d7f4ca5092100014b00a4","condA","","<div class=""vertical-center"" style=""font-size:60px;"">+</div>","null","","","","","","","","","","","","","",""
"4426.800000015646","","tonetest","audio-button-response","13","136503","0.0-2.0-1.5","5c8d7f4ca5092100014b00a4","condA","","../../src/audio/toneTest_6.wav","","0","0","true","","","","","","","","","","",""
"5258.604999980889","","instructions","html-keyboard-response","14","141763","0.0-3.0","5c8d7f4ca5092100014b00a4","condA","","<div class=""vertical-center""><p><b>Your score was 6/6.</b></p><p>If you scored below 6, please ensure that you are wearing headphones and in a quiet location free of distractions.</p><p><i>To continue to the main experiment, press SPACE.</i></p></div>","32","","","","","","","","","","","","","",""
"","","","fullscreen","15","145862","0.0-4.0","5c8d7f4ca5092100014b00a4","condA","","","","","","","true","","","","","","","","","",""
"33329.35999997426","","instructions","instructions","16","179192","0.0-5.0","5c8d7f4ca5092100014b00a4","condA","[{""page_index"":0,""viewing_time"":33328.34999996703}]","","","","","","","","","","","","","","","",""
"null","","fixation","html-keyboard-response","17","179697","0.0-6.0-0.0","5c8d7f4ca5092100014b00a4","condA","","<div class=""vertical-center"" style='width:60%;'><p style='font-weight:bold;'>Does the middle word sound more like the first word (A) or the last word (B)?</p> <br> <div class=""container""> <div id=""a-box""> <p class=""title-text"">A</h3></p> </div> <div id=""x-box""> <p class=""title-text"">X<p> </div> <div id=""b-box""> <p class=""title-text"">B</p></div> <br> <div style='float: left;padding-left:30px;'><p>Press '1' for A</p></div><div style='float: right;padding-right:30px;'><p>Press '0' for B</p> </div> </div></div>","null","","","","","","","","","","","","","",""
"4419","","practice","audio-keyboard-response","18","184323","0.0-6.0-1.0","5c8d7f4ca5092100014b00a4","condA","","resources/audio/practiceStim/S1_AU_14_axb_Step-6.wav","48","","","","","","","","","","","","","",""
"null","","fixation","html-keyboard-response","19","185340","0.0-6.0-0.1","5c8d7f4ca5092100014b00a4","condA","","<div class=""vertical-center"" style='width:60%;'><p style='font-weight:bold;'>Does the middle word sound more like the first word (A) or the last word (B)?</p> <br> <div class=""container""> <div id=""a-box""> <p class=""title-text"">A</h3></p> </div> <div id=""x-box""> <p class=""title-text"">X<p> </div> <div id=""b-box""> <p class=""title-text"">B</p></div> <br> <div style='float: left;padding-left:30px;'><p>Press '1' for A</p></div><div style='float: right;padding-right:30px;'><p>Press '0' for B</p> </div> </div></div>","null","","","","","","","","","","","","","",""
"3880","","practice","audio-keyboard-response","20","189219","0.0-6.0-1.1","5c8d7f4ca5092100014b00a4","condA","","resources/audio/practiceStim/S1_AU_14_bxa_Step-6.wav","48","","","","","","","","","","","","","",""
"null","","fixation","html-keyboard-response","21","190233","0.0-6.0-0.2","5c8d7f4ca5092100014b00a4","condA","","<div class=""vertical-center"" style='width:60%;'><p style='font-weight:bold;'>Does the middle word sound more like the first word (A) or the last word (B)?</p> <br> <div class=""container""> <div id=""a-box""> <p class=""title-text"">A</h3></p> </div> <div id=""x-box""> <p class=""title-text"">X<p> </div> <div id=""b-box""> <p class=""title-text"">B</p></div> <br> <div style='float: left;padding-left:30px;'><p>Press '1' for A</p></div><div style='float: right;padding-right:30px;'><p>Press '0' for B</p> </div> </div></div>","null","","","","","","","","","","","","","",""
"3419","","practice","audio-keyboard-response","22","193651","0.0-6.0-1.2","5c8d7f4ca5092100014b00a4","condA","","resources/audio/practiceStim/S1_AI_21_axb_Step-6.wav","49","","","","","","","","","","","","","",""
"null","","fixation","html-keyboard-response","23","194666","0.0-6.0-0.3","5c8d7f4ca5092100014b00a4","condA","","<div class=""vertical-center"" style='width:60%;'><p style='font-weight:bold;'>Does the middle word sound more like the first word (A) or the last word (B)?</p> <br> <div class=""container""> <div id=""a-box""> <p class=""title-text"">A</h3></p> </div> <div id=""x-box""> <p class=""title-text"">X<p> </div> <div id=""b-box""> <p class=""title-text"">B</p></div> <br> <div style='float: left;padding-left:30px;'><p>Press '1' for A</p></div><div style='float: right;padding-right:30px;'><p>Press '0' for B</p> </div> </div></div>","null","","","","","","","","","","","","","",""
"3808","","practice","audio-keyboard-response","24","198482","0.0-6.0-1.3","5c8d7f4ca5092100014b00a4","condA","","resources/audio/practiceStim/S1_AI_21_bxa_Step-6.wav","48","","","","","","","","","","","","","",""
"2653.4949999768287","","instructions","instructions","25","201650","0.0-7.0","5c8d7f4ca5092100014b00a4","condA","[{""page_index"":0,""viewing_time"":2653.3000000054017}]","","","","","","","","","","","","","","","",""
"null","","fixation","html-keyboard-response","26","202158","0.0-8.0-0.0","5c8d7f4ca5092100014b00a4","condA","","<div class=""vertical-center"" style='width:60%;'><p style='font-weight:bold;'>Does the middle word sound more like the first word (A) or the last word (B)?</p> <br> <div class=""container""> <div id=""a-box""> <p class=""title-text"">A</h3></p> </div> <div id=""x-box""> <p class=""title-text"">X<p> </div> <div id=""b-box""> <p class=""title-text"">B</p></div> <br> <div style='float: left;padding-left:30px;'><p>Press '1' for A</p></div><div style='float: right;padding-right:30px;'><p>Press '0' for B</p> </div> </div></div>","null","","","","","","","","","","","","","",""
"4931","","test","audio-keyboard-response","27","207090","0.0-8.0-1.0","5c8d7f4ca5092100014b00a4","condA","","resources/audio/wordStim/S3_AU_15_axb_Step-10.wav","48","","","","","AU","resources/audio/wordStim/S3_AU_15_axb_Step-10.wav","S3","15","axb","10","MI","0","0","true"
"null","","fixation","html-keyboard-response","28","208106","0.0-8.0-0.1","5c8d7f4ca5092100014b00a4","condA","","<div class=""vertical-center"" style='width:60%;'><p style='font-weight:bold;'>Does the middle word sound more like the first word (A) or the last word (B)?</p> <br> <div class=""container""> <div id=""a-box""> <p class=""title-text"">A</h3></p> </div> <div id=""x-box""> <p class=""title-text"">X<p> </div> <div id=""b-box""> <p class=""title-text"">B</p></div> <br> <div style='float: left;padding-left:30px;'><p>Press '1' for A</p></div><div style='float: right;padding-right:30px;'><p>Press '0' for B</p> </div> </div></div>","null","","","","","","","","","","","","","",""
"4720","","test","audio-keyboard-response","29","212834","0.0-8.0-1.1","5c8d7f4ca5092100014b00a4","condA","","resources/audio/wordStim/S9_AU_18_axb_Step-9.wav","48","","","","","AU","resources/audio/wordStim/S9_AU_18_axb_Step-9.wav","S9","18","axb","9","CN","0","0","true"
"null","","fixation","html-keyboard-response","30","213845","0.0-8.0-0.2","5c8d7f4ca5092100014b00a4","condA","","<div class=""vertical-center"" style='width:60%;'><p style='font-weight:bold;'>Does the middle word sound more like the first word (A) or the last word (B)?</p> <br> <div class=""container""> <div id=""a-box""> <p class=""title-text"">A</h3></p> </div> <div id=""x-box""> <p class=""title-text"">X<p> </div> <div id=""b-box""> <p class=""title-text"">B</p></div> <br> <div style='float: left;padding-left:30px;'><p>Press '1' for A</p></div><div style='float: right;padding-right:30px;'><p>Press '0' for B</p> </div> </div></div>","null","","","","","","","","","","","","","",""
"3989","","test","audio-keyboard-response","31","217842","0.0-8.0-1.2","5c8d7f4ca5092100014b00a4","condA","","resources/audio/wordStim/S3_AU_11_bxa_Step-6.wav","49","","","","","AU","resources/audio/wordStim/S3_AU_11_bxa_Step-6.wav","S3","11","bxa","6","MI","1","1","true"
"null","","fixation","html-keyboard-response","32","218862","0.0-8.0-0.3","5c8d7f4ca5092100014b00a4","condA","","<div class=""vertical-center"" style='width:60%;'><p style='font-weight:bold;'>Does the middle word sound more like the first word (A) or the last word (B)?</p> <br> <div class=""container""> <div id=""a-box""> <p class=""title-text"">A</h3></p> </div> <div id=""x-box""> <p class=""title-text"">X<p> </div> <div id=""b-box""> <p class=""title-text"">B</p></div> <br> <div style='float: left;padding-left:30px;'><p>Press '1' for A</p></div><div style='float: right;padding-right:30px;'><p>Press '0' for B</p> </div> </div></div>","null","","","","","","","","","","","","","",""
"4211","","test","audio-keyboard-response","33","223074","0.0-8.0-1.3","5c8d7f4ca5092100014b00a4","condA","","resources/audio/wordStim/S9_AI_29_axb_Step-7.wav","48","","","","","AI","resources/audio/wordStim/S9_AI_29_axb_Step-7.wav","S9","29","axb","7","CN","0","0","true"
"null","","fixation","html-keyboard-response","34","224083","0.0-8.0-0.4","5c8d7f4ca5092100014b00a4","condA","","<div class=""vertical-center"" style='width:60%;'><p style='font-weight:bold;'>Does the middle word sound more like the first word (A) or the last word (B)?</p> <br> <div class=""container""> <div id=""a-box""> <p class=""title-text"">A</h3></p> </div> <div id=""x-box""> <p class=""title-text"">X<p> </div> <div id=""b-box""> <p class=""title-text"">B</p></div> <br> <div style='float: left;padding-left:30px;'><p>Press '1' for A</p></div><div style='float: right;padding-right:30px;'><p>Press '0' for B</p> </div> </div></div>","null","","","","","","","","","","","","","",""
"4640","","test","audio-keyboard-response","35","228722","0.0-8.0-1.4","5c8d7f4ca5092100014b00a4","condA","","resources/audio/wordStim/S3_AI_28_bxa_Step-6.wav","49","","","","","AI","resources/audio/wordStim/S3_AI_28_bxa_Step-6.wav","S3","28","bxa","6","MI","1","1","true"
"null","","fixation","html-keyboard-response","36","229737","0.0-8.0-0.5","5c8d7f4ca5092100014b00a4","condA","","<div class=""vertical-center"" style='width:60%;'><p style='font-weight:bold;'>Does the middle word sound more like the first word (A) or the last word (B)?</p> <br> <div class=""container""> <div id=""a-box""> <p class=""title-text"">A</h3></p> </div> <div id=""x-box""> <p class=""title-text"">X<p> </div> <div id=""b-box""> <p class=""title-text"">B</p></div> <br> <div style='float: left;padding-left:30px;'><p>Press '1' for A</p></div><div style='float: right;padding-right:30px;'><p>Press '0' for B</p> </div> </div></div>","null","","","","","","","","","","","","","",""
"3720","","test","audio-keyboard-response","37","233458","0.0-8.0-1.5","5c8d7f4ca5092100014b00a4","condA","","resources/audio/wordStim/S9_AI_29_axb_Step-9.wav","49","","","","","AI","resources/audio/wordStim/S9_AI_29_axb_Step-9.wav","S9","29","axb","9","CN","0","1","false"
"null","","fixation","html-keyboard-response","38","234479","0.0-8.0-0.6","5c8d7f4ca5092100014b00a4","condA","","<div class=""vertical-center"" style='width:60%;'><p style='font-weight:bold;'>Does the middle word sound more like the first word (A) or the last word (B)?</p> <br> <div class=""container""> <div id=""a-box""> <p class=""title-text"">A</h3></p> </div> <div id=""x-box""> <p class=""title-text"">X<p> </div> <div id=""b-box""> <p class=""title-text"">B</p></div> <br> <div style='float: left;padding-left:30px;'><p>Press '1' for A</p></div><div style='float: right;padding-right:30px;'><p>Press '0' for B</p> </div> </div></div>","null","","","","","","","","","","","","","",""
"5381","","test","audio-keyboard-response","39","239858","0.0-8.0-1.6","5c8d7f4ca5092100014b00a4","condA","","resources/audio/wordStim/S3_AU_20_bxa_Step-6.wav","48","","","","","AU","resources/audio/wordStim/S3_AU_20_bxa_Step-6.wav","S3","20","bxa","6","MI","1","0","false"
"null","","fixation","html-keyboard-response","40","240868","0.0-8.0-0.7","5c8d7f4ca5092100014b00a4","condA","","<div class=""vertical-center"" style='width:60%;'><p style='font-weight:bold;'>Does the middle word sound more like the first word (A) or the last word (B)?</p> <br> <div class=""container""> <div id=""a-box""> <p class=""title-text"">A</h3></p> </div> <div id=""x-box""> <p class=""title-text"">X<p> </div> <div id=""b-box""> <p class=""title-text"">B</p></div> <br> <div style='float: left;padding-left:30px;'><p>Press '1' for A</p></div><div style='float: right;padding-right:30px;'><p>Press '0' for B</p> </div> </div></div>","null","","","","","","","","","","","","","",""
"4480","","test","audio-keyboard-response","41","245346","0.0-8.0-1.7","5c8d7f4ca5092100014b00a4","condA","","resources/audio/wordStim/S9_AU_17_axb_Step-9.wav","48","","","","","AU","resources/audio/wordStim/S9_AU_17_axb_Step-9.wav","S9","17","axb","9","CN","0","0","true"
"null","","fixation","html-keyboard-response","42","246358","0.0-8.0-0.8","5c8d7f4ca5092100014b00a4","condA","","<div class=""vertical-center"" style='width:60%;'><p style='font-weight:bold;'>Does the middle word sound more like the first word (A) or the last word (B)?</p> <br> <div class=""container""> <div id=""a-box""> <p class=""title-text"">A</h3></p> </div> <div id=""x-box""> <p class=""title-text"">X<p> </div> <div id=""b-box""> <p class=""title-text"">B</p></div> <br> <div style='float: left;padding-left:30px;'><p>Press '1' for A</p></div><div style='float: right;padding-right:30px;'><p>Press '0' for B</p> </div> </div></div>","null","","","","","","","","","","","","","",""
"3672","","test","audio-keyboard-response","43","250034","0.0-8.0-1.8","5c8d7f4ca5092100014b00a4","condA","","resources/audio/wordStim/S3_AU_16_axb_Step-3.wav","49","","","","","AU","resources/audio/wordStim/S3_AU_16_axb_Step-3.wav","S3","16","axb","3","MI","0","1","false"
"null","","fixation","html-keyboard-response","44","251051","0.0-8.0-0.9","5c8d7f4ca5092100014b00a4","condA","","<div class=""vertical-center"" style='width:60%;'><p style='font-weight:bold;'>Does the middle word sound more like the first word (A) or the last word (B)?</p> <br> <div class=""container""> <div id=""a-box""> <p class=""title-text"">A</h3></p> </div> <div id=""x-box""> <p class=""title-text"">X<p> </div> <div id=""b-box""> <p class=""title-text"">B</p></div> <br> <div style='float: left;padding-left:30px;'><p>Press '1' for A</p></div><div style='float: right;padding-right:30px;'><p>Press '0' for B</p> </div> </div></div>","null","","","","","","","","","","","","","",""
"4011","","test","audio-keyboard-response","45","255058","0.0-8.0-1.9","5c8d7f4ca5092100014b00a4","condA","","resources/audio/wordStim/S9_AU_11_axb_Step-3.wav","48","","","","","AU","resources/audio/wordStim/S9_AU_11_axb_Step-3.wav","S9","11","axb","3","CN","0","0","true"
"null","","fixation","html-keyboard-response","46","256079","0.0-8.0-0.10","5c8d7f4ca5092100014b00a4","condA","","<div class=""vertical-center"" style='width:60%;'><p style='font-weight:bold;'>Does the middle word sound more like the first word (A) or the last word (B)?</p> <br> <div class=""container""> <div id=""a-box""> <p class=""title-text"">A</h3></p> </div> <div id=""x-box""> <p class=""title-text"">X<p> </div> <div id=""b-box""> <p class=""title-text"">B</p></div> <br> <div style='float: left;padding-left:30px;'><p>Press '1' for A</p></div><div style='float: right;padding-right:30px;'><p>Press '0' for B</p> </div> </div></div>","null","","","","","","","","","","","","","",""
"5672","","test","audio-keyboard-response","47","261746","0.0-8.0-1.10","5c8d7f4ca5092100014b00a4","condA","","resources/audio/wordStim/S3_AU_11_axb_Step-5.wav","49","","","","","AU","resources/audio/wordStim/S3_AU_11_axb_Step-5.wav","S3","11","axb","5","MI","0","1","false"
"null","","fixation","html-keyboard-response","48","262771","0.0-8.0-0.11","5c8d7f4ca5092100014b00a4","condA","","<div class=""vertical-center"" style='width:60%;'><p style='font-weight:bold;'>Does the middle word sound more like the first word (A) or the last word (B)?</p> <br> <div class=""container""> <div id=""a-box""> <p class=""title-text"">A</h3></p> </div> <div id=""x-box""> <p class=""title-text"">X<p> </div> <div id=""b-box""> <p class=""title-text"">B</p></div> <br> <div style='float: left;padding-left:30px;'><p>Press '1' for A</p></div><div style='float: right;padding-right:30px;'><p>Press '0' for B</p> </div> </div></div>","null","","","","","","","","","","","","","",""
"6461","","test","audio-keyboard-response","49","269234","0.0-8.0-1.11","5c8d7f4ca5092100014b00a4","condA","","resources/audio/wordStim/S9_AI_25_bxa_Step-4.wav","49","","","","","AI","resources/audio/wordStim/S9_AI_25_bxa_Step-4.wav","S9","25","bxa","4","CN","1","1","true"
"null","","fixation","html-keyboard-response","50","270246","0.0-8.0-0.12","5c8d7f4ca5092100014b00a4","condA","","<div class=""vertical-center"" style='width:60%;'><p style='font-weight:bold;'>Does the middle word sound more like the first word (A) or the last word (B)?</p> <br> <div class=""container""> <div id=""a-box""> <p class=""title-text"">A</h3></p> </div> <div id=""x-box""> <p class=""title-text"">X<p> </div> <div id=""b-box""> <p class=""title-text"">B</p></div> <br> <div style='float: left;padding-left:30px;'><p>Press '1' for A</p></div><div style='float: right;padding-right:30px;'><p>Press '0' for B</p> </div> </div></div>","null","","","","","","","","","","","","","",""
"4651","","test","audio-keyboard-response","51","274898","0.0-8.0-1.12","5c8d7f4ca5092100014b00a4","condA","","resources/audio/wordStim/S9_AI_22_bxa_Step-6.wav","49","","","","","AI","resources/audio/wordStim/S9_AI_22_bxa_Step-6.wav","S9","22","bxa","6","CN","1","1","true"
"null","","fixation","html-keyboard-response","52","275909","0.0-8.0-0.13","5c8d7f4ca5092100014b00a4","condA","","<div class=""vertical-center"" style='width:60%;'><p style='font-weight:bold;'>Does the middle word sound more like the first word (A) or the last word (B)?</p> <br> <div class=""container""> <div id=""a-box""> <p class=""title-text"">A</h3></p> </div> <div id=""x-box""> <p class=""title-text"">X<p> </div> <div id=""b-box""> <p class=""title-text"">B</p></div> <br> <div style='float: left;padding-left:30px;'><p>Press '1' for A</p></div><div style='float: right;padding-right:30px;'><p>Press '0' for B</p> </div> </div></div>","null","","","","","","","","","","","","","",""
"3528","","test","audio-keyboard-response","53","279442","0.0-8.0-1.13","5c8d7f4ca5092100014b00a4","condA","","resources/audio/wordStim/S3_AU_18_bxa_Step-2.wav","48","","","","","AU","resources/audio/wordStim/S3_AU_18_bxa_Step-2.wav","S3","18","bxa","2","MI","1","0","false"
"null","","fixation","html-keyboard-response","54","280454","0.0-8.0-0.14","5c8d7f4ca5092100014b00a4","condA","","<div class=""vertical-center"" style='width:60%;'><p style='font-weight:bold;'>Does the middle word sound more like the first word (A) or the last word (B)?</p> <br> <div class=""container""> <div id=""a-box""> <p class=""title-text"">A</h3></p> </div> <div id=""x-box""> <p class=""title-text"">X<p> </div> <div id=""b-box""> <p class=""title-text"">B</p></div> <br> <div style='float: left;padding-left:30px;'><p>Press '1' for A</p></div><div style='float: right;padding-right:30px;'><p>Press '0' for B</p> </div> </div></div>","null","","","","","","","","","","","","","",""
"3939","","test","audio-keyboard-response","55","284402","0.0-8.0-1.14","5c8d7f4ca5092100014b00a4","condA","","resources/audio/wordStim/S3_AU_20_axb_Step-7.wav","49","","","","","AU","resources/audio/wordStim/S3_AU_20_axb_Step-7.wav","S3","20","axb","7","MI","0","1","false"
"null","","fixation","html-keyboard-response","56","285415","0.0-8.0-0.15","5c8d7f4ca5092100014b00a4","condA","","<div class=""vertical-center"" style='width:60%;'><p style='font-weight:bold;'>Does the middle word sound more like the first word (A) or the last word (B)?</p> <br> <div class=""container""> <div id=""a-box""> <p class=""title-text"">A</h3></p> </div> <div id=""x-box""> <p class=""title-text"">X<p> </div> <div id=""b-box""> <p class=""title-text"">B</p></div> <br> <div style='float: left;padding-left:30px;'><p>Press '1' for A</p></div><div style='float: right;padding-right:30px;'><p>Press '0' for B</p> </div> </div></div>","null","","","","","","","","","","","","","",""
"4920","","test","audio-keyboard-response","57","290338","0.0-8.0-1.15","5c8d7f4ca5092100014b00a4","condA","","resources/audio/wordStim/S3_AU_16_axb_Step-9.wav","49","","","","","AU","resources/audio/wordStim/S3_AU_16_axb_Step-9.wav","S3","16","axb","9","MI","0","1","false"
"null","","fixation","html-keyboard-response","58","291355","0.0-8.0-0.16","5c8d7f4ca5092100014b00a4","condA","","<div class=""vertical-center"" style='width:60%;'><p style='font-weight:bold;'>Does the middle word sound more like the first word (A) or the last word (B)?</p> <br> <div class=""container""> <div id=""a-box""> <p class=""title-text"">A</h3></p> </div> <div id=""x-box""> <p class=""title-text"">X<p> </div> <div id=""b-box""> <p class=""title-text"">B</p></div> <br> <div style='float: left;padding-left:30px;'><p>Press '1' for A</p></div><div style='float: right;padding-right:30px;'><p>Press '0' for B</p> </div> </div></div>","null","","","","","","","","","","","","","",""
"3541","","test","audio-keyboard-response","59","294898","0.0-8.0-1.16","5c8d7f4ca5092100014b00a4","condA","","resources/audio/wordStim/S9_AU_18_bxa_Step-8.wav","49","","","","","AU","resources/audio/wordStim/S9_AU_18_bxa_Step-8.wav","S9","18","bxa","8","CN","1","1","true"
"null","","fixation","html-keyboard-response","60","295914","0.0-8.0-0.17","5c8d7f4ca5092100014b00a4","condA","","<div class=""vertical-center"" style='width:60%;'><p style='font-weight:bold;'>Does the middle word sound more like the first word (A) or the last word (B)?</p> <br> <div class=""container""> <div id=""a-box""> <p class=""title-text"">A</h3></p> </div> <div id=""x-box""> <p class=""title-text"">X<p> </div> <div id=""b-box""> <p class=""title-text"">B</p></div> <br> <div style='float: left;padding-left:30px;'><p>Press '1' for A</p></div><div style='float: right;padding-right:30px;'><p>Press '0' for B</p> </div> </div></div>","null","","","","","","","","","","","","","",""
"4752","","test","audio-keyboard-response","61","300674","0.0-8.0-1.17","5c8d7f4ca5092100014b00a4","condA","","resources/audio/wordStim/S3_AI_29_bxa_Step-4.wav","48","","","","","AI","resources/audio/wordStim/S3_AI_29_bxa_Step-4.wav","S3","29","bxa","4","MI","1","0","false"
"null","","fixation","html-keyboard-response","62","301689","0.0-8.0-0.18","5c8d7f4ca5092100014b00a4","condA","","<div class=""vertical-center"" style='width:60%;'><p style='font-weight:bold;'>Does the middle word sound more like the first word (A) or the last word (B)?</p> <br> <div class=""container""> <div id=""a-box""> <p class=""title-text"">A</h3></p> </div> <div id=""x-box""> <p class=""title-text"">X<p> </div> <div id=""b-box""> <p class=""title-text"">B</p></div> <br> <div style='float: left;padding-left:30px;'><p>Press '1' for A</p></div><div style='float: right;padding-right:30px;'><p>Press '0' for B</p> </div> </div></div>","null","","","","","","","","","","","","","",""
"3101","","test","audio-keyboard-response","63","304786","0.0-8.0-1.18","5c8d7f4ca5092100014b00a4","condA","","resources/audio/wordStim/S9_AU_16_bxa_Step-8.wav","49","","","","","AU","resources/audio/wordStim/S9_AU_16_bxa_Step-8.wav","S9","16","bxa","8","CN","1","1","true"
"null","","fixation","html-keyboard-response","64","305810","0.0-8.0-0.19","5c8d7f4ca5092100014b00a4","condA","","<div class=""vertical-center"" style='width:60%;'><p style='font-weight:bold;'>Does the middle word sound more like the first word (A) or the last word (B)?</p> <br> <div class=""container""> <div id=""a-box""> <p class=""title-text"">A</h3></p> </div> <div id=""x-box""> <p class=""title-text"">X<p> </div> <div id=""b-box""> <p class=""title-text"">B</p></div> <br> <div style='float: left;padding-left:30px;'><p>Press '1' for A</p></div><div style='float: right;padding-right:30px;'><p>Press '0' for B</p> </div> </div></div>","null","","","","","","","","","","","","","",""
"3421","","test","audio-keyboard-response","65","309234","0.0-8.0-1.19","5c8d7f4ca5092100014b00a4","condA","","resources/audio/wordStim/S3_AU_18_bxa_Step-6.wav","49","","","","","AU","resources/audio/wordStim/S3_AU_18_bxa_Step-6.wav","S3","18","bxa","6","MI","1","1","true"
"null","","fixation","html-keyboard-response","66","310247","0.0-8.0-0.20","5c8d7f4ca5092100014b00a4","condA","","<div class=""vertical-center"" style='width:60%;'><p style='font-weight:bold;'>Does the middle word sound more like the first word (A) or the last word (B)?</p> <br> <div class=""container""> <div id=""a-box""> <p class=""title-text"">A</h3></p> </div> <div id=""x-box""> <p class=""title-text"">X<p> </div> <div id=""b-box""> <p class=""title-text"">B</p></div> <br> <div style='float: left;padding-left:30px;'><p>Press '1' for A</p></div><div style='float: right;padding-right:30px;'><p>Press '0' for B</p> </div> </div></div>","null","","","","","","","","","","","","","",""
"3800","","test","audio-keyboard-response","67","314050","0.0-8.0-1.20","5c8d7f4ca5092100014b00a4","condA","","resources/audio/wordStim/S9_AU_11_bxa_Step-2.wav","49","","","","","AU","resources/audio/wordStim/S9_AU_11_bxa_Step-2.wav","S9","11","bxa","2","CN","1","1","true"
"null","","fixation","html-keyboard-response","68","315069","0.0-8.0-0.21","5c8d7f4ca5092100014b00a4","condA","","<div class=""vertical-center"" style='width:60%;'><p style='font-weight:bold;'>Does the middle word sound more like the first word (A) or the last word (B)?</p> <br> <div class=""container""> <div id=""a-box""> <p class=""title-text"">A</h3></p> </div> <div id=""x-box""> <p class=""title-text"">X<p> </div> <div id=""b-box""> <p class=""title-text"">B</p></div> <br> <div style='float: left;padding-left:30px;'><p>Press '1' for A</p></div><div style='float: right;padding-right:30px;'><p>Press '0' for B</p> </div> </div></div>","null","","","","","","","","","","","","","",""
"2920","","test","audio-keyboard-response","69","317986","0.0-8.0-1.21","5c8d7f4ca5092100014b00a4","condA","","resources/audio/wordStim/S9_AI_27_axb_Step-9.wav","48","","","","","AI","resources/audio/wordStim/S9_AI_27_axb_Step-9.wav","S9","27","axb","9","CN","0","0","true"
"null","","fixation","html-keyboard-response","70","318997","0.0-8.0-0.22","5c8d7f4ca5092100014b00a4","condA","","<div class=""vertical-center"" style='width:60%;'><p style='font-weight:bold;'>Does the middle word sound more like the first word (A) or the last word (B)?</p> <br> <div class=""container""> <div id=""a-box""> <p class=""title-text"">A</h3></p> </div> <div id=""x-box""> <p class=""title-text"">X<p> </div> <div id=""b-box""> <p class=""title-text"">B</p></div> <br> <div style='float: left;padding-left:30px;'><p>Press '1' for A</p></div><div style='float: right;padding-right:30px;'><p>Press '0' for B</p> </div> </div></div>","null","","","","","","","","","","","","","",""
"2971","","test","audio-keyboard-response","71","321970","0.0-8.0-1.22","5c8d7f4ca5092100014b00a4","condA","","resources/audio/wordStim/S9_AU_18_axb_Step-10.wav","48","","","","","AU","resources/audio/wordStim/S9_AU_18_axb_Step-10.wav","S9","18","axb","10","CN","0","0","true"
"null","","fixation","html-keyboard-response","72","322987","0.0-8.0-0.23","5c8d7f4ca5092100014b00a4","condA","","<div class=""vertical-center"" style='width:60%;'><p style='font-weight:bold;'>Does the middle word sound more like the first word (A) or the last word (B)?</p> <br> <div class=""container""> <div id=""a-box""> <p class=""title-text"">A</h3></p> </div> <div id=""x-box""> <p class=""title-text"">X<p> </div> <div id=""b-box""> <p class=""title-text"">B</p></div> <br> <div style='float: left;padding-left:30px;'><p>Press '1' for A</p></div><div style='float: right;padding-right:30px;'><p>Press '0' for B</p> </div> </div></div>","null","","","","","","","","","","","","","",""
"3749","","test","audio-keyboard-response","73","326738","0.0-8.0-1.23","5c8d7f4ca5092100014b00a4","condA","","resources/audio/wordStim/S3_AU_19_axb_Step-5.wav","48","","","","","AU","resources/audio/wordStim/S3_AU_19_axb_Step-5.wav","S3","19","axb","5","MI","0","0","true"
"null","","fixation","html-keyboard-response","74","327757","0.0-8.0-0.24","5c8d7f4ca5092100014b00a4","condA","","<div class=""vertical-center"" style='width:60%;'><p style='font-weight:bold;'>Does the middle word sound more like the first word (A) or the last word (B)?</p> <br> <div class=""container""> <div id=""a-box""> <p class=""title-text"">A</h3></p> </div> <div id=""x-box""> <p class=""title-text"">X<p> </div> <div id=""b-box""> <p class=""title-text"">B</p></div> <br> <div style='float: left;padding-left:30px;'><p>Press '1' for A</p></div><div style='float: right;padding-right:30px;'><p>Press '0' for B</p> </div> </div></div>","null","","","","","","","","","","","","","",""
"4192","","test","audio-keyboard-response","75","331954","0.0-8.0-1.24","5c8d7f4ca5092100014b00a4","condA","","resources/audio/wordStim/S9_AI_27_axb_Step-10.wav","48","","","","","AI","resources/audio/wordStim/S9_AI_27_axb_Step-10.wav","S9","27","axb","10","CN","0","0","true"
"null","","fixation","html-keyboard-response","76","332974","0.0-8.0-0.25","5c8d7f4ca5092100014b00a4","condA","","<div class=""vertical-center"" style='width:60%;'><p style='font-weight:bold;'>Does the middle word sound more like the first word (A) or the last word (B)?</p> <br> <div class=""container""> <div id=""a-box""> <p class=""title-text"">A</h3></p> </div> <div id=""x-box""> <p class=""title-text"">X<p> </div> <div id=""b-box""> <p class=""title-text"">B</p></div> <br> <div style='float: left;padding-left:30px;'><p>Press '1' for A</p></div><div style='float: right;padding-right:30px;'><p>Press '0' for B</p> </div> </div></div>","null","","","","","","","","","","","","","",""
"5309","","test","audio-keyboard-response","77","338290","0.0-8.0-1.25","5c8d7f4ca5092100014b00a4","condA","","resources/audio/wordStim/S9_AI_24_axb_Step-5.wav","48","","","","","AI","resources/audio/wordStim/S9_AI_24_axb_Step-5.wav","S9","24","axb","5","CN","0","0","true"
"null","","fixation","html-keyboard-response","78","339310","0.0-8.0-0.26","5c8d7f4ca5092100014b00a4","condA","","<div class=""vertical-center"" style='width:60%;'><p style='font-weight:bold;'>Does the middle word sound more like the first word (A) or the last word (B)?</p> <br> <div class=""container""> <div id=""a-box""> <p class=""title-text"">A</h3></p> </div> <div id=""x-box""> <p class=""title-text"">X<p> </div> <div id=""b-box""> <p class=""title-text"">B</p></div> <br> <div style='float: left;padding-left:30px;'><p>Press '1' for A</p></div><div style='float: right;padding-right:30px;'><p>Press '0' for B</p> </div> </div></div>","null","","","","","","","","","","","","","",""
"5040","","test","audio-keyboard-response","79","344354","0.0-8.0-1.26","5c8d7f4ca5092100014b00a4","condA","","resources/audio/wordStim/S9_AI_30_axb_Step-7.wav","49","","","","","AI","resources/audio/wordStim/S9_AI_30_axb_Step-7.wav","S9","30","axb","7","CN","0","1","false"
"3839.0350000117905","","break","html-keyboard-response","80","348706","0.0-8.0-2.26-0.26","5c8d7f4ca5092100014b00a4","condA","","<div class=""vertical-center""><p>Feel free to take a break!</p><i>When you're ready to continue, press SPACE to begin the next trial.</i></p></div>","32","","","","","","","","","","","","","",""
"null","","fixation","html-keyboard-response","81","349220","0.0-8.0-0.27","5c8d7f4ca5092100014b00a4","condA","","<div class=""vertical-center"" style='width:60%;'><p style='font-weight:bold;'>Does the middle word sound more like the first word (A) or the last word (B)?</p> <br> <div class=""container""> <div id=""a-box""> <p class=""title-text"">A</h3></p> </div> <div id=""x-box""> <p class=""title-text"">X<p> </div> <div id=""b-box""> <p class=""title-text"">B</p></div> <br> <div style='float: left;padding-left:30px;'><p>Press '1' for A</p></div><div style='float: right;padding-right:30px;'><p>Press '0' for B</p> </div> </div></div>","null","","","","","","","","","","","","","",""
"3549","","test","audio-keyboard-response","82","352770","0.0-8.0-1.27","5c8d7f4ca5092100014b00a4","condA","","resources/audio/wordStim/S3_AI_29_axb_Step-10.wav","49","","","","","AI","resources/audio/wordStim/S3_AI_29_axb_Step-10.wav","S3","29","axb","10","MI","0","1","false"
"null","","fixation","html-keyboard-response","83","353788","0.0-8.0-0.28","5c8d7f4ca5092100014b00a4","condA","","<div class=""vertical-center"" style='width:60%;'><p style='font-weight:bold;'>Does the middle word sound more like the first word (A) or the last word (B)?</p> <br> <div class=""container""> <div id=""a-box""> <p class=""title-text"">A</h3></p> </div> <div id=""x-box""> <p class=""title-text"">X<p> </div> <div id=""b-box""> <p class=""title-text"">B</p></div> <br> <div style='float: left;padding-left:30px;'><p>Press '1' for A</p></div><div style='float: right;padding-right:30px;'><p>Press '0' for B</p> </div> </div></div>","null","","","","","","","","","","","","","",""
"2928","","test","audio-keyboard-response","84","356722","0.0-8.0-1.28","5c8d7f4ca5092100014b00a4","condA","","resources/audio/wordStim/S3_AI_25_bxa_Step-4.wav","48","","","","","AI","resources/audio/wordStim/S3_AI_25_bxa_Step-4.wav","S3","25","bxa","4","MI","1","0","false"
"null","","fixation","html-keyboard-response","85","357737","0.0-8.0-0.29","5c8d7f4ca5092100014b00a4","condA","","<div class=""vertical-center"" style='width:60%;'><p style='font-weight:bold;'>Does the middle word sound more like the first word (A) or the last word (B)?</p> <br> <div class=""container""> <div id=""a-box""> <p class=""title-text"">A</h3></p> </div> <div id=""x-box""> <p class=""title-text"">X<p> </div> <div id=""b-box""> <p class=""title-text"">B</p></div> <br> <div style='float: left;padding-left:30px;'><p>Press '1' for A</p></div><div style='float: right;padding-right:30px;'><p>Press '0' for B</p> </div> </div></div>","null","","","","","","","","","","","","","",""
"4629","","test","audio-keyboard-response","86","362370","0.0-8.0-1.29","5c8d7f4ca5092100014b00a4","condA","","resources/audio/wordStim/S9_AU_14_axb_Step-10.wav","48","","","","","AU","resources/audio/wordStim/S9_AU_14_axb_Step-10.wav","S9","14","axb","10","CN","0","0","true"
"null","","fixation","html-keyboard-response","87","363386","0.0-8.0-0.30","5c8d7f4ca5092100014b00a4","condA","","<div class=""vertical-center"" style='width:60%;'><p style='font-weight:bold;'>Does the middle word sound more like the first word (A) or the last word (B)?</p> <br> <div class=""container""> <div id=""a-box""> <p class=""title-text"">A</h3></p> </div> <div id=""x-box""> <p class=""title-text"">X<p> </div> <div id=""b-box""> <p class=""title-text"">B</p></div> <br> <div style='float: left;padding-left:30px;'><p>Press '1' for A</p></div><div style='float: right;padding-right:30px;'><p>Press '0' for B</p> </div> </div></div>","null","","","","","","","","","","","","","",""
"3669","","test","audio-keyboard-response","88","367058","0.0-8.0-1.30","5c8d7f4ca5092100014b00a4","condA","","resources/audio/wordStim/S9_AU_13_bxa_Step-2.wav","49","","","","","AU","resources/audio/wordStim/S9_AU_13_bxa_Step-2.wav","S9","13","bxa","2","CN","1","1","true"
"null","","fixation","html-keyboard-response","89","368078","0.0-8.0-0.31","5c8d7f4ca5092100014b00a4","condA","","<div class=""vertical-center"" style='width:60%;'><p style='font-weight:bold;'>Does the middle word sound more like the first word (A) or the last word (B)?</p> <br> <div class=""container""> <div id=""a-box""> <p class=""title-text"">A</h3></p> </div> <div id=""x-box""> <p class=""title-text"">X<p> </div> <div id=""b-box""> <p class=""title-text"">B</p></div> <br> <div style='float: left;padding-left:30px;'><p>Press '1' for A</p></div><div style='float: right;padding-right:30px;'><p>Press '0' for B</p> </div> </div></div>","null","","","","","","","","","","","","","",""
"3411","","test","audio-keyboard-response","90","371490","0.0-8.0-1.31","5c8d7f4ca5092100014b00a4","condA","","resources/audio/wordStim/S3_AU_20_axb_Step-9.wav","48","","","","","AU","resources/audio/wordStim/S3_AU_20_axb_Step-9.wav","S3","20","axb","9","MI","0","0","true"
"null","","fixation","html-keyboard-response","91","372515","0.0-8.0-0.32","5c8d7f4ca5092100014b00a4","condA","","<div class=""vertical-center"" style='width:60%;'><p style='font-weight:bold;'>Does the middle word sound more like the first word (A) or the last word (B)?</p> <br> <div class=""container""> <div id=""a-box""> <p class=""title-text"">A</h3></p> </div> <div id=""x-box""> <p class=""title-text"">X<p> </div> <div id=""b-box""> <p class=""title-text"">B</p></div> <br> <div style='float: left;padding-left:30px;'><p>Press '1' for A</p></div><div style='float: right;padding-right:30px;'><p>Press '0' for B</p> </div> </div></div>","null","","","","","","","","","","","","","",""
"5752","","test","audio-keyboard-response","92","378274","0.0-8.0-1.32","5c8d7f4ca5092100014b00a4","condA","","resources/audio/wordStim/S3_AU_17_bxa_Step-4.wav","49","","","","","AU","resources/audio/wordStim/S3_AU_17_bxa_Step-4.wav","S3","17","bxa","4","MI","1","1","true"
"null","","fixation","html-keyboard-response","93","379291","0.0-8.0-0.33","5c8d7f4ca5092100014b00a4","condA","","<div class=""vertical-center"" style='width:60%;'><p style='font-weight:bold;'>Does the middle word sound more like the first word (A) or the last word (B)?</p> <br> <div class=""container""> <div id=""a-box""> <p class=""title-text"">A</h3></p> </div> <div id=""x-box""> <p class=""title-text"">X<p> </div> <div id=""b-box""> <p class=""title-text"">B</p></div> <br> <div style='float: left;padding-left:30px;'><p>Press '1' for A</p></div><div style='float: right;padding-right:30px;'><p>Press '0' for B</p> </div> </div></div>","null","","","","","","","","","","","","","",""
"3371","","test","audio-keyboard-response","94","382658","0.0-8.0-1.33","5c8d7f4ca5092100014b00a4","condA","","resources/audio/wordStim/S9_AU_19_bxa_Step-4.wav","49","","","","","AU","resources/audio/wordStim/S9_AU_19_bxa_Step-4.wav","S9","19","bxa","4","CN","1","1","true"
"null","","fixation","html-keyboard-response","95","383671","0.0-8.0-0.34","5c8d7f4ca5092100014b00a4","condA","","<div class=""vertical-center"" style='width:60%;'><p style='font-weight:bold;'>Does the middle word sound more like the first word (A) or the last word (B)?</p> <br> <div class=""container""> <div id=""a-box""> <p class=""title-text"">A</h3></p> </div> <div id=""x-box""> <p class=""title-text"">X<p> </div> <div id=""b-box""> <p class=""title-text"">B</p></div> <br> <div style='float: left;padding-left:30px;'><p>Press '1' for A</p></div><div style='float: right;padding-right:30px;'><p>Press '0' for B</p> </div> </div></div>","null","","","","","","","","","","","","","",""
"3640","","test","audio-keyboard-response","96","387314","0.0-8.0-1.34","5c8d7f4ca5092100014b00a4","condA","","resources/audio/wordStim/S3_AI_30_bxa_Step-4.wav","48","","","","","AI","resources/audio/wordStim/S3_AI_30_bxa_Step-4.wav","S3","30","bxa","4","MI","1","0","false"
"null","","fixation","html-keyboard-response","97","388335","0.0-8.0-0.35","5c8d7f4ca5092100014b00a4","condA","","<div class=""vertical-center"" style='width:60%;'><p style='font-weight:bold;'>Does the middle word sound more like the first word (A) or the last word (B)?</p> <br> <div class=""container""> <div id=""a-box""> <p class=""title-text"">A</h3></p> </div> <div id=""x-box""> <p class=""title-text"">X<p> </div> <div id=""b-box""> <p class=""title-text"">B</p></div> <br> <div style='float: left;padding-left:30px;'><p>Press '1' for A</p></div><div style='float: right;padding-right:30px;'><p>Press '0' for B</p> </div> </div></div>","null","","","","","","","","","","","","","",""
"4939","","test","audio-keyboard-response","98","393282","0.0-8.0-1.35","5c8d7f4ca5092100014b00a4","condA","","resources/audio/wordStim/S3_AI_23_bxa_Step-6.wav","49","","","","","AI","resources/audio/wordStim/S3_AI_23_bxa_Step-6.wav","S3","23","bxa","6","MI","1","1","true"
"null","","fixation","html-keyboard-response","99","394305","0.0-8.0-0.36","5c8d7f4ca5092100014b00a4","condA","","<div class=""vertical-center"" style='width:60%;'><p style='font-weight:bold;'>Does the middle word sound more like the first word (A) or the last word (B)?</p> <br> <div class=""container""> <div id=""a-box""> <p class=""title-text"">A</h3></p> </div> <div id=""x-box""> <p class=""title-text"">X<p> </div> <div id=""b-box""> <p class=""title-text"">B</p></div> <br> <div style='float: left;padding-left:30px;'><p>Press '1' for A</p></div><div style='float: right;padding-right:30px;'><p>Press '0' for B</p> </div> </div></div>","null","","","","","","","","","","","","","",""
"3309","","test","audio-keyboard-response","100","397618","0.0-8.0-1.36","5c8d7f4ca5092100014b00a4","condA","","resources/audio/wordStim/S9_AI_30_axb_Step-10.wav","49","","","","","AI","resources/audio/wordStim/S9_AI_30_axb_Step-10.wav","S9","30","axb","10","CN","0","1","false"
"null","","fixation","html-keyboard-response","101","398632","0.0-8.0-0.37","5c8d7f4ca5092100014b00a4","condA","","<div class=""vertical-center"" style='width:60%;'><p style='font-weight:bold;'>Does the middle word sound more like the first word (A) or the last word (B)?</p> <br> <div class=""container""> <div id=""a-box""> <p class=""title-text"">A</h3></p> </div> <div id=""x-box""> <p class=""title-text"">X<p> </div> <div id=""b-box""> <p class=""title-text"">B</p></div> <br> <div style='float: left;padding-left:30px;'><p>Press '1' for A</p></div><div style='float: right;padding-right:30px;'><p>Press '0' for B</p> </div> </div></div>","null","","","","","","","","","","","","","",""
"3688","","test","audio-keyboard-response","102","402322","0.0-8.0-1.37","5c8d7f4ca5092100014b00a4","condA","","resources/audio/wordStim/S3_AU_16_axb_Step-10.wav","48","","","","","AU","resources/audio/wordStim/S3_AU_16_axb_Step-10.wav","S3","16","axb","10","MI","0","0","true"
"null","","fixation","html-keyboard-response","103","403344","0.0-8.0-0.38","5c8d7f4ca5092100014b00a4","condA","","<div class=""vertical-center"" style='width:60%;'><p style='font-weight:bold;'>Does the middle word sound more like the first word (A) or the last word (B)?</p> <br> <div class=""container""> <div id=""a-box""> <p class=""title-text"">A</h3></p> </div> <div id=""x-box""> <p class=""title-text"">X<p> </div> <div id=""b-box""> <p class=""title-text"">B</p></div> <br> <div style='float: left;padding-left:30px;'><p>Press '1' for A</p></div><div style='float: right;padding-right:30px;'><p>Press '0' for B</p> </div> </div></div>","null","","","","","","","","","","","","","",""
"3331","","test","audio-keyboard-response","104","406674","0.0-8.0-1.38","5c8d7f4ca5092100014b00a4","condA","","resources/audio/wordStim/S3_AU_18_axb_Step-7.wav","48","","","","","AU","resources/audio/wordStim/S3_AU_18_axb_Step-7.wav","S3","18","axb","7","MI","0","0","true"
"null","","fixation","html-keyboard-response","105","407694","0.0-8.0-0.39","5c8d7f4ca5092100014b00a4","condA","","<div class=""vertical-center"" style='width:60%;'><p style='font-weight:bold;'>Does the middle word sound more like the first word (A) or the last word (B)?</p> <br> <div class=""container""> <div id=""a-box""> <p class=""title-text"">A</h3></p> </div> <div id=""x-box""> <p class=""title-text"">X<p> </div> <div id=""b-box""> <p class=""title-text"">B</p></div> <br> <div style='float: left;padding-left:30px;'><p>Press '1' for A</p></div><div style='float: right;padding-right:30px;'><p>Press '0' for B</p> </div> </div></div>","null","","","","","","","","","","","","","",""
"3349","","test","audio-keyboard-response","106","411042","0.0-8.0-1.39","5c8d7f4ca5092100014b00a4","condA","","resources/audio/wordStim/S3_AI_22_axb_Step-10.wav","48","","","","","AI","resources/audio/wordStim/S3_AI_22_axb_Step-10.wav","S3","22","axb","10","MI","0","0","true"
"null","","fixation","html-keyboard-response","107","412063","0.0-8.0-0.40","5c8d7f4ca5092100014b00a4","condA","","<div class=""vertical-center"" style='width:60%;'><p style='font-weight:bold;'>Does the middle word sound more like the first word (A) or the last word (B)?</p> <br> <div class=""container""> <div id=""a-box""> <p class=""title-text"">A</h3></p> </div> <div id=""x-box""> <p class=""title-text"">X<p> </div> <div id=""b-box""> <p class=""title-text"">B</p></div> <br> <div style='float: left;padding-left:30px;'><p>Press '1' for A</p></div><div style='float: right;padding-right:30px;'><p>Press '0' for B</p> </div> </div></div>","null","","","","","","","","","","","","","",""
"2840","","test","audio-keyboard-response","108","414898","0.0-8.0-1.40","5c8d7f4ca5092100014b00a4","condA","","resources/audio/wordStim/S9_AI_25_bxa_Step-8.wav","49","","","","","AI","resources/audio/wordStim/S9_AI_25_bxa_Step-8.wav","S9","25","bxa","8","CN","1","1","true"
"null","","fixation","html-keyboard-response","109","415918","0.0-8.0-0.41","5c8d7f4ca5092100014b00a4","condA","","<div class=""vertical-center"" style='width:60%;'><p style='font-weight:bold;'>Does the middle word sound more like the first word (A) or the last word (B)?</p> <br> <div class=""container""> <div id=""a-box""> <p class=""title-text"">A</h3></p> </div> <div id=""x-box""> <p class=""title-text"">X<p> </div> <div id=""b-box""> <p class=""title-text"">B</p></div> <br> <div style='float: left;padding-left:30px;'><p>Press '1' for A</p></div><div style='float: right;padding-right:30px;'><p>Press '0' for B</p> </div> </div></div>","null","","","","","","","","","","","","","",""
"2821","","test","audio-keyboard-response","110","418738","0.0-8.0-1.41","5c8d7f4ca5092100014b00a4","condA","","resources/audio/wordStim/S3_AI_28_axb_Step-9.wav","48","","","","","AI","resources/audio/wordStim/S3_AI_28_axb_Step-9.wav","S3","28","axb","9","MI","0","0","true"
"null","","fixation","html-keyboard-response","111","419762","0.0-8.0-0.42","5c8d7f4ca5092100014b00a4","condA","","<div class=""vertical-center"" style='width:60%;'><p style='font-weight:bold;'>Does the middle word sound more like the first word (A) or the last word (B)?</p> <br> <div class=""container""> <div id=""a-box""> <p class=""title-text"">A</h3></p> </div> <div id=""x-box""> <p class=""title-text"">X<p> </div> <div id=""b-box""> <p class=""title-text"">B</p></div> <br> <div style='float: left;padding-left:30px;'><p>Press '1' for A</p></div><div style='float: right;padding-right:30px;'><p>Press '0' for B</p> </div> </div></div>","null","","","","","","","","","","","","","",""
"2872","","test","audio-keyboard-response","112","422626","0.0-8.0-1.42","5c8d7f4ca5092100014b00a4","condA","","resources/audio/wordStim/S3_AI_28_bxa_Step-2.wav","48","","","","","AI","resources/audio/wordStim/S3_AI_28_bxa_Step-2.wav","S3","28","bxa","2","MI","1","0","false"
"null","","fixation","html-keyboard-response","113","423645","0.0-8.0-0.43","5c8d7f4ca5092100014b00a4","condA","","<div class=""vertical-center"" style='width:60%;'><p style='font-weight:bold;'>Does the middle word sound more like the first word (A) or the last word (B)?</p> <br> <div class=""container""> <div id=""a-box""> <p class=""title-text"">A</h3></p> </div> <div id=""x-box""> <p class=""title-text"">X<p> </div> <div id=""b-box""> <p class=""title-text"">B</p></div> <br> <div style='float: left;padding-left:30px;'><p>Press '1' for A</p></div><div style='float: right;padding-right:30px;'><p>Press '0' for B</p> </div> </div></div>","null","","","","","","","","","","","","","",""
"3461","","test","audio-keyboard-response","114","427106","0.0-8.0-1.43","5c8d7f4ca5092100014b00a4","condA","","resources/audio/wordStim/S3_AU_17_bxa_Step-8.wav","49","","","","","AU","resources/audio/wordStim/S3_AU_17_bxa_Step-8.wav","S3","17","bxa","8","MI","1","1","true"
"null","","fixation","html-keyboard-response","115","428120","0.0-8.0-0.44","5c8d7f4ca5092100014b00a4","condA","","<div class=""vertical-center"" style='width:60%;'><p style='font-weight:bold;'>Does the middle word sound more like the first word (A) or the last word (B)?</p> <br> <div class=""container""> <div id=""a-box""> <p class=""title-text"">A</h3></p> </div> <div id=""x-box""> <p class=""title-text"">X<p> </div> <div id=""b-box""> <p class=""title-text"">B</p></div> <br> <div style='float: left;padding-left:30px;'><p>Press '1' for A</p></div><div style='float: right;padding-right:30px;'><p>Press '0' for B</p> </div> </div></div>","null","","","","","","","","","","","","","",""
"3181","","test","audio-keyboard-response","116","431298","0.0-8.0-1.44","5c8d7f4ca5092100014b00a4","condA","","resources/audio/wordStim/S3_AI_22_axb_Step-7.wav","48","","","","","AI","resources/audio/wordStim/S3_AI_22_axb_Step-7.wav","S3","22","axb","7","MI","0","0","true"
"null","","fixation","html-keyboard-response","117","432323","0.0-8.0-0.45","5c8d7f4ca5092100014b00a4","condA","","<div class=""vertical-center"" style='width:60%;'><p style='font-weight:bold;'>Does the middle word sound more like the first word (A) or the last word (B)?</p> <br> <div class=""container""> <div id=""a-box""> <p class=""title-text"">A</h3></p> </div> <div id=""x-box""> <p class=""title-text"">X<p> </div> <div id=""b-box""> <p class=""title-text"">B</p></div> <br> <div style='float: left;padding-left:30px;'><p>Press '1' for A</p></div><div style='float: right;padding-right:30px;'><p>Press '0' for B</p> </div> </div></div>","null","","","","","","","","","","","","","",""
"3541","","test","audio-keyboard-response","118","435858","0.0-8.0-1.45","5c8d7f4ca5092100014b00a4","condA","","resources/audio/wordStim/S3_AI_25_axb_Step-10.wav","48","","","","","AI","resources/audio/wordStim/S3_AI_25_axb_Step-10.wav","S3","25","axb","10","MI","0","0","true"
"null","","fixation","html-keyboard-response","119","436875","0.0-8.0-0.46","5c8d7f4ca5092100014b00a4","condA","","<div class=""vertical-center"" style='width:60%;'><p style='font-weight:bold;'>Does the middle word sound more like the first word (A) or the last word (B)?</p> <br> <div class=""container""> <div id=""a-box""> <p class=""title-text"">A</h3></p> </div> <div id=""x-box""> <p class=""title-text"">X<p> </div> <div id=""b-box""> <p class=""title-text"">B</p></div> <br> <div style='float: left;padding-left:30px;'><p>Press '1' for A</p></div><div style='float: right;padding-right:30px;'><p>Press '0' for B</p> </div> </div></div>","null","","","","","","","","","","","","","",""
"4352","","test","audio-keyboard-response","120","441234","0.0-8.0-1.46","5c8d7f4ca5092100014b00a4","condA","","resources/audio/wordStim/S3_AI_28_axb_Step-5.wav","48","","","","","AI","resources/audio/wordStim/S3_AI_28_axb_Step-5.wav","S3","28","axb","5","MI","0","0","true"
"null","","fixation","html-keyboard-response","121","442247","0.0-8.0-0.47","5c8d7f4ca5092100014b00a4","condA","","<div class=""vertical-center"" style='width:60%;'><p style='font-weight:bold;'>Does the middle word sound more like the first word (A) or the last word (B)?</p> <br> <div class=""container""> <div id=""a-box""> <p class=""title-text"">A</h3></p> </div> <div id=""x-box""> <p class=""title-text"">X<p> </div> <div id=""b-box""> <p class=""title-text"">B</p></div> <br> <div style='float: left;padding-left:30px;'><p>Press '1' for A</p></div><div style='float: right;padding-right:30px;'><p>Press '0' for B</p> </div> </div></div>","null","","","","","","","","","","","","","",""
"4221","","test","audio-keyboard-response","122","446466","0.0-8.0-1.47","5c8d7f4ca5092100014b00a4","condA","","resources/audio/wordStim/S3_AI_30_axb_Step-7.wav","48","","","","","AI","resources/audio/wordStim/S3_AI_30_axb_Step-7.wav","S3","30","axb","7","MI","0","0","true"
"null","","fixation","html-keyboard-response","123","447493","0.0-8.0-0.48","5c8d7f4ca5092100014b00a4","condA","","<div class=""vertical-center"" style='width:60%;'><p style='font-weight:bold;'>Does the middle word sound more like the first word (A) or the last word (B)?</p> <br> <div class=""container""> <div id=""a-box""> <p class=""title-text"">A</h3></p> </div> <div id=""x-box""> <p class=""title-text"">X<p> </div> <div id=""b-box""> <p class=""title-text"">B</p></div> <br> <div style='float: left;padding-left:30px;'><p>Press '1' for A</p></div><div style='float: right;padding-right:30px;'><p>Press '0' for B</p> </div> </div></div>","null","","","","","","","","","","","","","",""
"4349","","test","audio-keyboard-response","124","451842","0.0-8.0-1.48","5c8d7f4ca5092100014b00a4","condA","","resources/audio/wordStim/S3_AU_15_bxa_Step-4.wav","48","","","","","AU","resources/audio/wordStim/S3_AU_15_bxa_Step-4.wav","S3","15","bxa","4","MI","1","0","false"
"null","","fixation","html-keyboard-response","125","452853","0.0-8.0-0.49","5c8d7f4ca5092100014b00a4","condA","","<div class=""vertical-center"" style='width:60%;'><p style='font-weight:bold;'>Does the middle word sound more like the first word (A) or the last word (B)?</p> <br> <div class=""container""> <div id=""a-box""> <p class=""title-text"">A</h3></p> </div> <div id=""x-box""> <p class=""title-text"">X<p> </div> <div id=""b-box""> <p class=""title-text"">B</p></div> <br> <div style='float: left;padding-left:30px;'><p>Press '1' for A</p></div><div style='float: right;padding-right:30px;'><p>Press '0' for B</p> </div> </div></div>","null","","","","","","","","","","","","","",""
"5229","","test","audio-keyboard-response","126","458082","0.0-8.0-1.49","5c8d7f4ca5092100014b00a4","condA","","resources/audio/wordStim/S9_AI_30_bxa_Step-2.wav","48","","","","","AI","resources/audio/wordStim/S9_AI_30_bxa_Step-2.wav","S9","30","bxa","2","CN","1","0","false"
"null","","fixation","html-keyboard-response","127","459094","0.0-8.0-0.50","5c8d7f4ca5092100014b00a4","condA","","<div class=""vertical-center"" style='width:60%;'><p style='font-weight:bold;'>Does the middle word sound more like the first word (A) or the last word (B)?</p> <br> <div class=""container""> <div id=""a-box""> <p class=""title-text"">A</h3></p> </div> <div id=""x-box""> <p class=""title-text"">X<p> </div> <div id=""b-box""> <p class=""title-text"">B</p></div> <br> <div style='float: left;padding-left:30px;'><p>Press '1' for A</p></div><div style='float: right;padding-right:30px;'><p>Press '0' for B</p> </div> </div></div>","null","","","","","","","","","","","","","",""
"3000","","test","audio-keyboard-response","128","462098","0.0-8.0-1.50","5c8d7f4ca5092100014b00a4","condA","","resources/audio/wordStim/S3_AI_21_axb_Step-5.wav","49","","","","","AI","resources/audio/wordStim/S3_AI_21_axb_Step-5.wav","S3","21","axb","5","MI","0","1","false"
"null","","fixation","html-keyboard-response","129","463114","0.0-8.0-0.51","5c8d7f4ca5092100014b00a4","condA","","<div class=""vertical-center"" style='width:60%;'><p style='font-weight:bold;'>Does the middle word sound more like the first word (A) or the last word (B)?</p> <br> <div class=""container""> <div id=""a-box""> <p class=""title-text"">A</h3></p> </div> <div id=""x-box""> <p class=""title-text"">X<p> </div> <div id=""b-box""> <p class=""title-text"">B</p></div> <br> <div style='float: left;padding-left:30px;'><p>Press '1' for A</p></div><div style='float: right;padding-right:30px;'><p>Press '0' for B</p> </div> </div></div>","null","","","","","","","","","","","","","",""
"3149","","test","audio-keyboard-response","130","466258","0.0-8.0-1.51","5c8d7f4ca5092100014b00a4","condA","","resources/audio/wordStim/S9_AU_18_axb_Step-7.wav","49","","","","","AU","resources/audio/wordStim/S9_AU_18_axb_Step-7.wav","S9","18","axb","7","CN","0","1","false"
"null","","fixation","html-keyboard-response","131","467281","0.0-8.0-0.52","5c8d7f4ca5092100014b00a4","condA","","<div class=""vertical-center"" style='width:60%;'><p style='font-weight:bold;'>Does the middle word sound more like the first word (A) or the last word (B)?</p> <br> <div class=""container""> <div id=""a-box""> <p class=""title-text"">A</h3></p> </div> <div id=""x-box""> <p class=""title-text"">X<p> </div> <div id=""b-box""> <p class=""title-text"">B</p></div> <br> <div style='float: left;padding-left:30px;'><p>Press '1' for A</p></div><div style='float: right;padding-right:30px;'><p>Press '0' for B</p> </div> </div></div>","null","","","","","","","","","","","","","",""
"3552","","test","audio-keyboard-response","132","470834","0.0-8.0-1.52","5c8d7f4ca5092100014b00a4","condA","","resources/audio/wordStim/S9_AI_25_axb_Step-9.wav","48","","","","","AI","resources/audio/wordStim/S9_AI_25_axb_Step-9.wav","S9","25","axb","9","CN","0","0","true"
"null","","fixation","html-keyboard-response","133","471853","0.0-8.0-0.53","5c8d7f4ca5092100014b00a4","condA","","<div class=""vertical-center"" style='width:60%;'><p style='font-weight:bold;'>Does the middle word sound more like the first word (A) or the last word (B)?</p> <br> <div class=""container""> <div id=""a-box""> <p class=""title-text"">A</h3></p> </div> <div id=""x-box""> <p class=""title-text"">X<p> </div> <div id=""b-box""> <p class=""title-text"">B</p></div> <br> <div style='float: left;padding-left:30px;'><p>Press '1' for A</p></div><div style='float: right;padding-right:30px;'><p>Press '0' for B</p> </div> </div></div>","null","","","","","","","","","","","","","",""
"2741","","test","audio-keyboard-response","134","474594","0.0-8.0-1.53","5c8d7f4ca5092100014b00a4","condA","","resources/audio/wordStim/S3_AU_19_bxa_Step-4.wav","48","","","","","AU","resources/audio/wordStim/S3_AU_19_bxa_Step-4.wav","S3","19","bxa","4","MI","1","0","false"
"23413.95499999635","","break","html-keyboard-response","135","498514","0.0-8.0-2.53-0.53","5c8d7f4ca5092100014b00a4","condA","","<div class=""vertical-center""><p>Feel free to take a break!</p><i>When you're ready to continue, press SPACE to begin the next trial.</i></p></div>","32","","","","","","","","","","","","","",""
"null","","fixation","html-keyboard-response","136","499016","0.0-8.0-0.54","5c8d7f4ca5092100014b00a4","condA","","<div class=""vertical-center"" style='width:60%;'><p style='font-weight:bold;'>Does the middle word sound more like the first word (A) or the last word (B)?</p> <br> <div class=""container""> <div id=""a-box""> <p class=""title-text"">A</h3></p> </div> <div id=""x-box""> <p class=""title-text"">X<p> </div> <div id=""b-box""> <p class=""title-text"">B</p></div> <br> <div style='float: left;padding-left:30px;'><p>Press '1' for A</p></div><div style='float: right;padding-right:30px;'><p>Press '0' for B</p> </div> </div></div>","null","","","","","","","","","","","","","",""
"2680","","test","audio-keyboard-response","137","501698","0.0-8.0-1.54","5c8d7f4ca5092100014b00a4","condA","","resources/audio/wordStim/S3_AI_25_axb_Step-5.wav","48","","","","","AI","resources/audio/wordStim/S3_AI_25_axb_Step-5.wav","S3","25","axb","5","MI","0","0","true"
"null","","fixation","html-keyboard-response","138","502721","0.0-8.0-0.55","5c8d7f4ca5092100014b00a4","condA","","<div class=""vertical-center"" style='width:60%;'><p style='font-weight:bold;'>Does the middle word sound more like the first word (A) or the last word (B)?</p> <br> <div class=""container""> <div id=""a-box""> <p class=""title-text"">A</h3></p> </div> <div id=""x-box""> <p class=""title-text"">X<p> </div> <div id=""b-box""> <p class=""title-text"">B</p></div> <br> <div style='float: left;padding-left:30px;'><p>Press '1' for A</p></div><div style='float: right;padding-right:30px;'><p>Press '0' for B</p> </div> </div></div>","null","","","","","","","","","","","","","",""
"3112","","test","audio-keyboard-response","139","505826","0.0-8.0-1.55","5c8d7f4ca5092100014b00a4","condA","","resources/audio/wordStim/S3_AI_23_axb_Step-3.wav","48","","","","","AI","resources/audio/wordStim/S3_AI_23_axb_Step-3.wav","S3","23","axb","3","MI","0","0","true"
"null","","fixation","html-keyboard-response","140","506842","0.0-8.0-0.56","5c8d7f4ca5092100014b00a4","condA","","<div class=""vertical-center"" style='width:60%;'><p style='font-weight:bold;'>Does the middle word sound more like the first word (A) or the last word (B)?</p> <br> <div class=""container""> <div id=""a-box""> <p class=""title-text"">A</h3></p> </div> <div id=""x-box""> <p class=""title-text"">X<p> </div> <div id=""b-box""> <p class=""title-text"">B</p></div> <br> <div style='float: left;padding-left:30px;'><p>Press '1' for A</p></div><div style='float: right;padding-right:30px;'><p>Press '0' for B</p> </div> </div></div>","null","","","","","","","","","","","","","",""
"3912","","test","audio-keyboard-response","141","510754","0.0-8.0-1.56","5c8d7f4ca5092100014b00a4","condA","","resources/audio/wordStim/S3_AI_22_axb_Step-9.wav","49","","","","","AI","resources/audio/wordStim/S3_AI_22_axb_Step-9.wav","S3","22","axb","9","MI","0","1","false"
"null","","fixation","html-keyboard-response","142","511767","0.0-8.0-0.57","5c8d7f4ca5092100014b00a4","condA","","<div class=""vertical-center"" style='width:60%;'><p style='font-weight:bold;'>Does the middle word sound more like the first word (A) or the last word (B)?</p> <br> <div class=""container""> <div id=""a-box""> <p class=""title-text"">A</h3></p> </div> <div id=""x-box""> <p class=""title-text"">X<p> </div> <div id=""b-box""> <p class=""title-text"">B</p></div> <br> <div style='float: left;padding-left:30px;'><p>Press '1' for A</p></div><div style='float: right;padding-right:30px;'><p>Press '0' for B</p> </div> </div></div>","null","","","","","","","","","","","","","",""
"3909","","test","audio-keyboard-response","143","515681","0.0-8.0-1.57","5c8d7f4ca5092100014b00a4","condA","","resources/audio/wordStim/S3_AU_16_bxa_Step-8.wav","49","","","","","AU","resources/audio/wordStim/S3_AU_16_bxa_Step-8.wav","S3","16","bxa","8","MI","1","1","true"
"null","","fixation","html-keyboard-response","144","516701","0.0-8.0-0.58","5c8d7f4ca5092100014b00a4","condA","","<div class=""vertical-center"" style='width:60%;'><p style='font-weight:bold;'>Does the middle word sound more like the first word (A) or the last word (B)?</p> <br> <div class=""container""> <div id=""a-box""> <p class=""title-text"">A</h3></p> </div> <div id=""x-box""> <p class=""title-text"">X<p> </div> <div id=""b-box""> <p class=""title-text"">B</p></div> <br> <div style='float: left;padding-left:30px;'><p>Press '1' for A</p></div><div style='float: right;padding-right:30px;'><p>Press '0' for B</p> </div> </div></div>","null","","","","","","","","","","","","","",""
"5491","","test","audio-keyboard-response","145","522194","0.0-8.0-1.58","5c8d7f4ca5092100014b00a4","condA","","resources/audio/wordStim/S9_AI_23_bxa_Step-4.wav","48","","","","","AI","resources/audio/wordStim/S9_AI_23_bxa_Step-4.wav","S9","23","bxa","4","CN","1","0","false"
"null","","fixation","html-keyboard-response","146","523198","0.0-8.0-0.59","5c8d7f4ca5092100014b00a4","condA","","<div class=""vertical-center"" style='width:60%;'><p style='font-weight:bold;'>Does the middle word sound more like the first word (A) or the last word (B)?</p> <br> <div class=""container""> <div id=""a-box""> <p class=""title-text"">A</h3></p> </div> <div id=""x-box""> <p class=""title-text"">X<p> </div> <div id=""b-box""> <p class=""title-text"">B</p></div> <br> <div style='float: left;padding-left:30px;'><p>Press '1' for A</p></div><div style='float: right;padding-right:30px;'><p>Press '0' for B</p> </div> </div></div>","null","","","","","","","","","","","","","",""
"3141","","test","audio-keyboard-response","147","526337","0.0-8.0-1.59","5c8d7f4ca5092100014b00a4","condA","","resources/audio/wordStim/S9_AI_27_bxa_Step-8.wav","49","","","","","AI","resources/audio/wordStim/S9_AI_27_bxa_Step-8.wav","S9","27","bxa","8","CN","1","1","true"
"null","","fixation","html-keyboard-response","148","527342","0.0-8.0-0.60","5c8d7f4ca5092100014b00a4","condA","","<div class=""vertical-center"" style='width:60%;'><p style='font-weight:bold;'>Does the middle word sound more like the first word (A) or the last word (B)?</p> <br> <div class=""container""> <div id=""a-box""> <p class=""title-text"">A</h3></p> </div> <div id=""x-box""> <p class=""title-text"">X<p> </div> <div id=""b-box""> <p class=""title-text"">B</p></div> <br> <div style='float: left;padding-left:30px;'><p>Press '1' for A</p></div><div style='float: right;padding-right:30px;'><p>Press '0' for B</p> </div> </div></div>","null","","","","","","","","","","","","","",""
"4371","","test","audio-keyboard-response","149","531714","0.0-8.0-1.60","5c8d7f4ca5092100014b00a4","condA","","resources/audio/wordStim/S3_AI_29_bxa_Step-2.wav","48","","","","","AI","resources/audio/wordStim/S3_AI_29_bxa_Step-2.wav","S3","29","bxa","2","MI","1","0","false"
"null","","fixation","html-keyboard-response","150","532735","0.0-8.0-0.61","5c8d7f4ca5092100014b00a4","condA","","<div class=""vertical-center"" style='width:60%;'><p style='font-weight:bold;'>Does the middle word sound more like the first word (A) or the last word (B)?</p> <br> <div class=""container""> <div id=""a-box""> <p class=""title-text"">A</h3></p> </div> <div id=""x-box""> <p class=""title-text"">X<p> </div> <div id=""b-box""> <p class=""title-text"">B</p></div> <br> <div style='float: left;padding-left:30px;'><p>Press '1' for A</p></div><div style='float: right;padding-right:30px;'><p>Press '0' for B</p> </div> </div></div>","null","","","","","","","","","","","","","",""
"3120","","test","audio-keyboard-response","151","535858","0.0-8.0-1.61","5c8d7f4ca5092100014b00a4","condA","","resources/audio/wordStim/S9_AU_14_axb_Step-9.wav","49","","","","","AU","resources/audio/wordStim/S9_AU_14_axb_Step-9.wav","S9","14","axb","9","CN","0","1","false"
"null","","fixation","html-keyboard-response","152","536874","0.0-8.0-0.62","5c8d7f4ca5092100014b00a4","condA","","<div class=""vertical-center"" style='width:60%;'><p style='font-weight:bold;'>Does the middle word sound more like the first word (A) or the last word (B)?</p> <br> <div class=""container""> <div id=""a-box""> <p class=""title-text"">A</h3></p> </div> <div id=""x-box""> <p class=""title-text"">X<p> </div> <div id=""b-box""> <p class=""title-text"">B</p></div> <br> <div style='float: left;padding-left:30px;'><p>Press '1' for A</p></div><div style='float: right;padding-right:30px;'><p>Press '0' for B</p> </div> </div></div>","null","","","","","","","","","","","","","",""
"4640","","test","audio-keyboard-response","153","541522","0.0-8.0-1.62","5c8d7f4ca5092100014b00a4","condA","","resources/audio/wordStim/S3_AI_30_axb_Step-9.wav","48","","","","","AI","resources/audio/wordStim/S3_AI_30_axb_Step-9.wav","S3","30","axb","9","MI","0","0","true"
"null","","fixation","html-keyboard-response","154","542543","0.0-8.0-0.63","5c8d7f4ca5092100014b00a4","condA","","<div class=""vertical-center"" style='width:60%;'><p style='font-weight:bold;'>Does the middle word sound more like the first word (A) or the last word (B)?</p> <br> <div class=""container""> <div id=""a-box""> <p class=""title-text"">A</h3></p> </div> <div id=""x-box""> <p class=""title-text"">X<p> </div> <div id=""b-box""> <p class=""title-text"">B</p></div> <br> <div style='float: left;padding-left:30px;'><p>Press '1' for A</p></div><div style='float: right;padding-right:30px;'><p>Press '0' for B</p> </div> </div></div>","null","","","","","","","","","","","","","",""
"3709","","test","audio-keyboard-response","155","546258","0.0-8.0-1.63","5c8d7f4ca5092100014b00a4","condA","","resources/audio/wordStim/S3_AU_18_bxa_Step-4.wav","48","","","","","AU","resources/audio/wordStim/S3_AU_18_bxa_Step-4.wav","S3","18","bxa","4","MI","1","0","false"
"null","","fixation","html-keyboard-response","156","547279","0.0-8.0-0.64","5c8d7f4ca5092100014b00a4","condA","","<div class=""vertical-center"" style='width:60%;'><p style='font-weight:bold;'>Does the middle word sound more like the first word (A) or the last word (B)?</p> <br> <div class=""container""> <div id=""a-box""> <p class=""title-text"">A</h3></p> </div> <div id=""x-box""> <p class=""title-text"">X<p> </div> <div id=""b-box""> <p class=""title-text"">B</p></div> <br> <div style='float: left;padding-left:30px;'><p>Press '1' for A</p></div><div style='float: right;padding-right:30px;'><p>Press '0' for B</p> </div> </div></div>","null","","","","","","","","","","","","","",""
"3672","","test","audio-keyboard-response","157","550945","0.0-8.0-1.64","5c8d7f4ca5092100014b00a4","condA","","resources/audio/wordStim/S9_AI_23_axb_Step-3.wav","48","","","","","AI","resources/audio/wordStim/S9_AI_23_axb_Step-3.wav","S9","23","axb","3","CN","0","0","true"
"null","","fixation","html-keyboard-response","158","551962","0.0-8.0-0.65","5c8d7f4ca5092100014b00a4","condA","","<div class=""vertical-center"" style='width:60%;'><p style='font-weight:bold;'>Does the middle word sound more like the first word (A) or the last word (B)?</p> <br> <div class=""container""> <div id=""a-box""> <p class=""title-text"">A</h3></p> </div> <div id=""x-box""> <p class=""title-text"">X<p> </div> <div id=""b-box""> <p class=""title-text"">B</p></div> <br> <div style='float: left;padding-left:30px;'><p>Press '1' for A</p></div><div style='float: right;padding-right:30px;'><p>Press '0' for B</p> </div> </div></div>","null","","","","","","","","","","","","","",""
"3712","","test","audio-keyboard-response","159","555665","0.0-8.0-1.65","5c8d7f4ca5092100014b00a4","condA","","resources/audio/wordStim/S3_AU_15_axb_Step-3.wav","48","","","","","AU","resources/audio/wordStim/S3_AU_15_axb_Step-3.wav","S3","15","axb","3","MI","0","0","true"
"null","","fixation","html-keyboard-response","160","556677","0.0-8.0-0.66","5c8d7f4ca5092100014b00a4","condA","","<div class=""vertical-center"" style='width:60%;'><p style='font-weight:bold;'>Does the middle word sound more like the first word (A) or the last word (B)?</p> <br> <div class=""container""> <div id=""a-box""> <p class=""title-text"">A</h3></p> </div> <div id=""x-box""> <p class=""title-text"">X<p> </div> <div id=""b-box""> <p class=""title-text"">B</p></div> <br> <div style='float: left;padding-left:30px;'><p>Press '1' for A</p></div><div style='float: right;padding-right:30px;'><p>Press '0' for B</p> </div> </div></div>","null","","","","","","","","","","","","","",""
"2840","","test","audio-keyboard-response","161","559522","0.0-8.0-1.66","5c8d7f4ca5092100014b00a4","condA","","resources/audio/wordStim/S3_AU_14_axb_Step-9.wav","48","","","","","AU","resources/audio/wordStim/S3_AU_14_axb_Step-9.wav","S3","14","axb","9","MI","0","0","true"
"null","","fixation","html-keyboard-response","162","560532","0.0-8.0-0.67","5c8d7f4ca5092100014b00a4","condA","","<div class=""vertical-center"" style='width:60%;'><p style='font-weight:bold;'>Does the middle word sound more like the first word (A) or the last word (B)?</p> <br> <div class=""container""> <div id=""a-box""> <p class=""title-text"">A</h3></p> </div> <div id=""x-box""> <p class=""title-text"">X<p> </div> <div id=""b-box""> <p class=""title-text"">B</p></div> <br> <div style='float: left;padding-left:30px;'><p>Press '1' for A</p></div><div style='float: right;padding-right:30px;'><p>Press '0' for B</p> </div> </div></div>","null","","","","","","","","","","","","","",""
"3280","","test","audio-keyboard-response","163","563809","0.0-8.0-1.67","5c8d7f4ca5092100014b00a4","condA","","resources/audio/wordStim/S9_AU_19_axb_Step-3.wav","49","","","","","AU","resources/audio/wordStim/S9_AU_19_axb_Step-3.wav","S9","19","axb","3","CN","0","1","false"
"null","","fixation","html-keyboard-response","164","564832","0.0-8.0-0.68","5c8d7f4ca5092100014b00a4","condA","","<div class=""vertical-center"" style='width:60%;'><p style='font-weight:bold;'>Does the middle word sound more like the first word (A) or the last word (B)?</p> <br> <div class=""container""> <div id=""a-box""> <p class=""title-text"">A</h3></p> </div> <div id=""x-box""> <p class=""title-text"">X<p> </div> <div id=""b-box""> <p class=""title-text"">B</p></div> <br> <div style='float: left;padding-left:30px;'><p>Press '1' for A</p></div><div style='float: right;padding-right:30px;'><p>Press '0' for B</p> </div> </div></div>","null","","","","","","","","","","","","","",""
"3349","","test","audio-keyboard-response","165","568178","0.0-8.0-1.68","5c8d7f4ca5092100014b00a4","condA","","resources/audio/wordStim/S9_AI_29_bxa_Step-4.wav","48","","","","","AI","resources/audio/wordStim/S9_AI_29_bxa_Step-4.wav","S9","29","bxa","4","CN","1","0","false"
"null","","fixation","html-keyboard-response","166","569199","0.0-8.0-0.69","5c8d7f4ca5092100014b00a4","condA","","<div class=""vertical-center"" style='width:60%;'><p style='font-weight:bold;'>Does the middle word sound more like the first word (A) or the last word (B)?</p> <br> <div class=""container""> <div id=""a-box""> <p class=""title-text"">A</h3></p> </div> <div id=""x-box""> <p class=""title-text"">X<p> </div> <div id=""b-box""> <p class=""title-text"">B</p></div> <br> <div style='float: left;padding-left:30px;'><p>Press '1' for A</p></div><div style='float: right;padding-right:30px;'><p>Press '0' for B</p> </div> </div></div>","null","","","","","","","","","","","","","",""
"2741","","test","audio-keyboard-response","167","571938","0.0-8.0-1.69","5c8d7f4ca5092100014b00a4","condA","","resources/audio/wordStim/S9_AU_16_bxa_Step-6.wav","49","","","","","AU","resources/audio/wordStim/S9_AU_16_bxa_Step-6.wav","S9","16","bxa","6","CN","1","1","true"
"null","","fixation","html-keyboard-response","168","572954","0.0-8.0-0.70","5c8d7f4ca5092100014b00a4","condA","","<div class=""vertical-center"" style='width:60%;'><p style='font-weight:bold;'>Does the middle word sound more like the first word (A) or the last word (B)?</p> <br> <div class=""container""> <div id=""a-box""> <p class=""title-text"">A</h3></p> </div> <div id=""x-box""> <p class=""title-text"">X<p> </div> <div id=""b-box""> <p class=""title-text"">B</p></div> <br> <div style='float: left;padding-left:30px;'><p>Press '1' for A</p></div><div style='float: right;padding-right:30px;'><p>Press '0' for B</p> </div> </div></div>","null","","","","","","","","","","","","","",""
"2821","","test","audio-keyboard-response","169","575778","0.0-8.0-1.70","5c8d7f4ca5092100014b00a4","condA","","resources/audio/wordStim/S3_AU_20_bxa_Step-8.wav","48","","","","","AU","resources/audio/wordStim/S3_AU_20_bxa_Step-8.wav","S3","20","bxa","8","MI","1","0","false"
"null","","fixation","html-keyboard-response","170","576791","0.0-8.0-0.71","5c8d7f4ca5092100014b00a4","condA","","<div class=""vertical-center"" style='width:60%;'><p style='font-weight:bold;'>Does the middle word sound more like the first word (A) or the last word (B)?</p> <br> <div class=""container""> <div id=""a-box""> <p class=""title-text"">A</h3></p> </div> <div id=""x-box""> <p class=""title-text"">X<p> </div> <div id=""b-box""> <p class=""title-text"">B</p></div> <br> <div style='float: left;padding-left:30px;'><p>Press '1' for A</p></div><div style='float: right;padding-right:30px;'><p>Press '0' for B</p> </div> </div></div>","null","","","","","","","","","","","","","",""
"3440","","test","audio-keyboard-response","171","580226","0.0-8.0-1.71","5c8d7f4ca5092100014b00a4","condA","","resources/audio/wordStim/S3_AU_15_bxa_Step-2.wav","48","","","","","AU","resources/audio/wordStim/S3_AU_15_bxa_Step-2.wav","S3","15","bxa","2","MI","1","0","false"
"null","","fixation","html-keyboard-response","172","581252","0.0-8.0-0.72","5c8d7f4ca5092100014b00a4","condA","","<div class=""vertical-center"" style='width:60%;'><p style='font-weight:bold;'>Does the middle word sound more like the first word (A) or the last word (B)?</p> <br> <div class=""container""> <div id=""a-box""> <p class=""title-text"">A</h3></p> </div> <div id=""x-box""> <p class=""title-text"">X<p> </div> <div id=""b-box""> <p class=""title-text"">B</p></div> <br> <div style='float: left;padding-left:30px;'><p>Press '1' for A</p></div><div style='float: right;padding-right:30px;'><p>Press '0' for B</p> </div> </div></div>","null","","","","","","","","","","","","","",""
"2749","","test","audio-keyboard-response","173","584002","0.0-8.0-1.72","5c8d7f4ca5092100014b00a4","condA","","resources/audio/wordStim/S9_AU_16_axb_Step-7.wav","48","","","","","AU","resources/audio/wordStim/S9_AU_16_axb_Step-7.wav","S9","16","axb","7","CN","0","0","true"
"null","","fixation","html-keyboard-response","174","585013","0.0-8.0-0.73","5c8d7f4ca5092100014b00a4","condA","","<div class=""vertical-center"" style='width:60%;'><p style='font-weight:bold;'>Does the middle word sound more like the first word (A) or the last word (B)?</p> <br> <div class=""container""> <div id=""a-box""> <p class=""title-text"">A</h3></p> </div> <div id=""x-box""> <p class=""title-text"">X<p> </div> <div id=""b-box""> <p class=""title-text"">B</p></div> <br> <div style='float: left;padding-left:30px;'><p>Press '1' for A</p></div><div style='float: right;padding-right:30px;'><p>Press '0' for B</p> </div> </div></div>","null","","","","","","","","","","","","","",""
"2981","","test","audio-keyboard-response","175","587986","0.0-8.0-1.73","5c8d7f4ca5092100014b00a4","condA","","resources/audio/wordStim/S3_AU_11_axb_Step-7.wav","48","","","","","AU","resources/audio/wordStim/S3_AU_11_axb_Step-7.wav","S3","11","axb","7","MI","0","0","true"
"null","","fixation","html-keyboard-response","176","589006","0.0-8.0-0.74","5c8d7f4ca5092100014b00a4","condA","","<div class=""vertical-center"" style='width:60%;'><p style='font-weight:bold;'>Does the middle word sound more like the first word (A) or the last word (B)?</p> <br> <div class=""container""> <div id=""a-box""> <p class=""title-text"">A</h3></p> </div> <div id=""x-box""> <p class=""title-text"">X<p> </div> <div id=""b-box""> <p class=""title-text"">B</p></div> <br> <div style='float: left;padding-left:30px;'><p>Press '1' for A</p></div><div style='float: right;padding-right:30px;'><p>Press '0' for B</p> </div> </div></div>","null","","","","","","","","","","","","","",""
"4000","","test","audio-keyboard-response","177","593010","0.0-8.0-1.74","5c8d7f4ca5092100014b00a4","condA","","resources/audio/wordStim/S3_AI_22_axb_Step-5.wav","49","","","","","AI","resources/audio/wordStim/S3_AI_22_axb_Step-5.wav","S3","22","axb","5","MI","0","1","false"
"null","","fixation","html-keyboard-response","178","594031","0.0-8.0-0.75","5c8d7f4ca5092100014b00a4","condA","","<div class=""vertical-center"" style='width:60%;'><p style='font-weight:bold;'>Does the middle word sound more like the first word (A) or the last word (B)?</p> <br> <div class=""container""> <div id=""a-box""> <p class=""title-text"">A</h3></p> </div> <div id=""x-box""> <p class=""title-text"">X<p> </div> <div id=""b-box""> <p class=""title-text"">B</p></div> <br> <div style='float: left;padding-left:30px;'><p>Press '1' for A</p></div><div style='float: right;padding-right:30px;'><p>Press '0' for B</p> </div> </div></div>","null","","","","","","","","","","","","","",""
"4949","","test","audio-keyboard-response","179","598978","0.0-8.0-1.75","5c8d7f4ca5092100014b00a4","condA","","resources/audio/wordStim/S3_AU_17_axb_Step-10.wav","49","","","","","AU","resources/audio/wordStim/S3_AU_17_axb_Step-10.wav","S3","17","axb","10","MI","0","1","false"
"null","","fixation","html-keyboard-response","180","600005","0.0-8.0-0.76","5c8d7f4ca5092100014b00a4","condA","","<div class=""vertical-center"" style='width:60%;'><p style='font-weight:bold;'>Does the middle word sound more like the first word (A) or the last word (B)?</p> <br> <div class=""container""> <div id=""a-box""> <p class=""title-text"">A</h3></p> </div> <div id=""x-box""> <p class=""title-text"">X<p> </div> <div id=""b-box""> <p class=""title-text"">B</p></div> <br> <div style='float: left;padding-left:30px;'><p>Press '1' for A</p></div><div style='float: right;padding-right:30px;'><p>Press '0' for B</p> </div> </div></div>","null","","","","","","","","","","","","","",""
"3941","","test","audio-keyboard-response","181","603954","0.0-8.0-1.76","5c8d7f4ca5092100014b00a4","condA","","resources/audio/wordStim/S3_AI_29_axb_Step-7.wav","49","","","","","AI","resources/audio/wordStim/S3_AI_29_axb_Step-7.wav","S3","29","axb","7","MI","0","1","false"
"null","","fixation","html-keyboard-response","182","604965","0.0-8.0-0.77","5c8d7f4ca5092100014b00a4","condA","","<div class=""vertical-center"" style='width:60%;'><p style='font-weight:bold;'>Does the middle word sound more like the first word (A) or the last word (B)?</p> <br> <div class=""container""> <div id=""a-box""> <p class=""title-text"">A</h3></p> </div> <div id=""x-box""> <p class=""title-text"">X<p> </div> <div id=""b-box""> <p class=""title-text"">B</p></div> <br> <div style='float: left;padding-left:30px;'><p>Press '1' for A</p></div><div style='float: right;padding-right:30px;'><p>Press '0' for B</p> </div> </div></div>","null","","","","","","","","","","","","","",""
"3221","","test","audio-keyboard-response","183","608194","0.0-8.0-1.77","5c8d7f4ca5092100014b00a4","condA","","resources/audio/wordStim/S3_AU_20_bxa_Step-4.wav","49","","","","","AU","resources/audio/wordStim/S3_AU_20_bxa_Step-4.wav","S3","20","bxa","4","MI","1","1","true"
"null","","fixation","html-keyboard-response","184","609213","0.0-8.0-0.78","5c8d7f4ca5092100014b00a4","condA","","<div class=""vertical-center"" style='width:60%;'><p style='font-weight:bold;'>Does the middle word sound more like the first word (A) or the last word (B)?</p> <br> <div class=""container""> <div id=""a-box""> <p class=""title-text"">A</h3></p> </div> <div id=""x-box""> <p class=""title-text"">X<p> </div> <div id=""b-box""> <p class=""title-text"">B</p></div> <br> <div style='float: left;padding-left:30px;'><p>Press '1' for A</p></div><div style='float: right;padding-right:30px;'><p>Press '0' for B</p> </div> </div></div>","null","","","","","","","","","","","","","",""
"2520","","test","audio-keyboard-response","185","611730","0.0-8.0-1.78","5c8d7f4ca5092100014b00a4","condA","","resources/audio/wordStim/S3_AI_21_bxa_Step-6.wav","49","","","","","AI","resources/audio/wordStim/S3_AI_21_bxa_Step-6.wav","S3","21","bxa","6","MI","1","1","true"
"null","","fixation","html-keyboard-response","186","612754","0.0-8.0-0.79","5c8d7f4ca5092100014b00a4","condA","","<div class=""vertical-center"" style='width:60%;'><p style='font-weight:bold;'>Does the middle word sound more like the first word (A) or the last word (B)?</p> <br> <div class=""container""> <div id=""a-box""> <p class=""title-text"">A</h3></p> </div> <div id=""x-box""> <p class=""title-text"">X<p> </div> <div id=""b-box""> <p class=""title-text"">B</p></div> <br> <div style='float: left;padding-left:30px;'><p>Press '1' for A</p></div><div style='float: right;padding-right:30px;'><p>Press '0' for B</p> </div> </div></div>","null","","","","","","","","","","","","","",""
"4011","","test","audio-keyboard-response","187","616770","0.0-8.0-1.79","5c8d7f4ca5092100014b00a4","condA","","resources/audio/wordStim/S9_AI_30_bxa_Step-6.wav","48","","","","","AI","resources/audio/wordStim/S9_AI_30_bxa_Step-6.wav","S9","30","bxa","6","CN","1","0","false"
"null","","fixation","html-keyboard-response","188","617784","0.0-8.0-0.80","5c8d7f4ca5092100014b00a4","condA","","<div class=""vertical-center"" style='width:60%;'><p style='font-weight:bold;'>Does the middle word sound more like the first word (A) or the last word (B)?</p> <br> <div class=""container""> <div id=""a-box""> <p class=""title-text"">A</h3></p> </div> <div id=""x-box""> <p class=""title-text"">X<p> </div> <div id=""b-box""> <p class=""title-text"">B</p></div> <br> <div style='float: left;padding-left:30px;'><p>Press '1' for A</p></div><div style='float: right;padding-right:30px;'><p>Press '0' for B</p> </div> </div></div>","null","","","","","","","","","","","","","",""
"3160","","test","audio-keyboard-response","189","620946","0.0-8.0-1.80","5c8d7f4ca5092100014b00a4","condA","","resources/audio/wordStim/S9_AU_13_bxa_Step-4.wav","49","","","","","AU","resources/audio/wordStim/S9_AU_13_bxa_Step-4.wav","S9","13","bxa","4","CN","1","1","true"
"11852.469999983441","","break","html-keyboard-response","190","633314","0.0-8.0-2.80-0.80","5c8d7f4ca5092100014b00a4","condA","","<div class=""vertical-center""><p>Feel free to take a break!</p><i>When you're ready to continue, press SPACE to begin the next trial.</i></p></div>","32","","","","","","","","","","","","","",""
"null","","fixation","html-keyboard-response","191","633819","0.0-8.0-0.81","5c8d7f4ca5092100014b00a4","condA","","<div class=""vertical-center"" style='width:60%;'><p style='font-weight:bold;'>Does the middle word sound more like the first word (A) or the last word (B)?</p> <br> <div class=""container""> <div id=""a-box""> <p class=""title-text"">A</h3></p> </div> <div id=""x-box""> <p class=""title-text"">X<p> </div> <div id=""b-box""> <p class=""title-text"">B</p></div> <br> <div style='float: left;padding-left:30px;'><p>Press '1' for A</p></div><div style='float: right;padding-right:30px;'><p>Press '0' for B</p> </div> </div></div>","null","","","","","","","","","","","","","",""
"3091","","test","audio-keyboard-response","192","636914","0.0-8.0-1.81","5c8d7f4ca5092100014b00a4","condA","","resources/audio/wordStim/S3_AI_22_bxa_Step-6.wav","49","","","","","AI","resources/audio/wordStim/S3_AI_22_bxa_Step-6.wav","S3","22","bxa","6","MI","1","1","true"
"null","","fixation","html-keyboard-response","193","637927","0.0-8.0-0.82","5c8d7f4ca5092100014b00a4","condA","","<div class=""vertical-center"" style='width:60%;'><p style='font-weight:bold;'>Does the middle word sound more like the first word (A) or the last word (B)?</p> <br> <div class=""container""> <div id=""a-box""> <p class=""title-text"">A</h3></p> </div> <div id=""x-box""> <p class=""title-text"">X<p> </div> <div id=""b-box""> <p class=""title-text"">B</p></div> <br> <div style='float: left;padding-left:30px;'><p>Press '1' for A</p></div><div style='float: right;padding-right:30px;'><p>Press '0' for B</p> </div> </div></div>","null","","","","","","","","","","","","","",""
"3051","","test","audio-keyboard-response","194","640978","0.0-8.0-1.82","5c8d7f4ca5092100014b00a4","condA","","resources/audio/wordStim/S9_AU_17_bxa_Step-4.wav","48","","","","","AU","resources/audio/wordStim/S9_AU_17_bxa_Step-4.wav","S9","17","bxa","4","CN","1","0","false"
"null","","fixation","html-keyboard-response","195","641992","0.0-8.0-0.83","5c8d7f4ca5092100014b00a4","condA","","<div class=""vertical-center"" style='width:60%;'><p style='font-weight:bold;'>Does the middle word sound more like the first word (A) or the last word (B)?</p> <br> <div class=""container""> <div id=""a-box""> <p class=""title-text"">A</h3></p> </div> <div id=""x-box""> <p class=""title-text"">X<p> </div> <div id=""b-box""> <p class=""title-text"">B</p></div> <br> <div style='float: left;padding-left:30px;'><p>Press '1' for A</p></div><div style='float: right;padding-right:30px;'><p>Press '0' for B</p> </div> </div></div>","null","","","","","","","","","","","","","",""
"5120","","test","audio-keyboard-response","196","647106","0.0-8.0-1.83","5c8d7f4ca5092100014b00a4","condA","","resources/audio/wordStim/S3_AU_18_axb_Step-5.wav","48","","","","","AU","resources/audio/wordStim/S3_AU_18_axb_Step-5.wav","S3","18","axb","5","MI","0","0","true"
"null","","fixation","html-keyboard-response","197","648121","0.0-8.0-0.84","5c8d7f4ca5092100014b00a4","condA","","<div class=""vertical-center"" style='width:60%;'><p style='font-weight:bold;'>Does the middle word sound more like the first word (A) or the last word (B)?</p> <br> <div class=""container""> <div id=""a-box""> <p class=""title-text"">A</h3></p> </div> <div id=""x-box""> <p class=""title-text"">X<p> </div> <div id=""b-box""> <p class=""title-text"">B</p></div> <br> <div style='float: left;padding-left:30px;'><p>Press '1' for A</p></div><div style='float: right;padding-right:30px;'><p>Press '0' for B</p> </div> </div></div>","null","","","","","","","","","","","","","",""
"2840","","test","audio-keyboard-response","198","650962","0.0-8.0-1.84","5c8d7f4ca5092100014b00a4","condA","","resources/audio/wordStim/S9_AI_23_axb_Step-9.wav","48","","","","","AI","resources/audio/wordStim/S9_AI_23_axb_Step-9.wav","S9","23","axb","9","CN","0","0","true"
"null","","fixation","html-keyboard-response","199","651983","0.0-8.0-0.85","5c8d7f4ca5092100014b00a4","condA","","<div class=""vertical-center"" style='width:60%;'><p style='font-weight:bold;'>Does the middle word sound more like the first word (A) or the last word (B)?</p> <br> <div class=""container""> <div id=""a-box""> <p class=""title-text"">A</h3></p> </div> <div id=""x-box""> <p class=""title-text"">X<p> </div> <div id=""b-box""> <p class=""title-text"">B</p></div> <br> <div style='float: left;padding-left:30px;'><p>Press '1' for A</p></div><div style='float: right;padding-right:30px;'><p>Press '0' for B</p> </div> </div></div>","null","","","","","","","","","","","","","",""
"2979","","test","audio-keyboard-response","200","654962","0.0-8.0-1.85","5c8d7f4ca5092100014b00a4","condA","","resources/audio/wordStim/S3_AU_14_axb_Step-10.wav","48","","","","","AU","resources/audio/wordStim/S3_AU_14_axb_Step-10.wav","S3","14","axb","10","MI","0","0","true"
"null","","fixation","html-keyboard-response","201","655980","0.0-8.0-0.86","5c8d7f4ca5092100014b00a4","condA","","<div class=""vertical-center"" style='width:60%;'><p style='font-weight:bold;'>Does the middle word sound more like the first word (A) or the last word (B)?</p> <br> <div class=""container""> <div id=""a-box""> <p class=""title-text"">A</h3></p> </div> <div id=""x-box""> <p class=""title-text"">X<p> </div> <div id=""b-box""> <p class=""title-text"">B</p></div> <br> <div style='float: left;padding-left:30px;'><p>Press '1' for A</p></div><div style='float: right;padding-right:30px;'><p>Press '0' for B</p> </div> </div></div>","null","","","","","","","","","","","","","",""
"3491","","test","audio-keyboard-response","202","659474","0.0-8.0-1.86","5c8d7f4ca5092100014b00a4","condA","","resources/audio/wordStim/S3_AU_15_bxa_Step-6.wav","48","","","","","AU","resources/audio/wordStim/S3_AU_15_bxa_Step-6.wav","S3","15","bxa","6","MI","1","0","false"
"null","","fixation","html-keyboard-response","203","660484","0.0-8.0-0.87","5c8d7f4ca5092100014b00a4","condA","","<div class=""vertical-center"" style='width:60%;'><p style='font-weight:bold;'>Does the middle word sound more like the first word (A) or the last word (B)?</p> <br> <div class=""container""> <div id=""a-box""> <p class=""title-text"">A</h3></p> </div> <div id=""x-box""> <p class=""title-text"">X<p> </div> <div id=""b-box""> <p class=""title-text"">B</p></div> <br> <div style='float: left;padding-left:30px;'><p>Press '1' for A</p></div><div style='float: right;padding-right:30px;'><p>Press '0' for B</p> </div> </div></div>","null","","","","","","","","","","","","","",""
"5421","","test","audio-keyboard-response","204","665906","0.0-8.0-1.87","5c8d7f4ca5092100014b00a4","condA","","resources/audio/wordStim/S9_AI_25_bxa_Step-2.wav","49","","","","","AI","resources/audio/wordStim/S9_AI_25_bxa_Step-2.wav","S9","25","bxa","2","CN","1","1","true"
"null","","fixation","html-keyboard-response","205","666924","0.0-8.0-0.88","5c8d7f4ca5092100014b00a4","condA","","<div class=""vertical-center"" style='width:60%;'><p style='font-weight:bold;'>Does the middle word sound more like the first word (A) or the last word (B)?</p> <br> <div class=""container""> <div id=""a-box""> <p class=""title-text"">A</h3></p> </div> <div id=""x-box""> <p class=""title-text"">X<p> </div> <div id=""b-box""> <p class=""title-text"">B</p></div> <br> <div style='float: left;padding-left:30px;'><p>Press '1' for A</p></div><div style='float: right;padding-right:30px;'><p>Press '0' for B</p> </div> </div></div>","null","","","","","","","","","","","","","",""
"3171","","test","audio-keyboard-response","206","670098","0.0-8.0-1.88","5c8d7f4ca5092100014b00a4","condA","","resources/audio/wordStim/S9_AU_20_bxa_Step-8.wav","49","","","","","AU","resources/audio/wordStim/S9_AU_20_bxa_Step-8.wav","S9","20","bxa","8","CN","1","1","true"
"null","","fixation","html-keyboard-response","207","671108","0.0-8.0-0.89","5c8d7f4ca5092100014b00a4","condA","","<div class=""vertical-center"" style='width:60%;'><p style='font-weight:bold;'>Does the middle word sound more like the first word (A) or the last word (B)?</p> <br> <div class=""container""> <div id=""a-box""> <p class=""title-text"">A</h3></p> </div> <div id=""x-box""> <p class=""title-text"">X<p> </div> <div id=""b-box""> <p class=""title-text"">B</p></div> <br> <div style='float: left;padding-left:30px;'><p>Press '1' for A</p></div><div style='float: right;padding-right:30px;'><p>Press '0' for B</p> </div> </div></div>","null","","","","","","","","","","","","","",""
"3149","","test","audio-keyboard-response","208","674258","0.0-8.0-1.89","5c8d7f4ca5092100014b00a4","condA","","resources/audio/wordStim/S9_AU_17_axb_Step-5.wav","49","","","","","AU","resources/audio/wordStim/S9_AU_17_axb_Step-5.wav","S9","17","axb","5","CN","0","1","false"
"null","","fixation","html-keyboard-response","209","675284","0.0-8.0-0.90","5c8d7f4ca5092100014b00a4","condA","","<div class=""vertical-center"" style='width:60%;'><p style='font-weight:bold;'>Does the middle word sound more like the first word (A) or the last word (B)?</p> <br> <div class=""container""> <div id=""a-box""> <p class=""title-text"">A</h3></p> </div> <div id=""x-box""> <p class=""title-text"">X<p> </div> <div id=""b-box""> <p class=""title-text"">B</p></div> <br> <div style='float: left;padding-left:30px;'><p>Press '1' for A</p></div><div style='float: right;padding-right:30px;'><p>Press '0' for B</p> </div> </div></div>","null","","","","","","","","","","","","","",""
"3301","","test","audio-keyboard-response","210","678594","0.0-8.0-1.90","5c8d7f4ca5092100014b00a4","condA","","resources/audio/wordStim/S3_AU_18_axb_Step-10.wav","48","","","","","AU","resources/audio/wordStim/S3_AU_18_axb_Step-10.wav","S3","18","axb","10","MI","0","0","true"
"null","","fixation","html-keyboard-response","211","679612","0.0-8.0-0.91","5c8d7f4ca5092100014b00a4","condA","","<div class=""vertical-center"" style='width:60%;'><p style='font-weight:bold;'>Does the middle word sound more like the first word (A) or the last word (B)?</p> <br> <div class=""container""> <div id=""a-box""> <p class=""title-text"">A</h3></p> </div> <div id=""x-box""> <p class=""title-text"">X<p> </div> <div id=""b-box""> <p class=""title-text"">B</p></div> <br> <div style='float: left;padding-left:30px;'><p>Press '1' for A</p></div><div style='float: right;padding-right:30px;'><p>Press '0' for B</p> </div> </div></div>","null","","","","","","","","","","","","","",""
"3560","","test","audio-keyboard-response","212","683170","0.0-8.0-1.91","5c8d7f4ca5092100014b00a4","condA","","resources/audio/wordStim/S9_AI_27_axb_Step-7.wav","48","","","","","AI","resources/audio/wordStim/S9_AI_27_axb_Step-7.wav","S9","27","axb","7","CN","0","0","true"
"null","","fixation","html-keyboard-response","213","684184","0.0-8.0-0.92","5c8d7f4ca5092100014b00a4","condA","","<div class=""vertical-center"" style='width:60%;'><p style='font-weight:bold;'>Does the middle word sound more like the first word (A) or the last word (B)?</p> <br> <div class=""container""> <div id=""a-box""> <p class=""title-text"">A</h3></p> </div> <div id=""x-box""> <p class=""title-text"">X<p> </div> <div id=""b-box""> <p class=""title-text"">B</p></div> <br> <div style='float: left;padding-left:30px;'><p>Press '1' for A</p></div><div style='float: right;padding-right:30px;'><p>Press '0' for B</p> </div> </div></div>","null","","","","","","","","","","","","","",""
"3539","","test","audio-keyboard-response","214","687730","0.0-8.0-1.92","5c8d7f4ca5092100014b00a4","condA","","resources/audio/wordStim/S3_AI_28_bxa_Step-8.wav","48","","","","","AI","resources/audio/wordStim/S3_AI_28_bxa_Step-8.wav","S3","28","bxa","8","MI","1","0","false"
