"rt","url","trial_role","trial_type","trial_index","time_elapsed","internal_node_id","participantId","condition","view_history","stimulus","key_press","button_pressed","correct_answer","correct_response","success","vowel","wordStim","speaker","sentNum","order","step","speakerIdentity","raised_answer","key_response","raised_response"
"15881.240000016987","micr.con.consent.html","consent","external-html","0","16460","0.0-0.0","5efe549cd061693579bff438","condA","","","","","","","","","","","","","","","","",""
"43115.72500001057","","instructions","instructions","1","59577","0.0-1.0","5efe549cd061693579bff438","condA","[{""page_index"":0,""viewing_time"":11347.149999986868},{""page_index"":1,""viewing_time"":22354.76000001654},{""page_index"":2,""viewing_time"":9412.974999984726}]","","","","","","","","","","","","","","","",""
"null","","fixation","html-keyboard-response","2","60087","0.0-2.0-0.0","5efe549cd061693579bff438","condA","","<div class=""vertical-center"" style=""font-size:60px;"">+</div>","null","","","","","","","","","","","","","",""
"8723.425000003772","","tonetest","audio-button-response","3","68816","0.0-2.0-1.0","5efe549cd061693579bff438","condA","","../../src/audio/toneTest_4.wav","","0","1","false","","","","","","","","","","",""
"null","","fixation","html-keyboard-response","4","69333","0.0-2.0-0.1","5efe549cd061693579bff438","condA","","<div class=""vertical-center"" style=""font-size:60px;"">+</div>","null","","","","","","","","","","","","","",""
"4100.319999997737","","tonetest","audio-button-response","5","73436","0.0-2.0-1.1","5efe549cd061693579bff438","condA","","../../src/audio/toneTest_4.wav","","1","1","true","","","","","","","","","","",""
"null","","fixation","html-keyboard-response","6","73949","0.0-2.0-0.2","5efe549cd061693579bff438","condA","","<div class=""vertical-center"" style=""font-size:60px;"">+</div>","null","","","","","","","","","","","","","",""
"4114.3949999823235","","tonetest","audio-button-response","7","78066","0.0-2.0-1.2","5efe549cd061693579bff438","condA","","../../src/audio/toneTest_2.wav","","1","1","true","","","","","","","","","","",""
"null","","fixation","html-keyboard-response","8","78568","0.0-2.0-0.3","5efe549cd061693579bff438","condA","","<div class=""vertical-center"" style=""font-size:60px;"">+</div>","null","","","","","","","","","","","","","",""
"1848.8849999848753","","tonetest","audio-button-response","9","80420","0.0-2.0-1.3","5efe549cd061693579bff438","condA","","../../src/audio/toneTest_5.wav","","0","0","true","","","","","","","","","","",""
"null","","fixation","html-keyboard-response","10","80930","0.0-2.0-0.4","5efe549cd061693579bff438","condA","","<div class=""vertical-center"" style=""font-size:60px;"">+</div>","null","","","","","","","","","","","","","",""
"6253.610000014305","","tonetest","audio-button-response","11","87185","0.0-2.0-1.4","5efe549cd061693579bff438","condA","","../../src/audio/toneTest_1.wav","","1","2","false","","","","","","","","","","",""
"null","","fixation","html-keyboard-response","12","87688","0.0-2.0-0.5","5efe549cd061693579bff438","condA","","<div class=""vertical-center"" style=""font-size:60px;"">+</div>","null","","","","","","","","","","","","","",""
"5493.564999982482","","tonetest","audio-button-response","13","93183","0.0-2.0-1.5","5efe549cd061693579bff438","condA","","../../src/audio/toneTest_5.wav","","0","0","true","","","","","","","","","","",""
"5154.470000008587","","instructions","html-keyboard-response","14","98339","0.0-3.0","5efe549cd061693579bff438","condA","","<div class=""vertical-center""><p><b>Your score was 4/6.</b></p><p>If you scored below 6, please ensure that you are wearing headphones and in a quiet location free of distractions.</p><p><i>To continue to the main experiment, press SPACE.</i></p></div>","32","","","","","","","","","","","","","",""
"","","","fullscreen","15","102358","0.0-4.0","5efe549cd061693579bff438","condA","","","","","","","true","","","","","","","","","",""
"4004.2350000003353","","instructions","instructions","16","106366","0.0-5.0","5efe549cd061693579bff438","condA","[{""page_index"":0,""viewing_time"":4003.8000000058673}]","","","","","","","","","","","","","","","",""
"null","","fixation","html-keyboard-response","17","106877","0.0-6.0-0.0","5efe549cd061693579bff438","condA","","<div class=""vertical-center"" style='width:60%;'><p style='font-weight:bold;'>Does the middle word sound more like the first word (A) or the last word (B)?</p> <br> <div class=""container""> <div id=""a-box""> <p class=""title-text"">A</h3></p> </div> <div id=""x-box""> <p class=""title-text"">X<p> </div> <div id=""b-box""> <p class=""title-text"">B</p></div> <br> <div style='float: left;padding-left:30px;'><p>Press '1' for A</p></div><div style='float: right;padding-right:30px;'><p>Press '0' for B</p> </div> </div></div>","null","","","","","","","","","","","","","",""
"14520","","practice","audio-keyboard-response","18","121407","0.0-6.0-1.0","5efe549cd061693579bff438","condA","","resources/audio/practiceStim/S1_AU_14_axb_Step-6.wav","49","","","","","","","","","","","","","",""
"null","","fixation","html-keyboard-response","19","122415","0.0-6.0-0.1","5efe549cd061693579bff438","condA","","<div class=""vertical-center"" style='width:60%;'><p style='font-weight:bold;'>Does the middle word sound more like the first word (A) or the last word (B)?</p> <br> <div class=""container""> <div id=""a-box""> <p class=""title-text"">A</h3></p> </div> <div id=""x-box""> <p class=""title-text"">X<p> </div> <div id=""b-box""> <p class=""title-text"">B</p></div> <br> <div style='float: left;padding-left:30px;'><p>Press '1' for A</p></div><div style='float: right;padding-right:30px;'><p>Press '0' for B</p> </div> </div></div>","null","","","","","","","","","","","","","",""
"5408","","practice","audio-keyboard-response","20","127820","0.0-6.0-1.1","5efe549cd061693579bff438","condA","","resources/audio/practiceStim/S1_AI_21_axb_Step-6.wav","49","","","","","","","","","","","","","",""
"null","","fixation","html-keyboard-response","21","128829","0.0-6.0-0.2","5efe549cd061693579bff438","condA","","<div class=""vertical-center"" style='width:60%;'><p style='font-weight:bold;'>Does the middle word sound more like the first word (A) or the last word (B)?</p> <br> <div class=""container""> <div id=""a-box""> <p class=""title-text"">A</h3></p> </div> <div id=""x-box""> <p class=""title-text"">X<p> </div> <div id=""b-box""> <p class=""title-text"">B</p></div> <br> <div style='float: left;padding-left:30px;'><p>Press '1' for A</p></div><div style='float: right;padding-right:30px;'><p>Press '0' for B</p> </div> </div></div>","null","","","","","","","","","","","","","",""
"11429","","practice","audio-keyboard-response","22","140271","0.0-6.0-1.2","5efe549cd061693579bff438","condA","","resources/audio/practiceStim/S1_AU_14_bxa_Step-6.wav","48","","","","","","","","","","","","","",""
"null","","fixation","html-keyboard-response","23","141295","0.0-6.0-0.3","5efe549cd061693579bff438","condA","","<div class=""vertical-center"" style='width:60%;'><p style='font-weight:bold;'>Does the middle word sound more like the first word (A) or the last word (B)?</p> <br> <div class=""container""> <div id=""a-box""> <p class=""title-text"">A</h3></p> </div> <div id=""x-box""> <p class=""title-text"">X<p> </div> <div id=""b-box""> <p class=""title-text"">B</p></div> <br> <div style='float: left;padding-left:30px;'><p>Press '1' for A</p></div><div style='float: right;padding-right:30px;'><p>Press '0' for B</p> </div> </div></div>","null","","","","","","","","","","","","","",""
"4360","","practice","audio-keyboard-response","24","145655","0.0-6.0-1.3","5efe549cd061693579bff438","condA","","resources/audio/practiceStim/S1_AI_21_bxa_Step-6.wav","49","","","","","","","","","","","","","",""
"2294.435000017984","","instructions","instructions","25","148456","0.0-7.0","5efe549cd061693579bff438","condA","[{""page_index"":0,""viewing_time"":2294.179999997141}]","","","","","","","","","","","","","","","",""
"null","","fixation","html-keyboard-response","26","148971","0.0-8.0-0.0","5efe549cd061693579bff438","condA","","<div class=""vertical-center"" style='width:60%;'><p style='font-weight:bold;'>Does the middle word sound more like the first word (A) or the last word (B)?</p> <br> <div class=""container""> <div id=""a-box""> <p class=""title-text"">A</h3></p> </div> <div id=""x-box""> <p class=""title-text"">X<p> </div> <div id=""b-box""> <p class=""title-text"">B</p></div> <br> <div style='float: left;padding-left:30px;'><p>Press '1' for A</p></div><div style='float: right;padding-right:30px;'><p>Press '0' for B</p> </div> </div></div>","null","","","","","","","","","","","","","",""
"6920","","test","audio-keyboard-response","27","155899","0.0-8.0-1.0","5efe549cd061693579bff438","condA","","resources/audio/wordStim/S9_AI_25_axb_Step-7.wav","48","","","","","AI","resources/audio/wordStim/S9_AI_25_axb_Step-7.wav","S9","25","axb","7","CN","0","0","true"
"null","","fixation","html-keyboard-response","28","156933","0.0-8.0-0.1","5efe549cd061693579bff438","condA","","<div class=""vertical-center"" style='width:60%;'><p style='font-weight:bold;'>Does the middle word sound more like the first word (A) or the last word (B)?</p> <br> <div class=""container""> <div id=""a-box""> <p class=""title-text"">A</h3></p> </div> <div id=""x-box""> <p class=""title-text"">X<p> </div> <div id=""b-box""> <p class=""title-text"">B</p></div> <br> <div style='float: left;padding-left:30px;'><p>Press '1' for A</p></div><div style='float: right;padding-right:30px;'><p>Press '0' for B</p> </div> </div></div>","null","","","","","","","","","","","","","",""
"3899","","test","audio-keyboard-response","29","160834","0.0-8.0-1.1","5efe549cd061693579bff438","condA","","resources/audio/wordStim/S9_AI_27_axb_Step-3.wav","49","","","","","AI","resources/audio/wordStim/S9_AI_27_axb_Step-3.wav","S9","27","axb","3","CN","0","1","false"
"null","","fixation","html-keyboard-response","30","161853","0.0-8.0-0.2","5efe549cd061693579bff438","condA","","<div class=""vertical-center"" style='width:60%;'><p style='font-weight:bold;'>Does the middle word sound more like the first word (A) or the last word (B)?</p> <br> <div class=""container""> <div id=""a-box""> <p class=""title-text"">A</h3></p> </div> <div id=""x-box""> <p class=""title-text"">X<p> </div> <div id=""b-box""> <p class=""title-text"">B</p></div> <br> <div style='float: left;padding-left:30px;'><p>Press '1' for A</p></div><div style='float: right;padding-right:30px;'><p>Press '0' for B</p> </div> </div></div>","null","","","","","","","","","","","","","",""
"3099","","test","audio-keyboard-response","31","164956","0.0-8.0-1.2","5efe549cd061693579bff438","condA","","resources/audio/wordStim/S9_AI_23_axb_Step-9.wav","49","","","","","AI","resources/audio/wordStim/S9_AI_23_axb_Step-9.wav","S9","23","axb","9","CN","0","1","false"
"null","","fixation","html-keyboard-response","32","165973","0.0-8.0-0.3","5efe549cd061693579bff438","condA","","<div class=""vertical-center"" style='width:60%;'><p style='font-weight:bold;'>Does the middle word sound more like the first word (A) or the last word (B)?</p> <br> <div class=""container""> <div id=""a-box""> <p class=""title-text"">A</h3></p> </div> <div id=""x-box""> <p class=""title-text"">X<p> </div> <div id=""b-box""> <p class=""title-text"">B</p></div> <br> <div style='float: left;padding-left:30px;'><p>Press '1' for A</p></div><div style='float: right;padding-right:30px;'><p>Press '0' for B</p> </div> </div></div>","null","","","","","","","","","","","","","",""
"3608","","test","audio-keyboard-response","33","169589","0.0-8.0-1.3","5efe549cd061693579bff438","condA","","resources/audio/wordStim/S3_AU_17_axb_Step-7.wav","49","","","","","AU","resources/audio/wordStim/S3_AU_17_axb_Step-7.wav","S3","17","axb","7","MI","0","1","false"
"null","","fixation","html-keyboard-response","34","170621","0.0-8.0-0.4","5efe549cd061693579bff438","condA","","<div class=""vertical-center"" style='width:60%;'><p style='font-weight:bold;'>Does the middle word sound more like the first word (A) or the last word (B)?</p> <br> <div class=""container""> <div id=""a-box""> <p class=""title-text"">A</h3></p> </div> <div id=""x-box""> <p class=""title-text"">X<p> </div> <div id=""b-box""> <p class=""title-text"">B</p></div> <br> <div style='float: left;padding-left:30px;'><p>Press '1' for A</p></div><div style='float: right;padding-right:30px;'><p>Press '0' for B</p> </div> </div></div>","null","","","","","","","","","","","","","",""
"3621","","test","audio-keyboard-response","35","174246","0.0-8.0-1.4","5efe549cd061693579bff438","condA","","resources/audio/wordStim/S3_AI_22_axb_Step-10.wav","49","","","","","AI","resources/audio/wordStim/S3_AI_22_axb_Step-10.wav","S3","22","axb","10","MI","0","1","false"
"null","","fixation","html-keyboard-response","36","175270","0.0-8.0-0.5","5efe549cd061693579bff438","condA","","<div class=""vertical-center"" style='width:60%;'><p style='font-weight:bold;'>Does the middle word sound more like the first word (A) or the last word (B)?</p> <br> <div class=""container""> <div id=""a-box""> <p class=""title-text"">A</h3></p> </div> <div id=""x-box""> <p class=""title-text"">X<p> </div> <div id=""b-box""> <p class=""title-text"">B</p></div> <br> <div style='float: left;padding-left:30px;'><p>Press '1' for A</p></div><div style='float: right;padding-right:30px;'><p>Press '0' for B</p> </div> </div></div>","null","","","","","","","","","","","","","",""
"5240","","test","audio-keyboard-response","37","180511","0.0-8.0-1.5","5efe549cd061693579bff438","condA","","resources/audio/wordStim/S3_AI_23_axb_Step-5.wav","48","","","","","AI","resources/audio/wordStim/S3_AI_23_axb_Step-5.wav","S3","23","axb","5","MI","0","0","true"
"null","","fixation","html-keyboard-response","38","181526","0.0-8.0-0.6","5efe549cd061693579bff438","condA","","<div class=""vertical-center"" style='width:60%;'><p style='font-weight:bold;'>Does the middle word sound more like the first word (A) or the last word (B)?</p> <br> <div class=""container""> <div id=""a-box""> <p class=""title-text"">A</h3></p> </div> <div id=""x-box""> <p class=""title-text"">X<p> </div> <div id=""b-box""> <p class=""title-text"">B</p></div> <br> <div style='float: left;padding-left:30px;'><p>Press '1' for A</p></div><div style='float: right;padding-right:30px;'><p>Press '0' for B</p> </div> </div></div>","null","","","","","","","","","","","","","",""
"2949","","test","audio-keyboard-response","39","184485","0.0-8.0-1.6","5efe549cd061693579bff438","condA","","resources/audio/wordStim/S3_AI_22_axb_Step-5.wav","49","","","","","AI","resources/audio/wordStim/S3_AI_22_axb_Step-5.wav","S3","22","axb","5","MI","0","1","false"
"null","","fixation","html-keyboard-response","40","185511","0.0-8.0-0.7","5efe549cd061693579bff438","condA","","<div class=""vertical-center"" style='width:60%;'><p style='font-weight:bold;'>Does the middle word sound more like the first word (A) or the last word (B)?</p> <br> <div class=""container""> <div id=""a-box""> <p class=""title-text"">A</h3></p> </div> <div id=""x-box""> <p class=""title-text"">X<p> </div> <div id=""b-box""> <p class=""title-text"">B</p></div> <br> <div style='float: left;padding-left:30px;'><p>Press '1' for A</p></div><div style='float: right;padding-right:30px;'><p>Press '0' for B</p> </div> </div></div>","null","","","","","","","","","","","","","",""
"5189","","test","audio-keyboard-response","41","190702","0.0-8.0-1.7","5efe549cd061693579bff438","condA","","resources/audio/wordStim/S9_AU_16_bxa_Step-4.wav","48","","","","","AU","resources/audio/wordStim/S9_AU_16_bxa_Step-4.wav","S9","16","bxa","4","CN","1","0","false"
"null","","fixation","html-keyboard-response","42","191721","0.0-8.0-0.8","5efe549cd061693579bff438","condA","","<div class=""vertical-center"" style='width:60%;'><p style='font-weight:bold;'>Does the middle word sound more like the first word (A) or the last word (B)?</p> <br> <div class=""container""> <div id=""a-box""> <p class=""title-text"">A</h3></p> </div> <div id=""x-box""> <p class=""title-text"">X<p> </div> <div id=""b-box""> <p class=""title-text"">B</p></div> <br> <div style='float: left;padding-left:30px;'><p>Press '1' for A</p></div><div style='float: right;padding-right:30px;'><p>Press '0' for B</p> </div> </div></div>","null","","","","","","","","","","","","","",""
"3571","","test","audio-keyboard-response","43","195298","0.0-8.0-1.8","5efe549cd061693579bff438","condA","","resources/audio/wordStim/S9_AI_24_axb_Step-3.wav","49","","","","","AI","resources/audio/wordStim/S9_AI_24_axb_Step-3.wav","S9","24","axb","3","CN","0","1","false"
"null","","fixation","html-keyboard-response","44","196316","0.0-8.0-0.9","5efe549cd061693579bff438","condA","","<div class=""vertical-center"" style='width:60%;'><p style='font-weight:bold;'>Does the middle word sound more like the first word (A) or the last word (B)?</p> <br> <div class=""container""> <div id=""a-box""> <p class=""title-text"">A</h3></p> </div> <div id=""x-box""> <p class=""title-text"">X<p> </div> <div id=""b-box""> <p class=""title-text"">B</p></div> <br> <div style='float: left;padding-left:30px;'><p>Press '1' for A</p></div><div style='float: right;padding-right:30px;'><p>Press '0' for B</p> </div> </div></div>","null","","","","","","","","","","","","","",""
"4213","","test","audio-keyboard-response","45","200538","0.0-8.0-1.9","5efe549cd061693579bff438","condA","","resources/audio/wordStim/S3_AU_20_bxa_Step-8.wav","48","","","","","AU","resources/audio/wordStim/S3_AU_20_bxa_Step-8.wav","S3","20","bxa","8","MI","1","0","false"
"null","","fixation","html-keyboard-response","46","201561","0.0-8.0-0.10","5efe549cd061693579bff438","condA","","<div class=""vertical-center"" style='width:60%;'><p style='font-weight:bold;'>Does the middle word sound more like the first word (A) or the last word (B)?</p> <br> <div class=""container""> <div id=""a-box""> <p class=""title-text"">A</h3></p> </div> <div id=""x-box""> <p class=""title-text"">X<p> </div> <div id=""b-box""> <p class=""title-text"">B</p></div> <br> <div style='float: left;padding-left:30px;'><p>Press '1' for A</p></div><div style='float: right;padding-right:30px;'><p>Press '0' for B</p> </div> </div></div>","null","","","","","","","","","","","","","",""
"3709","","test","audio-keyboard-response","47","205278","0.0-8.0-1.10","5efe549cd061693579bff438","condA","","resources/audio/wordStim/S9_AI_22_axb_Step-7.wav","48","","","","","AI","resources/audio/wordStim/S9_AI_22_axb_Step-7.wav","S9","22","axb","7","CN","0","0","true"
"null","","fixation","html-keyboard-response","48","206307","0.0-8.0-0.11","5efe549cd061693579bff438","condA","","<div class=""vertical-center"" style='width:60%;'><p style='font-weight:bold;'>Does the middle word sound more like the first word (A) or the last word (B)?</p> <br> <div class=""container""> <div id=""a-box""> <p class=""title-text"">A</h3></p> </div> <div id=""x-box""> <p class=""title-text"">X<p> </div> <div id=""b-box""> <p class=""title-text"">B</p></div> <br> <div style='float: left;padding-left:30px;'><p>Press '1' for A</p></div><div style='float: right;padding-right:30px;'><p>Press '0' for B</p> </div> </div></div>","null","","","","","","","","","","","","","",""
"3709","","test","audio-keyboard-response","49","210032","0.0-8.0-1.11","5efe549cd061693579bff438","condA","","resources/audio/wordStim/S3_AU_16_axb_Step-10.wav","48","","","","","AU","resources/audio/wordStim/S3_AU_16_axb_Step-10.wav","S3","16","axb","10","MI","0","0","true"
"null","","fixation","html-keyboard-response","50","211058","0.0-8.0-0.12","5efe549cd061693579bff438","condA","","<div class=""vertical-center"" style='width:60%;'><p style='font-weight:bold;'>Does the middle word sound more like the first word (A) or the last word (B)?</p> <br> <div class=""container""> <div id=""a-box""> <p class=""title-text"">A</h3></p> </div> <div id=""x-box""> <p class=""title-text"">X<p> </div> <div id=""b-box""> <p class=""title-text"">B</p></div> <br> <div style='float: left;padding-left:30px;'><p>Press '1' for A</p></div><div style='float: right;padding-right:30px;'><p>Press '0' for B</p> </div> </div></div>","null","","","","","","","","","","","","","",""
"2992","","test","audio-keyboard-response","51","214057","0.0-8.0-1.12","5efe549cd061693579bff438","condA","","resources/audio/wordStim/S3_AI_29_bxa_Step-8.wav","49","","","","","AI","resources/audio/wordStim/S3_AI_29_bxa_Step-8.wav","S3","29","bxa","8","MI","1","1","true"
"null","","fixation","html-keyboard-response","52","215103","0.0-8.0-0.13","5efe549cd061693579bff438","condA","","<div class=""vertical-center"" style='width:60%;'><p style='font-weight:bold;'>Does the middle word sound more like the first word (A) or the last word (B)?</p> <br> <div class=""container""> <div id=""a-box""> <p class=""title-text"">A</h3></p> </div> <div id=""x-box""> <p class=""title-text"">X<p> </div> <div id=""b-box""> <p class=""title-text"">B</p></div> <br> <div style='float: left;padding-left:30px;'><p>Press '1' for A</p></div><div style='float: right;padding-right:30px;'><p>Press '0' for B</p> </div> </div></div>","null","","","","","","","","","","","","","",""
"3221","","test","audio-keyboard-response","53","218328","0.0-8.0-1.13","5efe549cd061693579bff438","condA","","resources/audio/wordStim/S9_AU_14_bxa_Step-8.wav","49","","","","","AU","resources/audio/wordStim/S9_AU_14_bxa_Step-8.wav","S9","14","bxa","8","CN","1","1","true"
"null","","fixation","html-keyboard-response","54","219353","0.0-8.0-0.14","5efe549cd061693579bff438","condA","","<div class=""vertical-center"" style='width:60%;'><p style='font-weight:bold;'>Does the middle word sound more like the first word (A) or the last word (B)?</p> <br> <div class=""container""> <div id=""a-box""> <p class=""title-text"">A</h3></p> </div> <div id=""x-box""> <p class=""title-text"">X<p> </div> <div id=""b-box""> <p class=""title-text"">B</p></div> <br> <div style='float: left;padding-left:30px;'><p>Press '1' for A</p></div><div style='float: right;padding-right:30px;'><p>Press '0' for B</p> </div> </div></div>","null","","","","","","","","","","","","","",""
"3741","","test","audio-keyboard-response","55","223093","0.0-8.0-1.14","5efe549cd061693579bff438","condA","","resources/audio/wordStim/S9_AI_24_bxa_Step-6.wav","48","","","","","AI","resources/audio/wordStim/S9_AI_24_bxa_Step-6.wav","S9","24","bxa","6","CN","1","0","false"
"null","","fixation","html-keyboard-response","56","224116","0.0-8.0-0.15","5efe549cd061693579bff438","condA","","<div class=""vertical-center"" style='width:60%;'><p style='font-weight:bold;'>Does the middle word sound more like the first word (A) or the last word (B)?</p> <br> <div class=""container""> <div id=""a-box""> <p class=""title-text"">A</h3></p> </div> <div id=""x-box""> <p class=""title-text"">X<p> </div> <div id=""b-box""> <p class=""title-text"">B</p></div> <br> <div style='float: left;padding-left:30px;'><p>Press '1' for A</p></div><div style='float: right;padding-right:30px;'><p>Press '0' for B</p> </div> </div></div>","null","","","","","","","","","","","","","",""
"3240","","test","audio-keyboard-response","57","227362","0.0-8.0-1.15","5efe549cd061693579bff438","condA","","resources/audio/wordStim/S9_AU_14_axb_Step-3.wav","49","","","","","AU","resources/audio/wordStim/S9_AU_14_axb_Step-3.wav","S9","14","axb","3","CN","0","1","false"
"null","","fixation","html-keyboard-response","58","228389","0.0-8.0-0.16","5efe549cd061693579bff438","condA","","<div class=""vertical-center"" style='width:60%;'><p style='font-weight:bold;'>Does the middle word sound more like the first word (A) or the last word (B)?</p> <br> <div class=""container""> <div id=""a-box""> <p class=""title-text"">A</h3></p> </div> <div id=""x-box""> <p class=""title-text"">X<p> </div> <div id=""b-box""> <p class=""title-text"">B</p></div> <br> <div style='float: left;padding-left:30px;'><p>Press '1' for A</p></div><div style='float: right;padding-right:30px;'><p>Press '0' for B</p> </div> </div></div>","null","","","","","","","","","","","","","",""
"3029","","test","audio-keyboard-response","59","231419","0.0-8.0-1.16","5efe549cd061693579bff438","condA","","resources/audio/wordStim/S9_AI_29_axb_Step-7.wav","49","","","","","AI","resources/audio/wordStim/S9_AI_29_axb_Step-7.wav","S9","29","axb","7","CN","0","1","false"
"null","","fixation","html-keyboard-response","60","232454","0.0-8.0-0.17","5efe549cd061693579bff438","condA","","<div class=""vertical-center"" style='width:60%;'><p style='font-weight:bold;'>Does the middle word sound more like the first word (A) or the last word (B)?</p> <br> <div class=""container""> <div id=""a-box""> <p class=""title-text"">A</h3></p> </div> <div id=""x-box""> <p class=""title-text"">X<p> </div> <div id=""b-box""> <p class=""title-text"">B</p></div> <br> <div style='float: left;padding-left:30px;'><p>Press '1' for A</p></div><div style='float: right;padding-right:30px;'><p>Press '0' for B</p> </div> </div></div>","null","","","","","","","","","","","","","",""
"5019","","test","audio-keyboard-response","61","237475","0.0-8.0-1.17","5efe549cd061693579bff438","condA","","resources/audio/wordStim/S3_AU_19_axb_Step-3.wav","48","","","","","AU","resources/audio/wordStim/S3_AU_19_axb_Step-3.wav","S3","19","axb","3","MI","0","0","true"
"null","","fixation","html-keyboard-response","62","238507","0.0-8.0-0.18","5efe549cd061693579bff438","condA","","<div class=""vertical-center"" style='width:60%;'><p style='font-weight:bold;'>Does the middle word sound more like the first word (A) or the last word (B)?</p> <br> <div class=""container""> <div id=""a-box""> <p class=""title-text"">A</h3></p> </div> <div id=""x-box""> <p class=""title-text"">X<p> </div> <div id=""b-box""> <p class=""title-text"">B</p></div> <br> <div style='float: left;padding-left:30px;'><p>Press '1' for A</p></div><div style='float: right;padding-right:30px;'><p>Press '0' for B</p> </div> </div></div>","null","","","","","","","","","","","","","",""
"4109","","test","audio-keyboard-response","63","242625","0.0-8.0-1.18","5efe549cd061693579bff438","condA","","resources/audio/wordStim/S3_AU_18_axb_Step-7.wav","49","","","","","AU","resources/audio/wordStim/S3_AU_18_axb_Step-7.wav","S3","18","axb","7","MI","0","1","false"
"null","","fixation","html-keyboard-response","64","243655","0.0-8.0-0.19","5efe549cd061693579bff438","condA","","<div class=""vertical-center"" style='width:60%;'><p style='font-weight:bold;'>Does the middle word sound more like the first word (A) or the last word (B)?</p> <br> <div class=""container""> <div id=""a-box""> <p class=""title-text"">A</h3></p> </div> <div id=""x-box""> <p class=""title-text"">X<p> </div> <div id=""b-box""> <p class=""title-text"">B</p></div> <br> <div style='float: left;padding-left:30px;'><p>Press '1' for A</p></div><div style='float: right;padding-right:30px;'><p>Press '0' for B</p> </div> </div></div>","null","","","","","","","","","","","","","",""
"3272","","test","audio-keyboard-response","65","246942","0.0-8.0-1.19","5efe549cd061693579bff438","condA","","resources/audio/wordStim/S9_AI_22_bxa_Step-6.wav","49","","","","","AI","resources/audio/wordStim/S9_AI_22_bxa_Step-6.wav","S9","22","bxa","6","CN","1","1","true"
"null","","fixation","html-keyboard-response","66","247956","0.0-8.0-0.20","5efe549cd061693579bff438","condA","","<div class=""vertical-center"" style='width:60%;'><p style='font-weight:bold;'>Does the middle word sound more like the first word (A) or the last word (B)?</p> <br> <div class=""container""> <div id=""a-box""> <p class=""title-text"">A</h3></p> </div> <div id=""x-box""> <p class=""title-text"">X<p> </div> <div id=""b-box""> <p class=""title-text"">B</p></div> <br> <div style='float: left;padding-left:30px;'><p>Press '1' for A</p></div><div style='float: right;padding-right:30px;'><p>Press '0' for B</p> </div> </div></div>","null","","","","","","","","","","","","","",""
"3600","","test","audio-keyboard-response","67","251559","0.0-8.0-1.20","5efe549cd061693579bff438","condA","","resources/audio/wordStim/S9_AI_30_axb_Step-9.wav","49","","","","","AI","resources/audio/wordStim/S9_AI_30_axb_Step-9.wav","S9","30","axb","9","CN","0","1","false"
"null","","fixation","html-keyboard-response","68","252579","0.0-8.0-0.21","5efe549cd061693579bff438","condA","","<div class=""vertical-center"" style='width:60%;'><p style='font-weight:bold;'>Does the middle word sound more like the first word (A) or the last word (B)?</p> <br> <div class=""container""> <div id=""a-box""> <p class=""title-text"">A</h3></p> </div> <div id=""x-box""> <p class=""title-text"">X<p> </div> <div id=""b-box""> <p class=""title-text"">B</p></div> <br> <div style='float: left;padding-left:30px;'><p>Press '1' for A</p></div><div style='float: right;padding-right:30px;'><p>Press '0' for B</p> </div> </div></div>","null","","","","","","","","","","","","","",""
"3891","","test","audio-keyboard-response","69","256474","0.0-8.0-1.21","5efe549cd061693579bff438","condA","","resources/audio/wordStim/S3_AU_20_bxa_Step-2.wav","48","","","","","AU","resources/audio/wordStim/S3_AU_20_bxa_Step-2.wav","S3","20","bxa","2","MI","1","0","false"
"null","","fixation","html-keyboard-response","70","257494","0.0-8.0-0.22","5efe549cd061693579bff438","condA","","<div class=""vertical-center"" style='width:60%;'><p style='font-weight:bold;'>Does the middle word sound more like the first word (A) or the last word (B)?</p> <br> <div class=""container""> <div id=""a-box""> <p class=""title-text"">A</h3></p> </div> <div id=""x-box""> <p class=""title-text"">X<p> </div> <div id=""b-box""> <p class=""title-text"">B</p></div> <br> <div style='float: left;padding-left:30px;'><p>Press '1' for A</p></div><div style='float: right;padding-right:30px;'><p>Press '0' for B</p> </div> </div></div>","null","","","","","","","","","","","","","",""
"4469","","test","audio-keyboard-response","71","261968","0.0-8.0-1.22","5efe549cd061693579bff438","condA","","resources/audio/wordStim/S9_AI_25_axb_Step-5.wav","48","","","","","AI","resources/audio/wordStim/S9_AI_25_axb_Step-5.wav","S9","25","axb","5","CN","0","0","true"
"null","","fixation","html-keyboard-response","72","262991","0.0-8.0-0.23","5efe549cd061693579bff438","condA","","<div class=""vertical-center"" style='width:60%;'><p style='font-weight:bold;'>Does the middle word sound more like the first word (A) or the last word (B)?</p> <br> <div class=""container""> <div id=""a-box""> <p class=""title-text"">A</h3></p> </div> <div id=""x-box""> <p class=""title-text"">X<p> </div> <div id=""b-box""> <p class=""title-text"">B</p></div> <br> <div style='float: left;padding-left:30px;'><p>Press '1' for A</p></div><div style='float: right;padding-right:30px;'><p>Press '0' for B</p> </div> </div></div>","null","","","","","","","","","","","","","",""
"2920","","test","audio-keyboard-response","73","265912","0.0-8.0-1.23","5efe549cd061693579bff438","condA","","resources/audio/wordStim/S9_AU_19_axb_Step-10.wav","48","","","","","AU","resources/audio/wordStim/S9_AU_19_axb_Step-10.wav","S9","19","axb","10","CN","0","0","true"
"null","","fixation","html-keyboard-response","74","266919","0.0-8.0-0.24","5efe549cd061693579bff438","condA","","<div class=""vertical-center"" style='width:60%;'><p style='font-weight:bold;'>Does the middle word sound more like the first word (A) or the last word (B)?</p> <br> <div class=""container""> <div id=""a-box""> <p class=""title-text"">A</h3></p> </div> <div id=""x-box""> <p class=""title-text"">X<p> </div> <div id=""b-box""> <p class=""title-text"">B</p></div> <br> <div style='float: left;padding-left:30px;'><p>Press '1' for A</p></div><div style='float: right;padding-right:30px;'><p>Press '0' for B</p> </div> </div></div>","null","","","","","","","","","","","","","",""
"3339","","test","audio-keyboard-response","75","270264","0.0-8.0-1.24","5efe549cd061693579bff438","condA","","resources/audio/wordStim/S3_AI_23_bxa_Step-8.wav","48","","","","","AI","resources/audio/wordStim/S3_AI_23_bxa_Step-8.wav","S3","23","bxa","8","MI","1","0","false"
"null","","fixation","html-keyboard-response","76","271289","0.0-8.0-0.25","5efe549cd061693579bff438","condA","","<div class=""vertical-center"" style='width:60%;'><p style='font-weight:bold;'>Does the middle word sound more like the first word (A) or the last word (B)?</p> <br> <div class=""container""> <div id=""a-box""> <p class=""title-text"">A</h3></p> </div> <div id=""x-box""> <p class=""title-text"">X<p> </div> <div id=""b-box""> <p class=""title-text"">B</p></div> <br> <div style='float: left;padding-left:30px;'><p>Press '1' for A</p></div><div style='float: right;padding-right:30px;'><p>Press '0' for B</p> </div> </div></div>","null","","","","","","","","","","","","","",""
"3659","","test","audio-keyboard-response","77","274951","0.0-8.0-1.25","5efe549cd061693579bff438","condA","","resources/audio/wordStim/S3_AI_21_bxa_Step-6.wav","49","","","","","AI","resources/audio/wordStim/S3_AI_21_bxa_Step-6.wav","S3","21","bxa","6","MI","1","1","true"
"null","","fixation","html-keyboard-response","78","275973","0.0-8.0-0.26","5efe549cd061693579bff438","condA","","<div class=""vertical-center"" style='width:60%;'><p style='font-weight:bold;'>Does the middle word sound more like the first word (A) or the last word (B)?</p> <br> <div class=""container""> <div id=""a-box""> <p class=""title-text"">A</h3></p> </div> <div id=""x-box""> <p class=""title-text"">X<p> </div> <div id=""b-box""> <p class=""title-text"">B</p></div> <br> <div style='float: left;padding-left:30px;'><p>Press '1' for A</p></div><div style='float: right;padding-right:30px;'><p>Press '0' for B</p> </div> </div></div>","null","","","","","","","","","","","","","",""
"2899","","test","audio-keyboard-response","79","278869","0.0-8.0-1.26","5efe549cd061693579bff438","condA","","resources/audio/wordStim/S9_AU_13_axb_Step-5.wav","49","","","","","AU","resources/audio/wordStim/S9_AU_13_axb_Step-5.wav","S9","13","axb","5","CN","0","1","false"
"2565.5450000194833","","break","html-keyboard-response","80","281940","0.0-8.0-2.26-0.26","5efe549cd061693579bff438","condA","","<div class=""vertical-center""><p>Feel free to take a break!</p><i>When you're ready to continue, press SPACE to begin the next trial.</i></p></div>","32","","","","","","","","","","","","","",""
"null","","fixation","html-keyboard-response","81","282444","0.0-8.0-0.27","5efe549cd061693579bff438","condA","","<div class=""vertical-center"" style='width:60%;'><p style='font-weight:bold;'>Does the middle word sound more like the first word (A) or the last word (B)?</p> <br> <div class=""container""> <div id=""a-box""> <p class=""title-text"">A</h3></p> </div> <div id=""x-box""> <p class=""title-text"">X<p> </div> <div id=""b-box""> <p class=""title-text"">B</p></div> <br> <div style='float: left;padding-left:30px;'><p>Press '1' for A</p></div><div style='float: right;padding-right:30px;'><p>Press '0' for B</p> </div> </div></div>","null","","","","","","","","","","","","","",""
"2571","","test","audio-keyboard-response","82","285022","0.0-8.0-1.27","5efe549cd061693579bff438","condA","","resources/audio/wordStim/S3_AU_11_axb_Step-5.wav","49","","","","","AU","resources/audio/wordStim/S3_AU_11_axb_Step-5.wav","S3","11","axb","5","MI","0","1","false"
"null","","fixation","html-keyboard-response","83","286047","0.0-8.0-0.28","5efe549cd061693579bff438","condA","","<div class=""vertical-center"" style='width:60%;'><p style='font-weight:bold;'>Does the middle word sound more like the first word (A) or the last word (B)?</p> <br> <div class=""container""> <div id=""a-box""> <p class=""title-text"">A</h3></p> </div> <div id=""x-box""> <p class=""title-text"">X<p> </div> <div id=""b-box""> <p class=""title-text"">B</p></div> <br> <div style='float: left;padding-left:30px;'><p>Press '1' for A</p></div><div style='float: right;padding-right:30px;'><p>Press '0' for B</p> </div> </div></div>","null","","","","","","","","","","","","","",""
"3059","","test","audio-keyboard-response","84","289118","0.0-8.0-1.28","5efe549cd061693579bff438","condA","","resources/audio/wordStim/S9_AI_23_axb_Step-5.wav","48","","","","","AI","resources/audio/wordStim/S9_AI_23_axb_Step-5.wav","S9","23","axb","5","CN","0","0","true"
"null","","fixation","html-keyboard-response","85","290141","0.0-8.0-0.29","5efe549cd061693579bff438","condA","","<div class=""vertical-center"" style='width:60%;'><p style='font-weight:bold;'>Does the middle word sound more like the first word (A) or the last word (B)?</p> <br> <div class=""container""> <div id=""a-box""> <p class=""title-text"">A</h3></p> </div> <div id=""x-box""> <p class=""title-text"">X<p> </div> <div id=""b-box""> <p class=""title-text"">B</p></div> <br> <div style='float: left;padding-left:30px;'><p>Press '1' for A</p></div><div style='float: right;padding-right:30px;'><p>Press '0' for B</p> </div> </div></div>","null","","","","","","","","","","","","","",""
"3381","","test","audio-keyboard-response","86","293530","0.0-8.0-1.29","5efe549cd061693579bff438","condA","","resources/audio/wordStim/S9_AU_16_bxa_Step-2.wav","48","","","","","AU","resources/audio/wordStim/S9_AU_16_bxa_Step-2.wav","S9","16","bxa","2","CN","1","0","false"
"null","","fixation","html-keyboard-response","87","294560","0.0-8.0-0.30","5efe549cd061693579bff438","condA","","<div class=""vertical-center"" style='width:60%;'><p style='font-weight:bold;'>Does the middle word sound more like the first word (A) or the last word (B)?</p> <br> <div class=""container""> <div id=""a-box""> <p class=""title-text"">A</h3></p> </div> <div id=""x-box""> <p class=""title-text"">X<p> </div> <div id=""b-box""> <p class=""title-text"">B</p></div> <br> <div style='float: left;padding-left:30px;'><p>Press '1' for A</p></div><div style='float: right;padding-right:30px;'><p>Press '0' for B</p> </div> </div></div>","null","","","","","","","","","","","","","",""
"2619","","test","audio-keyboard-response","88","297183","0.0-8.0-1.30","5efe549cd061693579bff438","condA","","resources/audio/wordStim/S3_AU_15_axb_Step-10.wav","48","","","","","AU","resources/audio/wordStim/S3_AU_15_axb_Step-10.wav","S3","15","axb","10","MI","0","0","true"
"null","","fixation","html-keyboard-response","89","298208","0.0-8.0-0.31","5efe549cd061693579bff438","condA","","<div class=""vertical-center"" style='width:60%;'><p style='font-weight:bold;'>Does the middle word sound more like the first word (A) or the last word (B)?</p> <br> <div class=""container""> <div id=""a-box""> <p class=""title-text"">A</h3></p> </div> <div id=""x-box""> <p class=""title-text"">X<p> </div> <div id=""b-box""> <p class=""title-text"">B</p></div> <br> <div style='float: left;padding-left:30px;'><p>Press '1' for A</p></div><div style='float: right;padding-right:30px;'><p>Press '0' for B</p> </div> </div></div>","null","","","","","","","","","","","","","",""
"2419","","test","audio-keyboard-response","90","300634","0.0-8.0-1.31","5efe549cd061693579bff438","condA","","resources/audio/wordStim/S3_AU_15_axb_Step-7.wav","48","","","","","AU","resources/audio/wordStim/S3_AU_15_axb_Step-7.wav","S3","15","axb","7","MI","0","0","true"
"null","","fixation","html-keyboard-response","91","301644","0.0-8.0-0.32","5efe549cd061693579bff438","condA","","<div class=""vertical-center"" style='width:60%;'><p style='font-weight:bold;'>Does the middle word sound more like the first word (A) or the last word (B)?</p> <br> <div class=""container""> <div id=""a-box""> <p class=""title-text"">A</h3></p> </div> <div id=""x-box""> <p class=""title-text"">X<p> </div> <div id=""b-box""> <p class=""title-text"">B</p></div> <br> <div style='float: left;padding-left:30px;'><p>Press '1' for A</p></div><div style='float: right;padding-right:30px;'><p>Press '0' for B</p> </div> </div></div>","null","","","","","","","","","","","","","",""
"3219","","test","audio-keyboard-response","92","304868","0.0-8.0-1.32","5efe549cd061693579bff438","condA","","resources/audio/wordStim/S9_AU_17_axb_Step-7.wav","49","","","","","AU","resources/audio/wordStim/S9_AU_17_axb_Step-7.wav","S9","17","axb","7","CN","0","1","false"
"null","","fixation","html-keyboard-response","93","305888","0.0-8.0-0.33","5efe549cd061693579bff438","condA","","<div class=""vertical-center"" style='width:60%;'><p style='font-weight:bold;'>Does the middle word sound more like the first word (A) or the last word (B)?</p> <br> <div class=""container""> <div id=""a-box""> <p class=""title-text"">A</h3></p> </div> <div id=""x-box""> <p class=""title-text"">X<p> </div> <div id=""b-box""> <p class=""title-text"">B</p></div> <br> <div style='float: left;padding-left:30px;'><p>Press '1' for A</p></div><div style='float: right;padding-right:30px;'><p>Press '0' for B</p> </div> </div></div>","null","","","","","","","","","","","","","",""
"3309","","test","audio-keyboard-response","94","309202","0.0-8.0-1.33","5efe549cd061693579bff438","condA","","resources/audio/wordStim/S3_AU_11_bxa_Step-4.wav","49","","","","","AU","resources/audio/wordStim/S3_AU_11_bxa_Step-4.wav","S3","11","bxa","4","MI","1","1","true"
"null","","fixation","html-keyboard-response","95","310219","0.0-8.0-0.34","5efe549cd061693579bff438","condA","","<div class=""vertical-center"" style='width:60%;'><p style='font-weight:bold;'>Does the middle word sound more like the first word (A) or the last word (B)?</p> <br> <div class=""container""> <div id=""a-box""> <p class=""title-text"">A</h3></p> </div> <div id=""x-box""> <p class=""title-text"">X<p> </div> <div id=""b-box""> <p class=""title-text"">B</p></div> <br> <div style='float: left;padding-left:30px;'><p>Press '1' for A</p></div><div style='float: right;padding-right:30px;'><p>Press '0' for B</p> </div> </div></div>","null","","","","","","","","","","","","","",""
"3451","","test","audio-keyboard-response","96","313671","0.0-8.0-1.34","5efe549cd061693579bff438","condA","","resources/audio/wordStim/S3_AI_25_bxa_Step-4.wav","48","","","","","AI","resources/audio/wordStim/S3_AI_25_bxa_Step-4.wav","S3","25","bxa","4","MI","1","0","false"
"null","","fixation","html-keyboard-response","97","314698","0.0-8.0-0.35","5efe549cd061693579bff438","condA","","<div class=""vertical-center"" style='width:60%;'><p style='font-weight:bold;'>Does the middle word sound more like the first word (A) or the last word (B)?</p> <br> <div class=""container""> <div id=""a-box""> <p class=""title-text"">A</h3></p> </div> <div id=""x-box""> <p class=""title-text"">X<p> </div> <div id=""b-box""> <p class=""title-text"">B</p></div> <br> <div style='float: left;padding-left:30px;'><p>Press '1' for A</p></div><div style='float: right;padding-right:30px;'><p>Press '0' for B</p> </div> </div></div>","null","","","","","","","","","","","","","",""
"2621","","test","audio-keyboard-response","98","317325","0.0-8.0-1.35","5efe549cd061693579bff438","condA","","resources/audio/wordStim/S3_AU_14_bxa_Step-6.wav","48","","","","","AU","resources/audio/wordStim/S3_AU_14_bxa_Step-6.wav","S3","14","bxa","6","MI","1","0","false"
"null","","fixation","html-keyboard-response","99","318337","0.0-8.0-0.36","5efe549cd061693579bff438","condA","","<div class=""vertical-center"" style='width:60%;'><p style='font-weight:bold;'>Does the middle word sound more like the first word (A) or the last word (B)?</p> <br> <div class=""container""> <div id=""a-box""> <p class=""title-text"">A</h3></p> </div> <div id=""x-box""> <p class=""title-text"">X<p> </div> <div id=""b-box""> <p class=""title-text"">B</p></div> <br> <div style='float: left;padding-left:30px;'><p>Press '1' for A</p></div><div style='float: right;padding-right:30px;'><p>Press '0' for B</p> </div> </div></div>","null","","","","","","","","","","","","","",""
"2989","","test","audio-keyboard-response","100","321326","0.0-8.0-1.36","5efe549cd061693579bff438","condA","","resources/audio/wordStim/S9_AI_22_axb_Step-10.wav","49","","","","","AI","resources/audio/wordStim/S9_AI_22_axb_Step-10.wav","S9","22","axb","10","CN","0","1","false"
"null","","fixation","html-keyboard-response","101","322332","0.0-8.0-0.37","5efe549cd061693579bff438","condA","","<div class=""vertical-center"" style='width:60%;'><p style='font-weight:bold;'>Does the middle word sound more like the first word (A) or the last word (B)?</p> <br> <div class=""container""> <div id=""a-box""> <p class=""title-text"">A</h3></p> </div> <div id=""x-box""> <p class=""title-text"">X<p> </div> <div id=""b-box""> <p class=""title-text"">B</p></div> <br> <div style='float: left;padding-left:30px;'><p>Press '1' for A</p></div><div style='float: right;padding-right:30px;'><p>Press '0' for B</p> </div> </div></div>","null","","","","","","","","","","","","","",""
"7859","","test","audio-keyboard-response","102","330192","0.0-8.0-1.37","5efe549cd061693579bff438","condA","","resources/audio/wordStim/S9_AU_20_axb_Step-3.wav","48","","","","","AU","resources/audio/wordStim/S9_AU_20_axb_Step-3.wav","S9","20","axb","3","CN","0","0","true"
"null","","fixation","html-keyboard-response","103","331217","0.0-8.0-0.38","5efe549cd061693579bff438","condA","","<div class=""vertical-center"" style='width:60%;'><p style='font-weight:bold;'>Does the middle word sound more like the first word (A) or the last word (B)?</p> <br> <div class=""container""> <div id=""a-box""> <p class=""title-text"">A</h3></p> </div> <div id=""x-box""> <p class=""title-text"">X<p> </div> <div id=""b-box""> <p class=""title-text"">B</p></div> <br> <div style='float: left;padding-left:30px;'><p>Press '1' for A</p></div><div style='float: right;padding-right:30px;'><p>Press '0' for B</p> </div> </div></div>","null","","","","","","","","","","","","","",""
"3272","","test","audio-keyboard-response","104","334502","0.0-8.0-1.38","5efe549cd061693579bff438","condA","","resources/audio/wordStim/S3_AU_16_axb_Step-5.wav","49","","","","","AU","resources/audio/wordStim/S3_AU_16_axb_Step-5.wav","S3","16","axb","5","MI","0","1","false"
"null","","fixation","html-keyboard-response","105","335532","0.0-8.0-0.39","5efe549cd061693579bff438","condA","","<div class=""vertical-center"" style='width:60%;'><p style='font-weight:bold;'>Does the middle word sound more like the first word (A) or the last word (B)?</p> <br> <div class=""container""> <div id=""a-box""> <p class=""title-text"">A</h3></p> </div> <div id=""x-box""> <p class=""title-text"">X<p> </div> <div id=""b-box""> <p class=""title-text"">B</p></div> <br> <div style='float: left;padding-left:30px;'><p>Press '1' for A</p></div><div style='float: right;padding-right:30px;'><p>Press '0' for B</p> </div> </div></div>","null","","","","","","","","","","","","","",""
"3349","","test","audio-keyboard-response","106","338884","0.0-8.0-1.39","5efe549cd061693579bff438","condA","","resources/audio/wordStim/S9_AU_20_axb_Step-9.wav","48","","","","","AU","resources/audio/wordStim/S9_AU_20_axb_Step-9.wav","S9","20","axb","9","CN","0","0","true"
"null","","fixation","html-keyboard-response","107","339901","0.0-8.0-0.40","5efe549cd061693579bff438","condA","","<div class=""vertical-center"" style='width:60%;'><p style='font-weight:bold;'>Does the middle word sound more like the first word (A) or the last word (B)?</p> <br> <div class=""container""> <div id=""a-box""> <p class=""title-text"">A</h3></p> </div> <div id=""x-box""> <p class=""title-text"">X<p> </div> <div id=""b-box""> <p class=""title-text"">B</p></div> <br> <div style='float: left;padding-left:30px;'><p>Press '1' for A</p></div><div style='float: right;padding-right:30px;'><p>Press '0' for B</p> </div> </div></div>","null","","","","","","","","","","","","","",""
"2941","","test","audio-keyboard-response","108","342847","0.0-8.0-1.40","5efe549cd061693579bff438","condA","","resources/audio/wordStim/S3_AI_28_bxa_Step-4.wav","49","","","","","AI","resources/audio/wordStim/S3_AI_28_bxa_Step-4.wav","S3","28","bxa","4","MI","1","1","true"
"null","","fixation","html-keyboard-response","109","343856","0.0-8.0-0.41","5efe549cd061693579bff438","condA","","<div class=""vertical-center"" style='width:60%;'><p style='font-weight:bold;'>Does the middle word sound more like the first word (A) or the last word (B)?</p> <br> <div class=""container""> <div id=""a-box""> <p class=""title-text"">A</h3></p> </div> <div id=""x-box""> <p class=""title-text"">X<p> </div> <div id=""b-box""> <p class=""title-text"">B</p></div> <br> <div style='float: left;padding-left:30px;'><p>Press '1' for A</p></div><div style='float: right;padding-right:30px;'><p>Press '0' for B</p> </div> </div></div>","null","","","","","","","","","","","","","",""
"2480","","test","audio-keyboard-response","110","346352","0.0-8.0-1.41","5efe549cd061693579bff438","condA","","resources/audio/wordStim/S3_AI_25_axb_Step-5.wav","49","","","","","AI","resources/audio/wordStim/S3_AI_25_axb_Step-5.wav","S3","25","axb","5","MI","0","1","false"
"null","","fixation","html-keyboard-response","111","347369","0.0-8.0-0.42","5efe549cd061693579bff438","condA","","<div class=""vertical-center"" style='width:60%;'><p style='font-weight:bold;'>Does the middle word sound more like the first word (A) or the last word (B)?</p> <br> <div class=""container""> <div id=""a-box""> <p class=""title-text"">A</h3></p> </div> <div id=""x-box""> <p class=""title-text"">X<p> </div> <div id=""b-box""> <p class=""title-text"">B</p></div> <br> <div style='float: left;padding-left:30px;'><p>Press '1' for A</p></div><div style='float: right;padding-right:30px;'><p>Press '0' for B</p> </div> </div></div>","null","","","","","","","","","","","","","",""
"3400","","test","audio-keyboard-response","112","350778","0.0-8.0-1.42","5efe549cd061693579bff438","condA","","resources/audio/wordStim/S3_AU_16_bxa_Step-4.wav","48","","","","","AU","resources/audio/wordStim/S3_AU_16_bxa_Step-4.wav","S3","16","bxa","4","MI","1","0","false"
"null","","fixation","html-keyboard-response","113","351807","0.0-8.0-0.43","5efe549cd061693579bff438","condA","","<div class=""vertical-center"" style='width:60%;'><p style='font-weight:bold;'>Does the middle word sound more like the first word (A) or the last word (B)?</p> <br> <div class=""container""> <div id=""a-box""> <p class=""title-text"">A</h3></p> </div> <div id=""x-box""> <p class=""title-text"">X<p> </div> <div id=""b-box""> <p class=""title-text"">B</p></div> <br> <div style='float: left;padding-left:30px;'><p>Press '1' for A</p></div><div style='float: right;padding-right:30px;'><p>Press '0' for B</p> </div> </div></div>","null","","","","","","","","","","","","","",""
"3589","","test","audio-keyboard-response","114","355393","0.0-8.0-1.43","5efe549cd061693579bff438","condA","","resources/audio/wordStim/S3_AU_17_axb_Step-9.wav","49","","","","","AU","resources/audio/wordStim/S3_AU_17_axb_Step-9.wav","S3","17","axb","9","MI","0","1","false"
"null","","fixation","html-keyboard-response","115","356409","0.0-8.0-0.44","5efe549cd061693579bff438","condA","","<div class=""vertical-center"" style='width:60%;'><p style='font-weight:bold;'>Does the middle word sound more like the first word (A) or the last word (B)?</p> <br> <div class=""container""> <div id=""a-box""> <p class=""title-text"">A</h3></p> </div> <div id=""x-box""> <p class=""title-text"">X<p> </div> <div id=""b-box""> <p class=""title-text"">B</p></div> <br> <div style='float: left;padding-left:30px;'><p>Press '1' for A</p></div><div style='float: right;padding-right:30px;'><p>Press '0' for B</p> </div> </div></div>","null","","","","","","","","","","","","","",""
"2600","","test","audio-keyboard-response","116","359021","0.0-8.0-1.44","5efe549cd061693579bff438","condA","","resources/audio/wordStim/S9_AU_17_axb_Step-5.wav","49","","","","","AU","resources/audio/wordStim/S9_AU_17_axb_Step-5.wav","S9","17","axb","5","CN","0","1","false"
"null","","fixation","html-keyboard-response","117","360053","0.0-8.0-0.45","5efe549cd061693579bff438","condA","","<div class=""vertical-center"" style='width:60%;'><p style='font-weight:bold;'>Does the middle word sound more like the first word (A) or the last word (B)?</p> <br> <div class=""container""> <div id=""a-box""> <p class=""title-text"">A</h3></p> </div> <div id=""x-box""> <p class=""title-text"">X<p> </div> <div id=""b-box""> <p class=""title-text"">B</p></div> <br> <div style='float: left;padding-left:30px;'><p>Press '1' for A</p></div><div style='float: right;padding-right:30px;'><p>Press '0' for B</p> </div> </div></div>","null","","","","","","","","","","","","","",""
"2749","","test","audio-keyboard-response","118","362808","0.0-8.0-1.45","5efe549cd061693579bff438","condA","","resources/audio/wordStim/S9_AI_30_bxa_Step-4.wav","48","","","","","AI","resources/audio/wordStim/S9_AI_30_bxa_Step-4.wav","S9","30","bxa","4","CN","1","0","false"
"null","","fixation","html-keyboard-response","119","363833","0.0-8.0-0.46","5efe549cd061693579bff438","condA","","<div class=""vertical-center"" style='width:60%;'><p style='font-weight:bold;'>Does the middle word sound more like the first word (A) or the last word (B)?</p> <br> <div class=""container""> <div id=""a-box""> <p class=""title-text"">A</h3></p> </div> <div id=""x-box""> <p class=""title-text"">X<p> </div> <div id=""b-box""> <p class=""title-text"">B</p></div> <br> <div style='float: left;padding-left:30px;'><p>Press '1' for A</p></div><div style='float: right;padding-right:30px;'><p>Press '0' for B</p> </div> </div></div>","null","","","","","","","","","","","","","",""
"2429","","test","audio-keyboard-response","120","366262","0.0-8.0-1.46","5efe549cd061693579bff438","condA","","resources/audio/wordStim/S3_AU_19_axb_Step-7.wav","48","","","","","AU","resources/audio/wordStim/S3_AU_19_axb_Step-7.wav","S3","19","axb","7","MI","0","0","true"
"null","","fixation","html-keyboard-response","121","367284","0.0-8.0-0.47","5efe549cd061693579bff438","condA","","<div class=""vertical-center"" style='width:60%;'><p style='font-weight:bold;'>Does the middle word sound more like the first word (A) or the last word (B)?</p> <br> <div class=""container""> <div id=""a-box""> <p class=""title-text"">A</h3></p> </div> <div id=""x-box""> <p class=""title-text"">X<p> </div> <div id=""b-box""> <p class=""title-text"">B</p></div> <br> <div style='float: left;padding-left:30px;'><p>Press '1' for A</p></div><div style='float: right;padding-right:30px;'><p>Press '0' for B</p> </div> </div></div>","null","","","","","","","","","","","","","",""
"2531","","test","audio-keyboard-response","122","369813","0.0-8.0-1.47","5efe549cd061693579bff438","condA","","resources/audio/wordStim/S3_AI_25_bxa_Step-2.wav","49","","","","","AI","resources/audio/wordStim/S3_AI_25_bxa_Step-2.wav","S3","25","bxa","2","MI","1","1","true"
"null","","fixation","html-keyboard-response","123","370837","0.0-8.0-0.48","5efe549cd061693579bff438","condA","","<div class=""vertical-center"" style='width:60%;'><p style='font-weight:bold;'>Does the middle word sound more like the first word (A) or the last word (B)?</p> <br> <div class=""container""> <div id=""a-box""> <p class=""title-text"">A</h3></p> </div> <div id=""x-box""> <p class=""title-text"">X<p> </div> <div id=""b-box""> <p class=""title-text"">B</p></div> <br> <div style='float: left;padding-left:30px;'><p>Press '1' for A</p></div><div style='float: right;padding-right:30px;'><p>Press '0' for B</p> </div> </div></div>","null","","","","","","","","","","","","","",""
"3200","","test","audio-keyboard-response","124","374041","0.0-8.0-1.48","5efe549cd061693579bff438","condA","","resources/audio/wordStim/S3_AU_11_axb_Step-9.wav","48","","","","","AU","resources/audio/wordStim/S3_AU_11_axb_Step-9.wav","S3","11","axb","9","MI","0","0","true"
"null","","fixation","html-keyboard-response","125","375064","0.0-8.0-0.49","5efe549cd061693579bff438","condA","","<div class=""vertical-center"" style='width:60%;'><p style='font-weight:bold;'>Does the middle word sound more like the first word (A) or the last word (B)?</p> <br> <div class=""container""> <div id=""a-box""> <p class=""title-text"">A</h3></p> </div> <div id=""x-box""> <p class=""title-text"">X<p> </div> <div id=""b-box""> <p class=""title-text"">B</p></div> <br> <div style='float: left;padding-left:30px;'><p>Press '1' for A</p></div><div style='float: right;padding-right:30px;'><p>Press '0' for B</p> </div> </div></div>","null","","","","","","","","","","","","","",""
"2960","","test","audio-keyboard-response","126","378030","0.0-8.0-1.49","5efe549cd061693579bff438","condA","","resources/audio/wordStim/S3_AI_30_bxa_Step-6.wav","48","","","","","AI","resources/audio/wordStim/S3_AI_30_bxa_Step-6.wav","S3","30","bxa","6","MI","1","0","false"
"null","","fixation","html-keyboard-response","127","379058","0.0-8.0-0.50","5efe549cd061693579bff438","condA","","<div class=""vertical-center"" style='width:60%;'><p style='font-weight:bold;'>Does the middle word sound more like the first word (A) or the last word (B)?</p> <br> <div class=""container""> <div id=""a-box""> <p class=""title-text"">A</h3></p> </div> <div id=""x-box""> <p class=""title-text"">X<p> </div> <div id=""b-box""> <p class=""title-text"">B</p></div> <br> <div style='float: left;padding-left:30px;'><p>Press '1' for A</p></div><div style='float: right;padding-right:30px;'><p>Press '0' for B</p> </div> </div></div>","null","","","","","","","","","","","","","",""
"2752","","test","audio-keyboard-response","128","381815","0.0-8.0-1.50","5efe549cd061693579bff438","condA","","resources/audio/wordStim/S3_AI_25_axb_Step-7.wav","48","","","","","AI","resources/audio/wordStim/S3_AI_25_axb_Step-7.wav","S3","25","axb","7","MI","0","0","true"
"null","","fixation","html-keyboard-response","129","382840","0.0-8.0-0.51","5efe549cd061693579bff438","condA","","<div class=""vertical-center"" style='width:60%;'><p style='font-weight:bold;'>Does the middle word sound more like the first word (A) or the last word (B)?</p> <br> <div class=""container""> <div id=""a-box""> <p class=""title-text"">A</h3></p> </div> <div id=""x-box""> <p class=""title-text"">X<p> </div> <div id=""b-box""> <p class=""title-text"">B</p></div> <br> <div style='float: left;padding-left:30px;'><p>Press '1' for A</p></div><div style='float: right;padding-right:30px;'><p>Press '0' for B</p> </div> </div></div>","null","","","","","","","","","","","","","",""
"2440","","test","audio-keyboard-response","130","385291","0.0-8.0-1.51","5efe549cd061693579bff438","condA","","resources/audio/wordStim/S3_AU_15_bxa_Step-8.wav","49","","","","","AU","resources/audio/wordStim/S3_AU_15_bxa_Step-8.wav","S3","15","bxa","8","MI","1","1","true"
"null","","fixation","html-keyboard-response","131","386317","0.0-8.0-0.52","5efe549cd061693579bff438","condA","","<div class=""vertical-center"" style='width:60%;'><p style='font-weight:bold;'>Does the middle word sound more like the first word (A) or the last word (B)?</p> <br> <div class=""container""> <div id=""a-box""> <p class=""title-text"">A</h3></p> </div> <div id=""x-box""> <p class=""title-text"">X<p> </div> <div id=""b-box""> <p class=""title-text"">B</p></div> <br> <div style='float: left;padding-left:30px;'><p>Press '1' for A</p></div><div style='float: right;padding-right:30px;'><p>Press '0' for B</p> </div> </div></div>","null","","","","","","","","","","","","","",""
"2269","","test","audio-keyboard-response","132","388589","0.0-8.0-1.52","5efe549cd061693579bff438","condA","","resources/audio/wordStim/S3_AU_15_axb_Step-5.wav","49","","","","","AU","resources/audio/wordStim/S3_AU_15_axb_Step-5.wav","S3","15","axb","5","MI","0","1","false"
"null","","fixation","html-keyboard-response","133","389595","0.0-8.0-0.53","5efe549cd061693579bff438","condA","","<div class=""vertical-center"" style='width:60%;'><p style='font-weight:bold;'>Does the middle word sound more like the first word (A) or the last word (B)?</p> <br> <div class=""container""> <div id=""a-box""> <p class=""title-text"">A</h3></p> </div> <div id=""x-box""> <p class=""title-text"">X<p> </div> <div id=""b-box""> <p class=""title-text"">B</p></div> <br> <div style='float: left;padding-left:30px;'><p>Press '1' for A</p></div><div style='float: right;padding-right:30px;'><p>Press '0' for B</p> </div> </div></div>","null","","","","","","","","","","","","","",""
"2680","","test","audio-keyboard-response","134","392269","0.0-8.0-1.53","5efe549cd061693579bff438","condA","","resources/audio/wordStim/S3_AU_11_axb_Step-10.wav","48","","","","","AU","resources/audio/wordStim/S3_AU_11_axb_Step-10.wav","S3","11","axb","10","MI","0","0","true"
"1491.5199999813922","","break","html-keyboard-response","135","394271","0.0-8.0-2.53-0.53","5efe549cd061693579bff438","condA","","<div class=""vertical-center""><p>Feel free to take a break!</p><i>When you're ready to continue, press SPACE to begin the next trial.</i></p></div>","32","","","","","","","","","","","","","",""
"null","","fixation","html-keyboard-response","136","394790","0.0-8.0-0.54","5efe549cd061693579bff438","condA","","<div class=""vertical-center"" style='width:60%;'><p style='font-weight:bold;'>Does the middle word sound more like the first word (A) or the last word (B)?</p> <br> <div class=""container""> <div id=""a-box""> <p class=""title-text"">A</h3></p> </div> <div id=""x-box""> <p class=""title-text"">X<p> </div> <div id=""b-box""> <p class=""title-text"">B</p></div> <br> <div style='float: left;padding-left:30px;'><p>Press '1' for A</p></div><div style='float: right;padding-right:30px;'><p>Press '0' for B</p> </div> </div></div>","null","","","","","","","","","","","","","",""
"2400","","test","audio-keyboard-response","137","397197","0.0-8.0-1.54","5efe549cd061693579bff438","condA","","resources/audio/wordStim/S9_AU_14_axb_Step-10.wav","48","","","","","AU","resources/audio/wordStim/S9_AU_14_axb_Step-10.wav","S9","14","axb","10","CN","0","0","true"
"null","","fixation","html-keyboard-response","138","398207","0.0-8.0-0.55","5efe549cd061693579bff438","condA","","<div class=""vertical-center"" style='width:60%;'><p style='font-weight:bold;'>Does the middle word sound more like the first word (A) or the last word (B)?</p> <br> <div class=""container""> <div id=""a-box""> <p class=""title-text"">A</h3></p> </div> <div id=""x-box""> <p class=""title-text"">X<p> </div> <div id=""b-box""> <p class=""title-text"">B</p></div> <br> <div style='float: left;padding-left:30px;'><p>Press '1' for A</p></div><div style='float: right;padding-right:30px;'><p>Press '0' for B</p> </div> </div></div>","null","","","","","","","","","","","","","",""
"2909","","test","audio-keyboard-response","139","401116","0.0-8.0-1.55","5efe549cd061693579bff438","condA","","resources/audio/wordStim/S9_AU_11_bxa_Step-6.wav","48","","","","","AU","resources/audio/wordStim/S9_AU_11_bxa_Step-6.wav","S9","11","bxa","6","CN","1","0","false"
"null","","fixation","html-keyboard-response","140","402134","0.0-8.0-0.56","5efe549cd061693579bff438","condA","","<div class=""vertical-center"" style='width:60%;'><p style='font-weight:bold;'>Does the middle word sound more like the first word (A) or the last word (B)?</p> <br> <div class=""container""> <div id=""a-box""> <p class=""title-text"">A</h3></p> </div> <div id=""x-box""> <p class=""title-text"">X<p> </div> <div id=""b-box""> <p class=""title-text"">B</p></div> <br> <div style='float: left;padding-left:30px;'><p>Press '1' for A</p></div><div style='float: right;padding-right:30px;'><p>Press '0' for B</p> </div> </div></div>","null","","","","","","","","","","","","","",""
"3440","","test","audio-keyboard-response","141","405583","0.0-8.0-1.56","5efe549cd061693579bff438","condA","","resources/audio/wordStim/S9_AU_18_bxa_Step-2.wav","49","","","","","AU","resources/audio/wordStim/S9_AU_18_bxa_Step-2.wav","S9","18","bxa","2","CN","1","1","true"
"null","","fixation","html-keyboard-response","142","406604","0.0-8.0-0.57","5efe549cd061693579bff438","condA","","<div class=""vertical-center"" style='width:60%;'><p style='font-weight:bold;'>Does the middle word sound more like the first word (A) or the last word (B)?</p> <br> <div class=""container""> <div id=""a-box""> <p class=""title-text"">A</h3></p> </div> <div id=""x-box""> <p class=""title-text"">X<p> </div> <div id=""b-box""> <p class=""title-text"">B</p></div> <br> <div style='float: left;padding-left:30px;'><p>Press '1' for A</p></div><div style='float: right;padding-right:30px;'><p>Press '0' for B</p> </div> </div></div>","null","","","","","","","","","","","","","",""
"2739","","test","audio-keyboard-response","143","409351","0.0-8.0-1.57","5efe549cd061693579bff438","condA","","resources/audio/wordStim/S3_AI_25_axb_Step-9.wav","49","","","","","AI","resources/audio/wordStim/S3_AI_25_axb_Step-9.wav","S3","25","axb","9","MI","0","1","false"
"null","","fixation","html-keyboard-response","144","410373","0.0-8.0-0.58","5efe549cd061693579bff438","condA","","<div class=""vertical-center"" style='width:60%;'><p style='font-weight:bold;'>Does the middle word sound more like the first word (A) or the last word (B)?</p> <br> <div class=""container""> <div id=""a-box""> <p class=""title-text"">A</h3></p> </div> <div id=""x-box""> <p class=""title-text"">X<p> </div> <div id=""b-box""> <p class=""title-text"">B</p></div> <br> <div style='float: left;padding-left:30px;'><p>Press '1' for A</p></div><div style='float: right;padding-right:30px;'><p>Press '0' for B</p> </div> </div></div>","null","","","","","","","","","","","","","",""
"3240","","test","audio-keyboard-response","145","413613","0.0-8.0-1.58","5efe549cd061693579bff438","condA","","resources/audio/wordStim/S3_AI_22_bxa_Step-2.wav","49","","","","","AI","resources/audio/wordStim/S3_AI_22_bxa_Step-2.wav","S3","22","bxa","2","MI","1","1","true"
"null","","fixation","html-keyboard-response","146","414639","0.0-8.0-0.59","5efe549cd061693579bff438","condA","","<div class=""vertical-center"" style='width:60%;'><p style='font-weight:bold;'>Does the middle word sound more like the first word (A) or the last word (B)?</p> <br> <div class=""container""> <div id=""a-box""> <p class=""title-text"">A</h3></p> </div> <div id=""x-box""> <p class=""title-text"">X<p> </div> <div id=""b-box""> <p class=""title-text"">B</p></div> <br> <div style='float: left;padding-left:30px;'><p>Press '1' for A</p></div><div style='float: right;padding-right:30px;'><p>Press '0' for B</p> </div> </div></div>","null","","","","","","","","","","","","","",""
"2549","","test","audio-keyboard-response","147","417198","0.0-8.0-1.59","5efe549cd061693579bff438","condA","","resources/audio/wordStim/S9_AU_13_bxa_Step-8.wav","48","","","","","AU","resources/audio/wordStim/S9_AU_13_bxa_Step-8.wav","S9","13","bxa","8","CN","1","0","false"
"null","","fixation","html-keyboard-response","148","418204","0.0-8.0-0.60","5efe549cd061693579bff438","condA","","<div class=""vertical-center"" style='width:60%;'><p style='font-weight:bold;'>Does the middle word sound more like the first word (A) or the last word (B)?</p> <br> <div class=""container""> <div id=""a-box""> <p class=""title-text"">A</h3></p> </div> <div id=""x-box""> <p class=""title-text"">X<p> </div> <div id=""b-box""> <p class=""title-text"">B</p></div> <br> <div style='float: left;padding-left:30px;'><p>Press '1' for A</p></div><div style='float: right;padding-right:30px;'><p>Press '0' for B</p> </div> </div></div>","null","","","","","","","","","","","","","",""
"2429","","test","audio-keyboard-response","149","420640","0.0-8.0-1.60","5efe549cd061693579bff438","condA","","resources/audio/wordStim/S3_AU_11_bxa_Step-6.wav","48","","","","","AU","resources/audio/wordStim/S3_AU_11_bxa_Step-6.wav","S3","11","bxa","6","MI","1","0","false"
"null","","fixation","html-keyboard-response","150","421655","0.0-8.0-0.61","5efe549cd061693579bff438","condA","","<div class=""vertical-center"" style='width:60%;'><p style='font-weight:bold;'>Does the middle word sound more like the first word (A) or the last word (B)?</p> <br> <div class=""container""> <div id=""a-box""> <p class=""title-text"">A</h3></p> </div> <div id=""x-box""> <p class=""title-text"">X<p> </div> <div id=""b-box""> <p class=""title-text"">B</p></div> <br> <div style='float: left;padding-left:30px;'><p>Press '1' for A</p></div><div style='float: right;padding-right:30px;'><p>Press '0' for B</p> </div> </div></div>","null","","","","","","","","","","","","","",""
"3069","","test","audio-keyboard-response","151","424731","0.0-8.0-1.61","5efe549cd061693579bff438","condA","","resources/audio/wordStim/S3_AU_16_bxa_Step-6.wav","48","","","","","AU","resources/audio/wordStim/S3_AU_16_bxa_Step-6.wav","S3","16","bxa","6","MI","1","0","false"
"null","","fixation","html-keyboard-response","152","425740","0.0-8.0-0.62","5efe549cd061693579bff438","condA","","<div class=""vertical-center"" style='width:60%;'><p style='font-weight:bold;'>Does the middle word sound more like the first word (A) or the last word (B)?</p> <br> <div class=""container""> <div id=""a-box""> <p class=""title-text"">A</h3></p> </div> <div id=""x-box""> <p class=""title-text"">X<p> </div> <div id=""b-box""> <p class=""title-text"">B</p></div> <br> <div style='float: left;padding-left:30px;'><p>Press '1' for A</p></div><div style='float: right;padding-right:30px;'><p>Press '0' for B</p> </div> </div></div>","null","","","","","","","","","","","","","",""
"2072","","test","audio-keyboard-response","153","427811","0.0-8.0-1.62","5efe549cd061693579bff438","condA","","resources/audio/wordStim/S9_AI_27_axb_Step-5.wav","49","","","","","AI","resources/audio/wordStim/S9_AI_27_axb_Step-5.wav","S9","27","axb","5","CN","0","1","false"
"null","","fixation","html-keyboard-response","154","428820","0.0-8.0-0.63","5efe549cd061693579bff438","condA","","<div class=""vertical-center"" style='width:60%;'><p style='font-weight:bold;'>Does the middle word sound more like the first word (A) or the last word (B)?</p> <br> <div class=""container""> <div id=""a-box""> <p class=""title-text"">A</h3></p> </div> <div id=""x-box""> <p class=""title-text"">X<p> </div> <div id=""b-box""> <p class=""title-text"">B</p></div> <br> <div style='float: left;padding-left:30px;'><p>Press '1' for A</p></div><div style='float: right;padding-right:30px;'><p>Press '0' for B</p> </div> </div></div>","null","","","","","","","","","","","","","",""
"2760","","test","audio-keyboard-response","155","431586","0.0-8.0-1.63","5efe549cd061693579bff438","condA","","resources/audio/wordStim/S3_AU_19_axb_Step-5.wav","49","","","","","AU","resources/audio/wordStim/S3_AU_19_axb_Step-5.wav","S3","19","axb","5","MI","0","1","false"
"null","","fixation","html-keyboard-response","156","432598","0.0-8.0-0.64","5efe549cd061693579bff438","condA","","<div class=""vertical-center"" style='width:60%;'><p style='font-weight:bold;'>Does the middle word sound more like the first word (A) or the last word (B)?</p> <br> <div class=""container""> <div id=""a-box""> <p class=""title-text"">A</h3></p> </div> <div id=""x-box""> <p class=""title-text"">X<p> </div> <div id=""b-box""> <p class=""title-text"">B</p></div> <br> <div style='float: left;padding-left:30px;'><p>Press '1' for A</p></div><div style='float: right;padding-right:30px;'><p>Press '0' for B</p> </div> </div></div>","null","","","","","","","","","","","","","",""
"2939","","test","audio-keyboard-response","157","435548","0.0-8.0-1.64","5efe549cd061693579bff438","condA","","resources/audio/wordStim/S3_AI_29_bxa_Step-2.wav","49","","","","","AI","resources/audio/wordStim/S3_AI_29_bxa_Step-2.wav","S3","29","bxa","2","MI","1","1","true"
"null","","fixation","html-keyboard-response","158","436555","0.0-8.0-0.65","5efe549cd061693579bff438","condA","","<div class=""vertical-center"" style='width:60%;'><p style='font-weight:bold;'>Does the middle word sound more like the first word (A) or the last word (B)?</p> <br> <div class=""container""> <div id=""a-box""> <p class=""title-text"">A</h3></p> </div> <div id=""x-box""> <p class=""title-text"">X<p> </div> <div id=""b-box""> <p class=""title-text"">B</p></div> <br> <div style='float: left;padding-left:30px;'><p>Press '1' for A</p></div><div style='float: right;padding-right:30px;'><p>Press '0' for B</p> </div> </div></div>","null","","","","","","","","","","","","","",""
"2541","","test","audio-keyboard-response","159","439101","0.0-8.0-1.65","5efe549cd061693579bff438","condA","","resources/audio/wordStim/S9_AI_27_axb_Step-9.wav","48","","","","","AI","resources/audio/wordStim/S9_AI_27_axb_Step-9.wav","S9","27","axb","9","CN","0","0","true"
"null","","fixation","html-keyboard-response","160","440119","0.0-8.0-0.66","5efe549cd061693579bff438","condA","","<div class=""vertical-center"" style='width:60%;'><p style='font-weight:bold;'>Does the middle word sound more like the first word (A) or the last word (B)?</p> <br> <div class=""container""> <div id=""a-box""> <p class=""title-text"">A</h3></p> </div> <div id=""x-box""> <p class=""title-text"">X<p> </div> <div id=""b-box""> <p class=""title-text"">B</p></div> <br> <div style='float: left;padding-left:30px;'><p>Press '1' for A</p></div><div style='float: right;padding-right:30px;'><p>Press '0' for B</p> </div> </div></div>","null","","","","","","","","","","","","","",""
"2720","","test","audio-keyboard-response","161","442844","0.0-8.0-1.66","5efe549cd061693579bff438","condA","","resources/audio/wordStim/S9_AI_30_axb_Step-7.wav","48","","","","","AI","resources/audio/wordStim/S9_AI_30_axb_Step-7.wav","S9","30","axb","7","CN","0","0","true"
"null","","fixation","html-keyboard-response","162","443871","0.0-8.0-0.67","5efe549cd061693579bff438","condA","","<div class=""vertical-center"" style='width:60%;'><p style='font-weight:bold;'>Does the middle word sound more like the first word (A) or the last word (B)?</p> <br> <div class=""container""> <div id=""a-box""> <p class=""title-text"">A</h3></p> </div> <div id=""x-box""> <p class=""title-text"">X<p> </div> <div id=""b-box""> <p class=""title-text"">B</p></div> <br> <div style='float: left;padding-left:30px;'><p>Press '1' for A</p></div><div style='float: right;padding-right:30px;'><p>Press '0' for B</p> </div> </div></div>","null","","","","","","","","","","","","","",""
"2589","","test","audio-keyboard-response","163","446469","0.0-8.0-1.67","5efe549cd061693579bff438","condA","","resources/audio/wordStim/S9_AU_14_bxa_Step-6.wav","48","","","","","AU","resources/audio/wordStim/S9_AU_14_bxa_Step-6.wav","S9","14","bxa","6","CN","1","0","false"
"null","","fixation","html-keyboard-response","164","447497","0.0-8.0-0.68","5efe549cd061693579bff438","condA","","<div class=""vertical-center"" style='width:60%;'><p style='font-weight:bold;'>Does the middle word sound more like the first word (A) or the last word (B)?</p> <br> <div class=""container""> <div id=""a-box""> <p class=""title-text"">A</h3></p> </div> <div id=""x-box""> <p class=""title-text"">X<p> </div> <div id=""b-box""> <p class=""title-text"">B</p></div> <br> <div style='float: left;padding-left:30px;'><p>Press '1' for A</p></div><div style='float: right;padding-right:30px;'><p>Press '0' for B</p> </div> </div></div>","null","","","","","","","","","","","","","",""
"2552","","test","audio-keyboard-response","165","450061","0.0-8.0-1.68","5efe549cd061693579bff438","condA","","resources/audio/wordStim/S9_AU_20_bxa_Step-2.wav","49","","","","","AU","resources/audio/wordStim/S9_AU_20_bxa_Step-2.wav","S9","20","bxa","2","CN","1","1","true"
"null","","fixation","html-keyboard-response","166","451085","0.0-8.0-0.69","5efe549cd061693579bff438","condA","","<div class=""vertical-center"" style='width:60%;'><p style='font-weight:bold;'>Does the middle word sound more like the first word (A) or the last word (B)?</p> <br> <div class=""container""> <div id=""a-box""> <p class=""title-text"">A</h3></p> </div> <div id=""x-box""> <p class=""title-text"">X<p> </div> <div id=""b-box""> <p class=""title-text"">B</p></div> <br> <div style='float: left;padding-left:30px;'><p>Press '1' for A</p></div><div style='float: right;padding-right:30px;'><p>Press '0' for B</p> </div> </div></div>","null","","","","","","","","","","","","","",""
"3149","","test","audio-keyboard-response","167","454233","0.0-8.0-1.69","5efe549cd061693579bff438","condA","","resources/audio/wordStim/S9_AU_13_axb_Step-7.wav","48","","","","","AU","resources/audio/wordStim/S9_AU_13_axb_Step-7.wav","S9","13","axb","7","CN","0","0","true"
"null","","fixation","html-keyboard-response","168","455258","0.0-8.0-0.70","5efe549cd061693579bff438","condA","","<div class=""vertical-center"" style='width:60%;'><p style='font-weight:bold;'>Does the middle word sound more like the first word (A) or the last word (B)?</p> <br> <div class=""container""> <div id=""a-box""> <p class=""title-text"">A</h3></p> </div> <div id=""x-box""> <p class=""title-text"">X<p> </div> <div id=""b-box""> <p class=""title-text"">B</p></div> <br> <div style='float: left;padding-left:30px;'><p>Press '1' for A</p></div><div style='float: right;padding-right:30px;'><p>Press '0' for B</p> </div> </div></div>","null","","","","","","","","","","","","","",""
"2880","","test","audio-keyboard-response","169","458144","0.0-8.0-1.70","5efe549cd061693579bff438","condA","","resources/audio/wordStim/S3_AI_23_bxa_Step-6.wav","49","","","","","AI","resources/audio/wordStim/S3_AI_23_bxa_Step-6.wav","S3","23","bxa","6","MI","1","1","true"
"null","","fixation","html-keyboard-response","170","459171","0.0-8.0-0.71","5efe549cd061693579bff438","condA","","<div class=""vertical-center"" style='width:60%;'><p style='font-weight:bold;'>Does the middle word sound more like the first word (A) or the last word (B)?</p> <br> <div class=""container""> <div id=""a-box""> <p class=""title-text"">A</h3></p> </div> <div id=""x-box""> <p class=""title-text"">X<p> </div> <div id=""b-box""> <p class=""title-text"">B</p></div> <br> <div style='float: left;padding-left:30px;'><p>Press '1' for A</p></div><div style='float: right;padding-right:30px;'><p>Press '0' for B</p> </div> </div></div>","null","","","","","","","","","","","","","",""
"2779","","test","audio-keyboard-response","171","461953","0.0-8.0-1.71","5efe549cd061693579bff438","condA","","resources/audio/wordStim/S3_AI_30_bxa_Step-4.wav","48","","","","","AI","resources/audio/wordStim/S3_AI_30_bxa_Step-4.wav","S3","30","bxa","4","MI","1","0","false"
"null","","fixation","html-keyboard-response","172","462973","0.0-8.0-0.72","5efe549cd061693579bff438","condA","","<div class=""vertical-center"" style='width:60%;'><p style='font-weight:bold;'>Does the middle word sound more like the first word (A) or the last word (B)?</p> <br> <div class=""container""> <div id=""a-box""> <p class=""title-text"">A</h3></p> </div> <div id=""x-box""> <p class=""title-text"">X<p> </div> <div id=""b-box""> <p class=""title-text"">B</p></div> <br> <div style='float: left;padding-left:30px;'><p>Press '1' for A</p></div><div style='float: right;padding-right:30px;'><p>Press '0' for B</p> </div> </div></div>","null","","","","","","","","","","","","","",""
"2869","","test","audio-keyboard-response","173","465847","0.0-8.0-1.72","5efe549cd061693579bff438","condA","","resources/audio/wordStim/S9_AI_22_bxa_Step-4.wav","48","","","","","AI","resources/audio/wordStim/S9_AI_22_bxa_Step-4.wav","S9","22","bxa","4","CN","1","0","false"
"null","","fixation","html-keyboard-response","174","466877","0.0-8.0-0.73","5efe549cd061693579bff438","condA","","<div class=""vertical-center"" style='width:60%;'><p style='font-weight:bold;'>Does the middle word sound more like the first word (A) or the last word (B)?</p> <br> <div class=""container""> <div id=""a-box""> <p class=""title-text"">A</h3></p> </div> <div id=""x-box""> <p class=""title-text"">X<p> </div> <div id=""b-box""> <p class=""title-text"">B</p></div> <br> <div style='float: left;padding-left:30px;'><p>Press '1' for A</p></div><div style='float: right;padding-right:30px;'><p>Press '0' for B</p> </div> </div></div>","null","","","","","","","","","","","","","",""
"2360","","test","audio-keyboard-response","175","469231","0.0-8.0-1.73","5efe549cd061693579bff438","condA","","resources/audio/wordStim/S3_AU_15_axb_Step-9.wav","48","","","","","AU","resources/audio/wordStim/S3_AU_15_axb_Step-9.wav","S3","15","axb","9","MI","0","0","true"
"null","","fixation","html-keyboard-response","176","470252","0.0-8.0-0.74","5efe549cd061693579bff438","condA","","<div class=""vertical-center"" style='width:60%;'><p style='font-weight:bold;'>Does the middle word sound more like the first word (A) or the last word (B)?</p> <br> <div class=""container""> <div id=""a-box""> <p class=""title-text"">A</h3></p> </div> <div id=""x-box""> <p class=""title-text"">X<p> </div> <div id=""b-box""> <p class=""title-text"">B</p></div> <br> <div style='float: left;padding-left:30px;'><p>Press '1' for A</p></div><div style='float: right;padding-right:30px;'><p>Press '0' for B</p> </div> </div></div>","null","","","","","","","","","","","","","",""
"2760","","test","audio-keyboard-response","177","473010","0.0-8.0-1.74","5efe549cd061693579bff438","condA","","resources/audio/wordStim/S9_AU_11_axb_Step-3.wav","48","","","","","AU","resources/audio/wordStim/S9_AU_11_axb_Step-3.wav","S9","11","axb","3","CN","0","0","true"
"null","","fixation","html-keyboard-response","178","474031","0.0-8.0-0.75","5efe549cd061693579bff438","condA","","<div class=""vertical-center"" style='width:60%;'><p style='font-weight:bold;'>Does the middle word sound more like the first word (A) or the last word (B)?</p> <br> <div class=""container""> <div id=""a-box""> <p class=""title-text"">A</h3></p> </div> <div id=""x-box""> <p class=""title-text"">X<p> </div> <div id=""b-box""> <p class=""title-text"">B</p></div> <br> <div style='float: left;padding-left:30px;'><p>Press '1' for A</p></div><div style='float: right;padding-right:30px;'><p>Press '0' for B</p> </div> </div></div>","null","","","","","","","","","","","","","",""
"2229","","test","audio-keyboard-response","179","476264","0.0-8.0-1.75","5efe549cd061693579bff438","condA","","resources/audio/wordStim/S3_AI_21_bxa_Step-2.wav","49","","","","","AI","resources/audio/wordStim/S3_AI_21_bxa_Step-2.wav","S3","21","bxa","2","MI","1","1","true"
"null","","fixation","html-keyboard-response","180","477289","0.0-8.0-0.76","5efe549cd061693579bff438","condA","","<div class=""vertical-center"" style='width:60%;'><p style='font-weight:bold;'>Does the middle word sound more like the first word (A) or the last word (B)?</p> <br> <div class=""container""> <div id=""a-box""> <p class=""title-text"">A</h3></p> </div> <div id=""x-box""> <p class=""title-text"">X<p> </div> <div id=""b-box""> <p class=""title-text"">B</p></div> <br> <div style='float: left;padding-left:30px;'><p>Press '1' for A</p></div><div style='float: right;padding-right:30px;'><p>Press '0' for B</p> </div> </div></div>","null","","","","","","","","","","","","","",""
"2488","","test","audio-keyboard-response","181","479786","0.0-8.0-1.76","5efe549cd061693579bff438","condA","","resources/audio/wordStim/S3_AU_11_bxa_Step-8.wav","48","","","","","AU","resources/audio/wordStim/S3_AU_11_bxa_Step-8.wav","S3","11","bxa","8","MI","1","0","false"
"null","","fixation","html-keyboard-response","182","480809","0.0-8.0-0.77","5efe549cd061693579bff438","condA","","<div class=""vertical-center"" style='width:60%;'><p style='font-weight:bold;'>Does the middle word sound more like the first word (A) or the last word (B)?</p> <br> <div class=""container""> <div id=""a-box""> <p class=""title-text"">A</h3></p> </div> <div id=""x-box""> <p class=""title-text"">X<p> </div> <div id=""b-box""> <p class=""title-text"">B</p></div> <br> <div style='float: left;padding-left:30px;'><p>Press '1' for A</p></div><div style='float: right;padding-right:30px;'><p>Press '0' for B</p> </div> </div></div>","null","","","","","","","","","","","","","",""
"2680","","test","audio-keyboard-response","183","483500","0.0-8.0-1.77","5efe549cd061693579bff438","condA","","resources/audio/wordStim/S9_AI_30_axb_Step-5.wav","48","","","","","AI","resources/audio/wordStim/S9_AI_30_axb_Step-5.wav","S9","30","axb","5","CN","0","0","true"
"null","","fixation","html-keyboard-response","184","484514","0.0-8.0-0.78","5efe549cd061693579bff438","condA","","<div class=""vertical-center"" style='width:60%;'><p style='font-weight:bold;'>Does the middle word sound more like the first word (A) or the last word (B)?</p> <br> <div class=""container""> <div id=""a-box""> <p class=""title-text"">A</h3></p> </div> <div id=""x-box""> <p class=""title-text"">X<p> </div> <div id=""b-box""> <p class=""title-text"">B</p></div> <br> <div style='float: left;padding-left:30px;'><p>Press '1' for A</p></div><div style='float: right;padding-right:30px;'><p>Press '0' for B</p> </div> </div></div>","null","","","","","","","","","","","","","",""
"2981","","test","audio-keyboard-response","185","487489","0.0-8.0-1.78","5efe549cd061693579bff438","condA","","resources/audio/wordStim/S9_AU_17_bxa_Step-2.wav","49","","","","","AU","resources/audio/wordStim/S9_AU_17_bxa_Step-2.wav","S9","17","bxa","2","CN","1","1","true"
"null","","fixation","html-keyboard-response","186","488494","0.0-8.0-0.79","5efe549cd061693579bff438","condA","","<div class=""vertical-center"" style='width:60%;'><p style='font-weight:bold;'>Does the middle word sound more like the first word (A) or the last word (B)?</p> <br> <div class=""container""> <div id=""a-box""> <p class=""title-text"">A</h3></p> </div> <div id=""x-box""> <p class=""title-text"">X<p> </div> <div id=""b-box""> <p class=""title-text"">B</p></div> <br> <div style='float: left;padding-left:30px;'><p>Press '1' for A</p></div><div style='float: right;padding-right:30px;'><p>Press '0' for B</p> </div> </div></div>","null","","","","","","","","","","","","","",""
"2099","","test","audio-keyboard-response","187","490596","0.0-8.0-1.79","5efe549cd061693579bff438","condA","","resources/audio/wordStim/S3_AI_21_axb_Step-10.wav","49","","","","","AI","resources/audio/wordStim/S3_AI_21_axb_Step-10.wav","S3","21","axb","10","MI","0","1","false"
"null","","fixation","html-keyboard-response","188","491620","0.0-8.0-0.80","5efe549cd061693579bff438","condA","","<div class=""vertical-center"" style='width:60%;'><p style='font-weight:bold;'>Does the middle word sound more like the first word (A) or the last word (B)?</p> <br> <div class=""container""> <div id=""a-box""> <p class=""title-text"">A</h3></p> </div> <div id=""x-box""> <p class=""title-text"">X<p> </div> <div id=""b-box""> <p class=""title-text"">B</p></div> <br> <div style='float: left;padding-left:30px;'><p>Press '1' for A</p></div><div style='float: right;padding-right:30px;'><p>Press '0' for B</p> </div> </div></div>","null","","","","","","","","","","","","","",""
"3581","","test","audio-keyboard-response","189","495201","0.0-8.0-1.80","5efe549cd061693579bff438","condA","","resources/audio/wordStim/S9_AI_23_bxa_Step-2.wav","48","","","","","AI","resources/audio/wordStim/S9_AI_23_bxa_Step-2.wav","S9","23","bxa","2","CN","1","0","false"
"1861.7749999975786","","break","html-keyboard-response","190","497581","0.0-8.0-2.80-0.80","5efe549cd061693579bff438","condA","","<div class=""vertical-center""><p>Feel free to take a break!</p><i>When you're ready to continue, press SPACE to begin the next trial.</i></p></div>","32","","","","","","","","","","","","","",""
"null","","fixation","html-keyboard-response","191","498087","0.0-8.0-0.81","5efe549cd061693579bff438","condA","","<div class=""vertical-center"" style='width:60%;'><p style='font-weight:bold;'>Does the middle word sound more like the first word (A) or the last word (B)?</p> <br> <div class=""container""> <div id=""a-box""> <p class=""title-text"">A</h3></p> </div> <div id=""x-box""> <p class=""title-text"">X<p> </div> <div id=""b-box""> <p class=""title-text"">B</p></div> <br> <div style='float: left;padding-left:30px;'><p>Press '1' for A</p></div><div style='float: right;padding-right:30px;'><p>Press '0' for B</p> </div> </div></div>","null","","","","","","","","","","","","","",""
"2680","","test","audio-keyboard-response","192","500776","0.0-8.0-1.81","5efe549cd061693579bff438","condA","","resources/audio/wordStim/S9_AI_29_axb_Step-5.wav","49","","","","","AI","resources/audio/wordStim/S9_AI_29_axb_Step-5.wav","S9","29","axb","5","CN","0","1","false"
"null","","fixation","html-keyboard-response","193","501796","0.0-8.0-0.82","5efe549cd061693579bff438","condA","","<div class=""vertical-center"" style='width:60%;'><p style='font-weight:bold;'>Does the middle word sound more like the first word (A) or the last word (B)?</p> <br> <div class=""container""> <div id=""a-box""> <p class=""title-text"">A</h3></p> </div> <div id=""x-box""> <p class=""title-text"">X<p> </div> <div id=""b-box""> <p class=""title-text"">B</p></div> <br> <div style='float: left;padding-left:30px;'><p>Press '1' for A</p></div><div style='float: right;padding-right:30px;'><p>Press '0' for B</p> </div> </div></div>","null","","","","","","","","","","","","","",""
"3141","","test","audio-keyboard-response","194","504932","0.0-8.0-1.82","5efe549cd061693579bff438","condA","","resources/audio/wordStim/S3_AU_17_bxa_Step-6.wav","48","","","","","AU","resources/audio/wordStim/S3_AU_17_bxa_Step-6.wav","S3","17","bxa","6","MI","1","0","false"
"null","","fixation","html-keyboard-response","195","505955","0.0-8.0-0.83","5efe549cd061693579bff438","condA","","<div class=""vertical-center"" style='width:60%;'><p style='font-weight:bold;'>Does the middle word sound more like the first word (A) or the last word (B)?</p> <br> <div class=""container""> <div id=""a-box""> <p class=""title-text"">A</h3></p> </div> <div id=""x-box""> <p class=""title-text"">X<p> </div> <div id=""b-box""> <p class=""title-text"">B</p></div> <br> <div style='float: left;padding-left:30px;'><p>Press '1' for A</p></div><div style='float: right;padding-right:30px;'><p>Press '0' for B</p> </div> </div></div>","null","","","","","","","","","","","","","",""
"2691","","test","audio-keyboard-response","196","508645","0.0-8.0-1.83","5efe549cd061693579bff438","condA","","resources/audio/wordStim/S9_AU_11_axb_Step-5.wav","48","","","","","AU","resources/audio/wordStim/S9_AU_11_axb_Step-5.wav","S9","11","axb","5","CN","0","0","true"
"null","","fixation","html-keyboard-response","197","509653","0.0-8.0-0.84","5efe549cd061693579bff438","condA","","<div class=""vertical-center"" style='width:60%;'><p style='font-weight:bold;'>Does the middle word sound more like the first word (A) or the last word (B)?</p> <br> <div class=""container""> <div id=""a-box""> <p class=""title-text"">A</h3></p> </div> <div id=""x-box""> <p class=""title-text"">X<p> </div> <div id=""b-box""> <p class=""title-text"">B</p></div> <br> <div style='float: left;padding-left:30px;'><p>Press '1' for A</p></div><div style='float: right;padding-right:30px;'><p>Press '0' for B</p> </div> </div></div>","null","","","","","","","","","","","","","",""
"2608","","test","audio-keyboard-response","198","512260","0.0-8.0-1.84","5efe549cd061693579bff438","condA","","resources/audio/wordStim/S3_AI_30_bxa_Step-8.wav","48","","","","","AI","resources/audio/wordStim/S3_AI_30_bxa_Step-8.wav","S3","30","bxa","8","MI","1","0","false"
"null","","fixation","html-keyboard-response","199","513276","0.0-8.0-0.85","5efe549cd061693579bff438","condA","","<div class=""vertical-center"" style='width:60%;'><p style='font-weight:bold;'>Does the middle word sound more like the first word (A) or the last word (B)?</p> <br> <div class=""container""> <div id=""a-box""> <p class=""title-text"">A</h3></p> </div> <div id=""x-box""> <p class=""title-text"">X<p> </div> <div id=""b-box""> <p class=""title-text"">B</p></div> <br> <div style='float: left;padding-left:30px;'><p>Press '1' for A</p></div><div style='float: right;padding-right:30px;'><p>Press '0' for B</p> </div> </div></div>","null","","","","","","","","","","","","","",""
"3000","","test","audio-keyboard-response","200","516281","0.0-8.0-1.85","5efe549cd061693579bff438","condA","","resources/audio/wordStim/S3_AU_18_axb_Step-3.wav","49","","","","","AU","resources/audio/wordStim/S3_AU_18_axb_Step-3.wav","S3","18","axb","3","MI","0","1","false"
"null","","fixation","html-keyboard-response","201","517304","0.0-8.0-0.86","5efe549cd061693579bff438","condA","","<div class=""vertical-center"" style='width:60%;'><p style='font-weight:bold;'>Does the middle word sound more like the first word (A) or the last word (B)?</p> <br> <div class=""container""> <div id=""a-box""> <p class=""title-text"">A</h3></p> </div> <div id=""x-box""> <p class=""title-text"">X<p> </div> <div id=""b-box""> <p class=""title-text"">B</p></div> <br> <div style='float: left;padding-left:30px;'><p>Press '1' for A</p></div><div style='float: right;padding-right:30px;'><p>Press '0' for B</p> </div> </div></div>","null","","","","","","","","","","","","","",""
"2491","","test","audio-keyboard-response","202","519792","0.0-8.0-1.86","5efe549cd061693579bff438","condA","","resources/audio/wordStim/S9_AU_13_axb_Step-10.wav","48","","","","","AU","resources/audio/wordStim/S9_AU_13_axb_Step-10.wav","S9","13","axb","10","CN","0","0","true"
"null","","fixation","html-keyboard-response","203","520817","0.0-8.0-0.87","5efe549cd061693579bff438","condA","","<div class=""vertical-center"" style='width:60%;'><p style='font-weight:bold;'>Does the middle word sound more like the first word (A) or the last word (B)?</p> <br> <div class=""container""> <div id=""a-box""> <p class=""title-text"">A</h3></p> </div> <div id=""x-box""> <p class=""title-text"">X<p> </div> <div id=""b-box""> <p class=""title-text"">B</p></div> <br> <div style='float: left;padding-left:30px;'><p>Press '1' for A</p></div><div style='float: right;padding-right:30px;'><p>Press '0' for B</p> </div> </div></div>","null","","","","","","","","","","","","","",""
"2899","","test","audio-keyboard-response","204","523712","0.0-8.0-1.87","5efe549cd061693579bff438","condA","","resources/audio/wordStim/S3_AU_18_axb_Step-9.wav","49","","","","","AU","resources/audio/wordStim/S3_AU_18_axb_Step-9.wav","S3","18","axb","9","MI","0","1","false"
"null","","fixation","html-keyboard-response","205","524735","0.0-8.0-0.88","5efe549cd061693579bff438","condA","","<div class=""vertical-center"" style='width:60%;'><p style='font-weight:bold;'>Does the middle word sound more like the first word (A) or the last word (B)?</p> <br> <div class=""container""> <div id=""a-box""> <p class=""title-text"">A</h3></p> </div> <div id=""x-box""> <p class=""title-text"">X<p> </div> <div id=""b-box""> <p class=""title-text"">B</p></div> <br> <div style='float: left;padding-left:30px;'><p>Press '1' for A</p></div><div style='float: right;padding-right:30px;'><p>Press '0' for B</p> </div> </div></div>","null","","","","","","","","","","","","","",""
"2419","","test","audio-keyboard-response","206","527156","0.0-8.0-1.88","5efe549cd061693579bff438","condA","","resources/audio/wordStim/S9_AI_27_bxa_Step-2.wav","48","","","","","AI","resources/audio/wordStim/S9_AI_27_bxa_Step-2.wav","S9","27","bxa","2","CN","1","0","false"
"null","","fixation","html-keyboard-response","207","528179","0.0-8.0-0.89","5efe549cd061693579bff438","condA","","<div class=""vertical-center"" style='width:60%;'><p style='font-weight:bold;'>Does the middle word sound more like the first word (A) or the last word (B)?</p> <br> <div class=""container""> <div id=""a-box""> <p class=""title-text"">A</h3></p> </div> <div id=""x-box""> <p class=""title-text"">X<p> </div> <div id=""b-box""> <p class=""title-text"">B</p></div> <br> <div style='float: left;padding-left:30px;'><p>Press '1' for A</p></div><div style='float: right;padding-right:30px;'><p>Press '0' for B</p> </div> </div></div>","null","","","","","","","","","","","","","",""
"2352","","test","audio-keyboard-response","208","530535","0.0-8.0-1.89","5efe549cd061693579bff438","condA","","resources/audio/wordStim/S3_AU_20_axb_Step-3.wav","48","","","","","AU","resources/audio/wordStim/S3_AU_20_axb_Step-3.wav","S3","20","axb","3","MI","0","0","true"
"null","","fixation","html-keyboard-response","209","531541","0.0-8.0-0.90","5efe549cd061693579bff438","condA","","<div class=""vertical-center"" style='width:60%;'><p style='font-weight:bold;'>Does the middle word sound more like the first word (A) or the last word (B)?</p> <br> <div class=""container""> <div id=""a-box""> <p class=""title-text"">A</h3></p> </div> <div id=""x-box""> <p class=""title-text"">X<p> </div> <div id=""b-box""> <p class=""title-text"">B</p></div> <br> <div style='float: left;padding-left:30px;'><p>Press '1' for A</p></div><div style='float: right;padding-right:30px;'><p>Press '0' for B</p> </div> </div></div>","null","","","","","","","","","","","","","",""
"2400","","test","audio-keyboard-response","210","533948","0.0-8.0-1.90","5efe549cd061693579bff438","condA","","resources/audio/wordStim/S9_AI_27_bxa_Step-6.wav","49","","","","","AI","resources/audio/wordStim/S9_AI_27_bxa_Step-6.wav","S9","27","bxa","6","CN","1","1","true"
"null","","fixation","html-keyboard-response","211","534970","0.0-8.0-0.91","5efe549cd061693579bff438","condA","","<div class=""vertical-center"" style='width:60%;'><p style='font-weight:bold;'>Does the middle word sound more like the first word (A) or the last word (B)?</p> <br> <div class=""container""> <div id=""a-box""> <p class=""title-text"">A</h3></p> </div> <div id=""x-box""> <p class=""title-text"">X<p> </div> <div id=""b-box""> <p class=""title-text"">B</p></div> <br> <div style='float: left;padding-left:30px;'><p>Press '1' for A</p></div><div style='float: right;padding-right:30px;'><p>Press '0' for B</p> </div> </div></div>","null","","","","","","","","","","","","","",""
"2829","","test","audio-keyboard-response","212","537801","0.0-8.0-1.91","5efe549cd061693579bff438","condA","","resources/audio/wordStim/S9_AU_17_bxa_Step-6.wav","49","","","","","AU","resources/audio/wordStim/S9_AU_17_bxa_Step-6.wav","S9","17","bxa","6","CN","1","1","true"
"null","","fixation","html-keyboard-response","213","538832","0.0-8.0-0.92","5efe549cd061693579bff438","condA","","<div class=""vertical-center"" style='width:60%;'><p style='font-weight:bold;'>Does the middle word sound more like the first word (A) or the last word (B)?</p> <br> <div class=""container""> <div id=""a-box""> <p class=""title-text"">A</h3></p> </div> <div id=""x-box""> <p class=""title-text"">X<p> </div> <div id=""b-box""> <p class=""title-text"">B</p></div> <br> <div style='float: left;padding-left:30px;'><p>Press '1' for A</p></div><div style='float: right;padding-right:30px;'><p>Press '0' for B</p> </div> </div></div>","null","","","","","","","","","","","","","",""
"2720","","test","audio-keyboard-response","214","541559","0.0-8.0-1.92","5efe549cd061693579bff438","condA","","resources/audio/wordStim/S3_AI_29_bxa_Step-6.wav","48","","","","","AI","resources/audio/wordStim/S3_AI_29_bxa_Step-6.wav","S3","29","bxa","6","MI","1","0","false"
