"rt","url","trial_role","trial_type","trial_index","time_elapsed","internal_node_id","participantId","condition","view_history","stimulus","key_press","button_pressed","correct_answer","correct_response","success","vowel","wordStim","speaker","sentNum","order","step","speakerIdentity","raised_answer","key_response","raised_response"
"3508.6599999922328","micr.con.consent.html","consent","external-html","0","3544","0.0-0.0","5f07363e47bd2b2e4874684d","condA","","","","","","","","","","","","","","","","",""
"39888.66500000586","","instructions","instructions","1","43434","0.0-1.0","5f07363e47bd2b2e4874684d","condA","[{""page_index"":0,""viewing_time"":9205.680000013672},{""page_index"":1,""viewing_time"":4404.719999991357},{""page_index"":2,""viewing_time"":26277.679999999236}]","","","","","","","","","","","","","","","",""
"null","","fixation","html-keyboard-response","2","43936","0.0-2.0-0.0","5f07363e47bd2b2e4874684d","condA","","<div class=""vertical-center"" style=""font-size:60px;"">+</div>","null","","","","","","","","","","","","","",""
"4812.87500000326","","tonetest","audio-button-response","3","48751","0.0-2.0-1.0","5f07363e47bd2b2e4874684d","condA","","../../src/audio/toneTest_4.wav","","1","1","true","","","","","","","","","","",""
"null","","fixation","html-keyboard-response","4","49252","0.0-2.0-0.1","5f07363e47bd2b2e4874684d","condA","","<div class=""vertical-center"" style=""font-size:60px;"">+</div>","null","","","","","","","","","","","","","",""
"4578.655000019353","","tonetest","audio-button-response","5","53832","0.0-2.0-1.1","5f07363e47bd2b2e4874684d","condA","","../../src/audio/toneTest_5.wav","","0","0","true","","","","","","","","","","",""
"null","","fixation","html-keyboard-response","6","54334","0.0-2.0-0.2","5f07363e47bd2b2e4874684d","condA","","<div class=""vertical-center"" style=""font-size:60px;"">+</div>","null","","","","","","","","","","","","","",""
"3937.644999998156","","tonetest","audio-button-response","7","58272","0.0-2.0-1.2","5f07363e47bd2b2e4874684d","condA","","../../src/audio/toneTest_3.wav","","2","2","true","","","","","","","","","","",""
"null","","fixation","html-keyboard-response","8","58774","0.0-2.0-0.3","5f07363e47bd2b2e4874684d","condA","","<div class=""vertical-center"" style=""font-size:60px;"">+</div>","null","","","","","","","","","","","","","",""
"4126.359999994747","","tonetest","audio-button-response","9","62901","0.0-2.0-1.3","5f07363e47bd2b2e4874684d","condA","","../../src/audio/toneTest_6.wav","","0","0","true","","","","","","","","","","",""
"null","","fixation","html-keyboard-response","10","63403","0.0-2.0-0.4","5f07363e47bd2b2e4874684d","condA","","<div class=""vertical-center"" style=""font-size:60px;"">+</div>","null","","","","","","","","","","","","","",""
"3949.2000000027474","","tonetest","audio-button-response","11","67354","0.0-2.0-1.4","5f07363e47bd2b2e4874684d","condA","","../../src/audio/toneTest_2.wav","","1","1","true","","","","","","","","","","",""
"null","","fixation","html-keyboard-response","12","67854","0.0-2.0-0.5","5f07363e47bd2b2e4874684d","condA","","<div class=""vertical-center"" style=""font-size:60px;"">+</div>","null","","","","","","","","","","","","","",""
"3591.2550000066403","","tonetest","audio-button-response","13","71446","0.0-2.0-1.5","5f07363e47bd2b2e4874684d","condA","","../../src/audio/toneTest_1.wav","","2","2","true","","","","","","","","","","",""
"3940.505000005942","","instructions","html-keyboard-response","14","75388","0.0-3.0","5f07363e47bd2b2e4874684d","condA","","<div class=""vertical-center""><p><b>Your score was 6/6.</b></p><p>If you scored below 6, please ensure that you are wearing headphones and in a quiet location free of distractions.</p><p><i>To continue to the main experiment, press SPACE.</i></p></div>","32","","","","","","","","","","","","","",""
"","","","fullscreen","15","77738","0.0-4.0","5f07363e47bd2b2e4874684d","condA","","","","","","","true","","","","","","","","","",""
"19235.64499997883","","instructions","instructions","16","96975","0.0-5.0","5f07363e47bd2b2e4874684d","condA","[{""page_index"":0,""viewing_time"":19235.504999989644}]","","","","","","","","","","","","","","","",""
"null","","fixation","html-keyboard-response","17","97476","0.0-6.0-0.0","5f07363e47bd2b2e4874684d","condA","","<div class=""vertical-center"" style='width:60%;'><p style='font-weight:bold;'>Does the middle word sound more like the first word (A) or the last word (B)?</p> <br> <div class=""container""> <div id=""a-box""> <p class=""title-text"">A</h3></p> </div> <div id=""x-box""> <p class=""title-text"">X<p> </div> <div id=""b-box""> <p class=""title-text"">B</p></div> <br> <div style='float: left;padding-left:30px;'><p>Press '1' for A</p></div><div style='float: right;padding-right:30px;'><p>Press '0' for B</p> </div> </div></div>","null","","","","","","","","","","","","","",""
"3689","","practice","audio-keyboard-response","18","101167","0.0-6.0-1.0","5f07363e47bd2b2e4874684d","condA","","resources/audio/practiceStim/S1_AI_21_axb_Step-6.wav","49","","","","","","","","","","","","","",""
"null","","fixation","html-keyboard-response","19","102170","0.0-6.0-0.1","5f07363e47bd2b2e4874684d","condA","","<div class=""vertical-center"" style='width:60%;'><p style='font-weight:bold;'>Does the middle word sound more like the first word (A) or the last word (B)?</p> <br> <div class=""container""> <div id=""a-box""> <p class=""title-text"">A</h3></p> </div> <div id=""x-box""> <p class=""title-text"">X<p> </div> <div id=""b-box""> <p class=""title-text"">B</p></div> <br> <div style='float: left;padding-left:30px;'><p>Press '1' for A</p></div><div style='float: right;padding-right:30px;'><p>Press '0' for B</p> </div> </div></div>","null","","","","","","","","","","","","","",""
"3210","","practice","audio-keyboard-response","20","105376","0.0-6.0-1.1","5f07363e47bd2b2e4874684d","condA","","resources/audio/practiceStim/S1_AU_14_bxa_Step-6.wav","48","","","","","","","","","","","","","",""
"null","","fixation","html-keyboard-response","21","106378","0.0-6.0-0.2","5f07363e47bd2b2e4874684d","condA","","<div class=""vertical-center"" style='width:60%;'><p style='font-weight:bold;'>Does the middle word sound more like the first word (A) or the last word (B)?</p> <br> <div class=""container""> <div id=""a-box""> <p class=""title-text"">A</h3></p> </div> <div id=""x-box""> <p class=""title-text"">X<p> </div> <div id=""b-box""> <p class=""title-text"">B</p></div> <br> <div style='float: left;padding-left:30px;'><p>Press '1' for A</p></div><div style='float: right;padding-right:30px;'><p>Press '0' for B</p> </div> </div></div>","null","","","","","","","","","","","","","",""
"2900","","practice","audio-keyboard-response","22","109280","0.0-6.0-1.2","5f07363e47bd2b2e4874684d","condA","","resources/audio/practiceStim/S1_AU_14_axb_Step-6.wav","49","","","","","","","","","","","","","",""
"null","","fixation","html-keyboard-response","23","110282","0.0-6.0-0.3","5f07363e47bd2b2e4874684d","condA","","<div class=""vertical-center"" style='width:60%;'><p style='font-weight:bold;'>Does the middle word sound more like the first word (A) or the last word (B)?</p> <br> <div class=""container""> <div id=""a-box""> <p class=""title-text"">A</h3></p> </div> <div id=""x-box""> <p class=""title-text"">X<p> </div> <div id=""b-box""> <p class=""title-text"">B</p></div> <br> <div style='float: left;padding-left:30px;'><p>Press '1' for A</p></div><div style='float: right;padding-right:30px;'><p>Press '0' for B</p> </div> </div></div>","null","","","","","","","","","","","","","",""
"3361","","practice","audio-keyboard-response","24","113648","0.0-6.0-1.3","5f07363e47bd2b2e4874684d","condA","","resources/audio/practiceStim/S1_AI_21_bxa_Step-6.wav","49","","","","","","","","","","","","","",""
"1363.5450000001583","","instructions","instructions","25","115513","0.0-7.0","5f07363e47bd2b2e4874684d","condA","[{""page_index"":0,""viewing_time"":1363.4049999818671}]","","","","","","","","","","","","","","","",""
"null","","fixation","html-keyboard-response","26","116014","0.0-8.0-0.0","5f07363e47bd2b2e4874684d","condA","","<div class=""vertical-center"" style='width:60%;'><p style='font-weight:bold;'>Does the middle word sound more like the first word (A) or the last word (B)?</p> <br> <div class=""container""> <div id=""a-box""> <p class=""title-text"">A</h3></p> </div> <div id=""x-box""> <p class=""title-text"">X<p> </div> <div id=""b-box""> <p class=""title-text"">B</p></div> <br> <div style='float: left;padding-left:30px;'><p>Press '1' for A</p></div><div style='float: right;padding-right:30px;'><p>Press '0' for B</p> </div> </div></div>","null","","","","","","","","","","","","","",""
"3230","","test","audio-keyboard-response","27","119241","0.0-8.0-1.0","5f07363e47bd2b2e4874684d","condA","","resources/audio/wordStim/S3_AI_28_axb_Step-10.wav","49","","","","","AI","resources/audio/wordStim/S3_AI_28_axb_Step-10.wav","S3","28","axb","10","MI","0","1","false"
"null","","fixation","html-keyboard-response","28","120244","0.0-8.0-0.1","5f07363e47bd2b2e4874684d","condA","","<div class=""vertical-center"" style='width:60%;'><p style='font-weight:bold;'>Does the middle word sound more like the first word (A) or the last word (B)?</p> <br> <div class=""container""> <div id=""a-box""> <p class=""title-text"">A</h3></p> </div> <div id=""x-box""> <p class=""title-text"">X<p> </div> <div id=""b-box""> <p class=""title-text"">B</p></div> <br> <div style='float: left;padding-left:30px;'><p>Press '1' for A</p></div><div style='float: right;padding-right:30px;'><p>Press '0' for B</p> </div> </div></div>","null","","","","","","","","","","","","","",""
"3567","","test","audio-keyboard-response","29","123818","0.0-8.0-1.1","5f07363e47bd2b2e4874684d","condA","","resources/audio/wordStim/S9_AI_22_axb_Step-3.wav","48","","","","","AI","resources/audio/wordStim/S9_AI_22_axb_Step-3.wav","S9","22","axb","3","CN","0","0","true"
"null","","fixation","html-keyboard-response","30","124822","0.0-8.0-0.2","5f07363e47bd2b2e4874684d","condA","","<div class=""vertical-center"" style='width:60%;'><p style='font-weight:bold;'>Does the middle word sound more like the first word (A) or the last word (B)?</p> <br> <div class=""container""> <div id=""a-box""> <p class=""title-text"">A</h3></p> </div> <div id=""x-box""> <p class=""title-text"">X<p> </div> <div id=""b-box""> <p class=""title-text"">B</p></div> <br> <div style='float: left;padding-left:30px;'><p>Press '1' for A</p></div><div style='float: right;padding-right:30px;'><p>Press '0' for B</p> </div> </div></div>","null","","","","","","","","","","","","","",""
"4122","","test","audio-keyboard-response","31","128947","0.0-8.0-1.2","5f07363e47bd2b2e4874684d","condA","","resources/audio/wordStim/S3_AU_17_bxa_Step-8.wav","49","","","","","AU","resources/audio/wordStim/S3_AU_17_bxa_Step-8.wav","S3","17","bxa","8","MI","1","1","true"
"null","","fixation","html-keyboard-response","32","129950","0.0-8.0-0.3","5f07363e47bd2b2e4874684d","condA","","<div class=""vertical-center"" style='width:60%;'><p style='font-weight:bold;'>Does the middle word sound more like the first word (A) or the last word (B)?</p> <br> <div class=""container""> <div id=""a-box""> <p class=""title-text"">A</h3></p> </div> <div id=""x-box""> <p class=""title-text"">X<p> </div> <div id=""b-box""> <p class=""title-text"">B</p></div> <br> <div style='float: left;padding-left:30px;'><p>Press '1' for A</p></div><div style='float: right;padding-right:30px;'><p>Press '0' for B</p> </div> </div></div>","null","","","","","","","","","","","","","",""
"2781","","test","audio-keyboard-response","33","132740","0.0-8.0-1.3","5f07363e47bd2b2e4874684d","condA","","resources/audio/wordStim/S3_AI_25_axb_Step-10.wav","48","","","","","AI","resources/audio/wordStim/S3_AI_25_axb_Step-10.wav","S3","25","axb","10","MI","0","0","true"
"null","","fixation","html-keyboard-response","34","133741","0.0-8.0-0.4","5f07363e47bd2b2e4874684d","condA","","<div class=""vertical-center"" style='width:60%;'><p style='font-weight:bold;'>Does the middle word sound more like the first word (A) or the last word (B)?</p> <br> <div class=""container""> <div id=""a-box""> <p class=""title-text"">A</h3></p> </div> <div id=""x-box""> <p class=""title-text"">X<p> </div> <div id=""b-box""> <p class=""title-text"">B</p></div> <br> <div style='float: left;padding-left:30px;'><p>Press '1' for A</p></div><div style='float: right;padding-right:30px;'><p>Press '0' for B</p> </div> </div></div>","null","","","","","","","","","","","","","",""
"2879","","test","audio-keyboard-response","35","136628","0.0-8.0-1.4","5f07363e47bd2b2e4874684d","condA","","resources/audio/wordStim/S9_AU_13_bxa_Step-4.wav","48","","","","","AU","resources/audio/wordStim/S9_AU_13_bxa_Step-4.wav","S9","13","bxa","4","CN","1","0","false"
"null","","fixation","html-keyboard-response","36","137630","0.0-8.0-0.5","5f07363e47bd2b2e4874684d","condA","","<div class=""vertical-center"" style='width:60%;'><p style='font-weight:bold;'>Does the middle word sound more like the first word (A) or the last word (B)?</p> <br> <div class=""container""> <div id=""a-box""> <p class=""title-text"">A</h3></p> </div> <div id=""x-box""> <p class=""title-text"">X<p> </div> <div id=""b-box""> <p class=""title-text"">B</p></div> <br> <div style='float: left;padding-left:30px;'><p>Press '1' for A</p></div><div style='float: right;padding-right:30px;'><p>Press '0' for B</p> </div> </div></div>","null","","","","","","","","","","","","","",""
"2969","","test","audio-keyboard-response","37","140605","0.0-8.0-1.5","5f07363e47bd2b2e4874684d","condA","","resources/audio/wordStim/S9_AI_24_axb_Step-3.wav","49","","","","","AI","resources/audio/wordStim/S9_AI_24_axb_Step-3.wav","S9","24","axb","3","CN","0","1","false"
"null","","fixation","html-keyboard-response","38","141607","0.0-8.0-0.6","5f07363e47bd2b2e4874684d","condA","","<div class=""vertical-center"" style='width:60%;'><p style='font-weight:bold;'>Does the middle word sound more like the first word (A) or the last word (B)?</p> <br> <div class=""container""> <div id=""a-box""> <p class=""title-text"">A</h3></p> </div> <div id=""x-box""> <p class=""title-text"">X<p> </div> <div id=""b-box""> <p class=""title-text"">B</p></div> <br> <div style='float: left;padding-left:30px;'><p>Press '1' for A</p></div><div style='float: right;padding-right:30px;'><p>Press '0' for B</p> </div> </div></div>","null","","","","","","","","","","","","","",""
"3410","","test","audio-keyboard-response","39","145013","0.0-8.0-1.6","5f07363e47bd2b2e4874684d","condA","","resources/audio/wordStim/S9_AI_30_bxa_Step-6.wav","48","","","","","AI","resources/audio/wordStim/S9_AI_30_bxa_Step-6.wav","S9","30","bxa","6","CN","1","0","false"
"null","","fixation","html-keyboard-response","40","146015","0.0-8.0-0.7","5f07363e47bd2b2e4874684d","condA","","<div class=""vertical-center"" style='width:60%;'><p style='font-weight:bold;'>Does the middle word sound more like the first word (A) or the last word (B)?</p> <br> <div class=""container""> <div id=""a-box""> <p class=""title-text"">A</h3></p> </div> <div id=""x-box""> <p class=""title-text"">X<p> </div> <div id=""b-box""> <p class=""title-text"">B</p></div> <br> <div style='float: left;padding-left:30px;'><p>Press '1' for A</p></div><div style='float: right;padding-right:30px;'><p>Press '0' for B</p> </div> </div></div>","null","","","","","","","","","","","","","",""
"3680","","test","audio-keyboard-response","41","149694","0.0-8.0-1.7","5f07363e47bd2b2e4874684d","condA","","resources/audio/wordStim/S3_AU_17_axb_Step-9.wav","49","","","","","AU","resources/audio/wordStim/S3_AU_17_axb_Step-9.wav","S3","17","axb","9","MI","0","1","false"
"null","","fixation","html-keyboard-response","42","150696","0.0-8.0-0.8","5f07363e47bd2b2e4874684d","condA","","<div class=""vertical-center"" style='width:60%;'><p style='font-weight:bold;'>Does the middle word sound more like the first word (A) or the last word (B)?</p> <br> <div class=""container""> <div id=""a-box""> <p class=""title-text"">A</h3></p> </div> <div id=""x-box""> <p class=""title-text"">X<p> </div> <div id=""b-box""> <p class=""title-text"">B</p></div> <br> <div style='float: left;padding-left:30px;'><p>Press '1' for A</p></div><div style='float: right;padding-right:30px;'><p>Press '0' for B</p> </div> </div></div>","null","","","","","","","","","","","","","",""
"3373","","test","audio-keyboard-response","43","154063","0.0-8.0-1.8","5f07363e47bd2b2e4874684d","condA","","resources/audio/wordStim/S9_AU_14_axb_Step-9.wav","48","","","","","AU","resources/audio/wordStim/S9_AU_14_axb_Step-9.wav","S9","14","axb","9","CN","0","0","true"
"null","","fixation","html-keyboard-response","44","155064","0.0-8.0-0.9","5f07363e47bd2b2e4874684d","condA","","<div class=""vertical-center"" style='width:60%;'><p style='font-weight:bold;'>Does the middle word sound more like the first word (A) or the last word (B)?</p> <br> <div class=""container""> <div id=""a-box""> <p class=""title-text"">A</h3></p> </div> <div id=""x-box""> <p class=""title-text"">X<p> </div> <div id=""b-box""> <p class=""title-text"">B</p></div> <br> <div style='float: left;padding-left:30px;'><p>Press '1' for A</p></div><div style='float: right;padding-right:30px;'><p>Press '0' for B</p> </div> </div></div>","null","","","","","","","","","","","","","",""
"2879","","test","audio-keyboard-response","45","157943","0.0-8.0-1.9","5f07363e47bd2b2e4874684d","condA","","resources/audio/wordStim/S3_AI_21_bxa_Step-6.wav","49","","","","","AI","resources/audio/wordStim/S3_AI_21_bxa_Step-6.wav","S3","21","bxa","6","MI","1","1","true"
"null","","fixation","html-keyboard-response","46","158945","0.0-8.0-0.10","5f07363e47bd2b2e4874684d","condA","","<div class=""vertical-center"" style='width:60%;'><p style='font-weight:bold;'>Does the middle word sound more like the first word (A) or the last word (B)?</p> <br> <div class=""container""> <div id=""a-box""> <p class=""title-text"">A</h3></p> </div> <div id=""x-box""> <p class=""title-text"">X<p> </div> <div id=""b-box""> <p class=""title-text"">B</p></div> <br> <div style='float: left;padding-left:30px;'><p>Press '1' for A</p></div><div style='float: right;padding-right:30px;'><p>Press '0' for B</p> </div> </div></div>","null","","","","","","","","","","","","","",""
"2801","","test","audio-keyboard-response","47","161744","0.0-8.0-1.10","5f07363e47bd2b2e4874684d","condA","","resources/audio/wordStim/S3_AI_30_bxa_Step-2.wav","48","","","","","AI","resources/audio/wordStim/S3_AI_30_bxa_Step-2.wav","S3","30","bxa","2","MI","1","0","false"
"null","","fixation","html-keyboard-response","48","162746","0.0-8.0-0.11","5f07363e47bd2b2e4874684d","condA","","<div class=""vertical-center"" style='width:60%;'><p style='font-weight:bold;'>Does the middle word sound more like the first word (A) or the last word (B)?</p> <br> <div class=""container""> <div id=""a-box""> <p class=""title-text"">A</h3></p> </div> <div id=""x-box""> <p class=""title-text"">X<p> </div> <div id=""b-box""> <p class=""title-text"">B</p></div> <br> <div style='float: left;padding-left:30px;'><p>Press '1' for A</p></div><div style='float: right;padding-right:30px;'><p>Press '0' for B</p> </div> </div></div>","null","","","","","","","","","","","","","",""
"3271","","test","audio-keyboard-response","49","166017","0.0-8.0-1.11","5f07363e47bd2b2e4874684d","condA","","resources/audio/wordStim/S9_AI_29_bxa_Step-2.wav","48","","","","","AI","resources/audio/wordStim/S9_AI_29_bxa_Step-2.wav","S9","29","bxa","2","CN","1","0","false"
"null","","fixation","html-keyboard-response","50","167018","0.0-8.0-0.12","5f07363e47bd2b2e4874684d","condA","","<div class=""vertical-center"" style='width:60%;'><p style='font-weight:bold;'>Does the middle word sound more like the first word (A) or the last word (B)?</p> <br> <div class=""container""> <div id=""a-box""> <p class=""title-text"">A</h3></p> </div> <div id=""x-box""> <p class=""title-text"">X<p> </div> <div id=""b-box""> <p class=""title-text"">B</p></div> <br> <div style='float: left;padding-left:30px;'><p>Press '1' for A</p></div><div style='float: right;padding-right:30px;'><p>Press '0' for B</p> </div> </div></div>","null","","","","","","","","","","","","","",""
"2969","","test","audio-keyboard-response","51","169985","0.0-8.0-1.12","5f07363e47bd2b2e4874684d","condA","","resources/audio/wordStim/S9_AI_23_axb_Step-7.wav","49","","","","","AI","resources/audio/wordStim/S9_AI_23_axb_Step-7.wav","S9","23","axb","7","CN","0","1","false"
"null","","fixation","html-keyboard-response","52","170988","0.0-8.0-0.13","5f07363e47bd2b2e4874684d","condA","","<div class=""vertical-center"" style='width:60%;'><p style='font-weight:bold;'>Does the middle word sound more like the first word (A) or the last word (B)?</p> <br> <div class=""container""> <div id=""a-box""> <p class=""title-text"">A</h3></p> </div> <div id=""x-box""> <p class=""title-text"">X<p> </div> <div id=""b-box""> <p class=""title-text"">B</p></div> <br> <div style='float: left;padding-left:30px;'><p>Press '1' for A</p></div><div style='float: right;padding-right:30px;'><p>Press '0' for B</p> </div> </div></div>","null","","","","","","","","","","","","","",""
"4670","","test","audio-keyboard-response","53","175650","0.0-8.0-1.13","5f07363e47bd2b2e4874684d","condA","","resources/audio/wordStim/S3_AU_17_bxa_Step-4.wav","48","","","","","AU","resources/audio/wordStim/S3_AU_17_bxa_Step-4.wav","S3","17","bxa","4","MI","1","0","false"
"null","","fixation","html-keyboard-response","54","176653","0.0-8.0-0.14","5f07363e47bd2b2e4874684d","condA","","<div class=""vertical-center"" style='width:60%;'><p style='font-weight:bold;'>Does the middle word sound more like the first word (A) or the last word (B)?</p> <br> <div class=""container""> <div id=""a-box""> <p class=""title-text"">A</h3></p> </div> <div id=""x-box""> <p class=""title-text"">X<p> </div> <div id=""b-box""> <p class=""title-text"">B</p></div> <br> <div style='float: left;padding-left:30px;'><p>Press '1' for A</p></div><div style='float: right;padding-right:30px;'><p>Press '0' for B</p> </div> </div></div>","null","","","","","","","","","","","","","",""
"2598","","test","audio-keyboard-response","55","179259","0.0-8.0-1.14","5f07363e47bd2b2e4874684d","condA","","resources/audio/wordStim/S3_AI_30_bxa_Step-6.wav","48","","","","","AI","resources/audio/wordStim/S3_AI_30_bxa_Step-6.wav","S3","30","bxa","6","MI","1","0","false"
"null","","fixation","html-keyboard-response","56","180261","0.0-8.0-0.15","5f07363e47bd2b2e4874684d","condA","","<div class=""vertical-center"" style='width:60%;'><p style='font-weight:bold;'>Does the middle word sound more like the first word (A) or the last word (B)?</p> <br> <div class=""container""> <div id=""a-box""> <p class=""title-text"">A</h3></p> </div> <div id=""x-box""> <p class=""title-text"">X<p> </div> <div id=""b-box""> <p class=""title-text"">B</p></div> <br> <div style='float: left;padding-left:30px;'><p>Press '1' for A</p></div><div style='float: right;padding-right:30px;'><p>Press '0' for B</p> </div> </div></div>","null","","","","","","","","","","","","","",""
"2630","","test","audio-keyboard-response","57","182899","0.0-8.0-1.15","5f07363e47bd2b2e4874684d","condA","","resources/audio/wordStim/S3_AI_28_bxa_Step-8.wav","49","","","","","AI","resources/audio/wordStim/S3_AI_28_bxa_Step-8.wav","S3","28","bxa","8","MI","1","1","true"
"null","","fixation","html-keyboard-response","58","183902","0.0-8.0-0.16","5f07363e47bd2b2e4874684d","condA","","<div class=""vertical-center"" style='width:60%;'><p style='font-weight:bold;'>Does the middle word sound more like the first word (A) or the last word (B)?</p> <br> <div class=""container""> <div id=""a-box""> <p class=""title-text"">A</h3></p> </div> <div id=""x-box""> <p class=""title-text"">X<p> </div> <div id=""b-box""> <p class=""title-text"">B</p></div> <br> <div style='float: left;padding-left:30px;'><p>Press '1' for A</p></div><div style='float: right;padding-right:30px;'><p>Press '0' for B</p> </div> </div></div>","null","","","","","","","","","","","","","",""
"3442","","test","audio-keyboard-response","59","187348","0.0-8.0-1.16","5f07363e47bd2b2e4874684d","condA","","resources/audio/wordStim/S3_AU_17_bxa_Step-2.wav","48","","","","","AU","resources/audio/wordStim/S3_AU_17_bxa_Step-2.wav","S3","17","bxa","2","MI","1","0","false"
"null","","fixation","html-keyboard-response","60","188350","0.0-8.0-0.17","5f07363e47bd2b2e4874684d","condA","","<div class=""vertical-center"" style='width:60%;'><p style='font-weight:bold;'>Does the middle word sound more like the first word (A) or the last word (B)?</p> <br> <div class=""container""> <div id=""a-box""> <p class=""title-text"">A</h3></p> </div> <div id=""x-box""> <p class=""title-text"">X<p> </div> <div id=""b-box""> <p class=""title-text"">B</p></div> <br> <div style='float: left;padding-left:30px;'><p>Press '1' for A</p></div><div style='float: right;padding-right:30px;'><p>Press '0' for B</p> </div> </div></div>","null","","","","","","","","","","","","","",""
"3309","","test","audio-keyboard-response","61","191661","0.0-8.0-1.17","5f07363e47bd2b2e4874684d","condA","","resources/audio/wordStim/S9_AI_23_axb_Step-3.wav","49","","","","","AI","resources/audio/wordStim/S9_AI_23_axb_Step-3.wav","S9","23","axb","3","CN","0","1","false"
"null","","fixation","html-keyboard-response","62","192663","0.0-8.0-0.18","5f07363e47bd2b2e4874684d","condA","","<div class=""vertical-center"" style='width:60%;'><p style='font-weight:bold;'>Does the middle word sound more like the first word (A) or the last word (B)?</p> <br> <div class=""container""> <div id=""a-box""> <p class=""title-text"">A</h3></p> </div> <div id=""x-box""> <p class=""title-text"">X<p> </div> <div id=""b-box""> <p class=""title-text"">B</p></div> <br> <div style='float: left;padding-left:30px;'><p>Press '1' for A</p></div><div style='float: right;padding-right:30px;'><p>Press '0' for B</p> </div> </div></div>","null","","","","","","","","","","","","","",""
"3381","","test","audio-keyboard-response","63","196045","0.0-8.0-1.18","5f07363e47bd2b2e4874684d","condA","","resources/audio/wordStim/S3_AU_17_bxa_Step-6.wav","48","","","","","AU","resources/audio/wordStim/S3_AU_17_bxa_Step-6.wav","S3","17","bxa","6","MI","1","0","false"
"null","","fixation","html-keyboard-response","64","197048","0.0-8.0-0.19","5f07363e47bd2b2e4874684d","condA","","<div class=""vertical-center"" style='width:60%;'><p style='font-weight:bold;'>Does the middle word sound more like the first word (A) or the last word (B)?</p> <br> <div class=""container""> <div id=""a-box""> <p class=""title-text"">A</h3></p> </div> <div id=""x-box""> <p class=""title-text"">X<p> </div> <div id=""b-box""> <p class=""title-text"">B</p></div> <br> <div style='float: left;padding-left:30px;'><p>Press '1' for A</p></div><div style='float: right;padding-right:30px;'><p>Press '0' for B</p> </div> </div></div>","null","","","","","","","","","","","","","",""
"3297","","test","audio-keyboard-response","65","200342","0.0-8.0-1.19","5f07363e47bd2b2e4874684d","condA","","resources/audio/wordStim/S3_AI_29_bxa_Step-6.wav","49","","","","","AI","resources/audio/wordStim/S3_AI_29_bxa_Step-6.wav","S3","29","bxa","6","MI","1","1","true"
"null","","fixation","html-keyboard-response","66","201343","0.0-8.0-0.20","5f07363e47bd2b2e4874684d","condA","","<div class=""vertical-center"" style='width:60%;'><p style='font-weight:bold;'>Does the middle word sound more like the first word (A) or the last word (B)?</p> <br> <div class=""container""> <div id=""a-box""> <p class=""title-text"">A</h3></p> </div> <div id=""x-box""> <p class=""title-text"">X<p> </div> <div id=""b-box""> <p class=""title-text"">B</p></div> <br> <div style='float: left;padding-left:30px;'><p>Press '1' for A</p></div><div style='float: right;padding-right:30px;'><p>Press '0' for B</p> </div> </div></div>","null","","","","","","","","","","","","","",""
"3109","","test","audio-keyboard-response","67","204455","0.0-8.0-1.20","5f07363e47bd2b2e4874684d","condA","","resources/audio/wordStim/S3_AU_19_bxa_Step-6.wav","49","","","","","AU","resources/audio/wordStim/S3_AU_19_bxa_Step-6.wav","S3","19","bxa","6","MI","1","1","true"
"null","","fixation","html-keyboard-response","68","205456","0.0-8.0-0.21","5f07363e47bd2b2e4874684d","condA","","<div class=""vertical-center"" style='width:60%;'><p style='font-weight:bold;'>Does the middle word sound more like the first word (A) or the last word (B)?</p> <br> <div class=""container""> <div id=""a-box""> <p class=""title-text"">A</h3></p> </div> <div id=""x-box""> <p class=""title-text"">X<p> </div> <div id=""b-box""> <p class=""title-text"">B</p></div> <br> <div style='float: left;padding-left:30px;'><p>Press '1' for A</p></div><div style='float: right;padding-right:30px;'><p>Press '0' for B</p> </div> </div></div>","null","","","","","","","","","","","","","",""
"2781","","test","audio-keyboard-response","69","208231","0.0-8.0-1.21","5f07363e47bd2b2e4874684d","condA","","resources/audio/wordStim/S3_AU_15_bxa_Step-2.wav","49","","","","","AU","resources/audio/wordStim/S3_AU_15_bxa_Step-2.wav","S3","15","bxa","2","MI","1","1","true"
"null","","fixation","html-keyboard-response","70","209232","0.0-8.0-0.22","5f07363e47bd2b2e4874684d","condA","","<div class=""vertical-center"" style='width:60%;'><p style='font-weight:bold;'>Does the middle word sound more like the first word (A) or the last word (B)?</p> <br> <div class=""container""> <div id=""a-box""> <p class=""title-text"">A</h3></p> </div> <div id=""x-box""> <p class=""title-text"">X<p> </div> <div id=""b-box""> <p class=""title-text"">B</p></div> <br> <div style='float: left;padding-left:30px;'><p>Press '1' for A</p></div><div style='float: right;padding-right:30px;'><p>Press '0' for B</p> </div> </div></div>","null","","","","","","","","","","","","","",""
"3190","","test","audio-keyboard-response","71","212424","0.0-8.0-1.22","5f07363e47bd2b2e4874684d","condA","","resources/audio/wordStim/S3_AU_20_axb_Step-3.wav","49","","","","","AU","resources/audio/wordStim/S3_AU_20_axb_Step-3.wav","S3","20","axb","3","MI","0","1","false"
"null","","fixation","html-keyboard-response","72","213426","0.0-8.0-0.23","5f07363e47bd2b2e4874684d","condA","","<div class=""vertical-center"" style='width:60%;'><p style='font-weight:bold;'>Does the middle word sound more like the first word (A) or the last word (B)?</p> <br> <div class=""container""> <div id=""a-box""> <p class=""title-text"">A</h3></p> </div> <div id=""x-box""> <p class=""title-text"">X<p> </div> <div id=""b-box""> <p class=""title-text"">B</p></div> <br> <div style='float: left;padding-left:30px;'><p>Press '1' for A</p></div><div style='float: right;padding-right:30px;'><p>Press '0' for B</p> </div> </div></div>","null","","","","","","","","","","","","","",""
"3239","","test","audio-keyboard-response","73","216665","0.0-8.0-1.23","5f07363e47bd2b2e4874684d","condA","","resources/audio/wordStim/S9_AU_11_bxa_Step-6.wav","49","","","","","AU","resources/audio/wordStim/S9_AU_11_bxa_Step-6.wav","S9","11","bxa","6","CN","1","1","true"
"null","","fixation","html-keyboard-response","74","217667","0.0-8.0-0.24","5f07363e47bd2b2e4874684d","condA","","<div class=""vertical-center"" style='width:60%;'><p style='font-weight:bold;'>Does the middle word sound more like the first word (A) or the last word (B)?</p> <br> <div class=""container""> <div id=""a-box""> <p class=""title-text"">A</h3></p> </div> <div id=""x-box""> <p class=""title-text"">X<p> </div> <div id=""b-box""> <p class=""title-text"">B</p></div> <br> <div style='float: left;padding-left:30px;'><p>Press '1' for A</p></div><div style='float: right;padding-right:30px;'><p>Press '0' for B</p> </div> </div></div>","null","","","","","","","","","","","","","",""
"2961","","test","audio-keyboard-response","75","220625","0.0-8.0-1.24","5f07363e47bd2b2e4874684d","condA","","resources/audio/wordStim/S9_AU_16_axb_Step-3.wav","49","","","","","AU","resources/audio/wordStim/S9_AU_16_axb_Step-3.wav","S9","16","axb","3","CN","0","1","false"
"null","","fixation","html-keyboard-response","76","221628","0.0-8.0-0.25","5f07363e47bd2b2e4874684d","condA","","<div class=""vertical-center"" style='width:60%;'><p style='font-weight:bold;'>Does the middle word sound more like the first word (A) or the last word (B)?</p> <br> <div class=""container""> <div id=""a-box""> <p class=""title-text"">A</h3></p> </div> <div id=""x-box""> <p class=""title-text"">X<p> </div> <div id=""b-box""> <p class=""title-text"">B</p></div> <br> <div style='float: left;padding-left:30px;'><p>Press '1' for A</p></div><div style='float: right;padding-right:30px;'><p>Press '0' for B</p> </div> </div></div>","null","","","","","","","","","","","","","",""
"2699","","test","audio-keyboard-response","77","224322","0.0-8.0-1.25","5f07363e47bd2b2e4874684d","condA","","resources/audio/wordStim/S9_AU_16_axb_Step-7.wav","49","","","","","AU","resources/audio/wordStim/S9_AU_16_axb_Step-7.wav","S9","16","axb","7","CN","0","1","false"
"null","","fixation","html-keyboard-response","78","225324","0.0-8.0-0.26","5f07363e47bd2b2e4874684d","condA","","<div class=""vertical-center"" style='width:60%;'><p style='font-weight:bold;'>Does the middle word sound more like the first word (A) or the last word (B)?</p> <br> <div class=""container""> <div id=""a-box""> <p class=""title-text"">A</h3></p> </div> <div id=""x-box""> <p class=""title-text"">X<p> </div> <div id=""b-box""> <p class=""title-text"">B</p></div> <br> <div style='float: left;padding-left:30px;'><p>Press '1' for A</p></div><div style='float: right;padding-right:30px;'><p>Press '0' for B</p> </div> </div></div>","null","","","","","","","","","","","","","",""
"2949","","test","audio-keyboard-response","79","228274","0.0-8.0-1.26","5f07363e47bd2b2e4874684d","condA","","resources/audio/wordStim/S3_AU_19_axb_Step-3.wav","49","","","","","AU","resources/audio/wordStim/S3_AU_19_axb_Step-3.wav","S3","19","axb","3","MI","0","1","false"
"1171.1150000046473","","break","html-keyboard-response","80","229947","0.0-8.0-2.26-0.26","5f07363e47bd2b2e4874684d","condA","","<div class=""vertical-center""><p>Feel free to take a break!</p><i>When you're ready to continue, press SPACE to begin the next trial.</i></p></div>","32","","","","","","","","","","","","","",""
"null","","fixation","html-keyboard-response","81","230448","0.0-8.0-0.27","5f07363e47bd2b2e4874684d","condA","","<div class=""vertical-center"" style='width:60%;'><p style='font-weight:bold;'>Does the middle word sound more like the first word (A) or the last word (B)?</p> <br> <div class=""container""> <div id=""a-box""> <p class=""title-text"">A</h3></p> </div> <div id=""x-box""> <p class=""title-text"">X<p> </div> <div id=""b-box""> <p class=""title-text"">B</p></div> <br> <div style='float: left;padding-left:30px;'><p>Press '1' for A</p></div><div style='float: right;padding-right:30px;'><p>Press '0' for B</p> </div> </div></div>","null","","","","","","","","","","","","","",""
"2981","","test","audio-keyboard-response","82","233427","0.0-8.0-1.27","5f07363e47bd2b2e4874684d","condA","","resources/audio/wordStim/S3_AI_25_bxa_Step-8.wav","49","","","","","AI","resources/audio/wordStim/S3_AI_25_bxa_Step-8.wav","S3","25","bxa","8","MI","1","1","true"
"null","","fixation","html-keyboard-response","83","234429","0.0-8.0-0.28","5f07363e47bd2b2e4874684d","condA","","<div class=""vertical-center"" style='width:60%;'><p style='font-weight:bold;'>Does the middle word sound more like the first word (A) or the last word (B)?</p> <br> <div class=""container""> <div id=""a-box""> <p class=""title-text"">A</h3></p> </div> <div id=""x-box""> <p class=""title-text"">X<p> </div> <div id=""b-box""> <p class=""title-text"">B</p></div> <br> <div style='float: left;padding-left:30px;'><p>Press '1' for A</p></div><div style='float: right;padding-right:30px;'><p>Press '0' for B</p> </div> </div></div>","null","","","","","","","","","","","","","",""
"4020","","test","audio-keyboard-response","84","238445","0.0-8.0-1.28","5f07363e47bd2b2e4874684d","condA","","resources/audio/wordStim/S3_AU_18_axb_Step-5.wav","49","","","","","AU","resources/audio/wordStim/S3_AU_18_axb_Step-5.wav","S3","18","axb","5","MI","0","1","false"
"null","","fixation","html-keyboard-response","85","239447","0.0-8.0-0.29","5f07363e47bd2b2e4874684d","condA","","<div class=""vertical-center"" style='width:60%;'><p style='font-weight:bold;'>Does the middle word sound more like the first word (A) or the last word (B)?</p> <br> <div class=""container""> <div id=""a-box""> <p class=""title-text"">A</h3></p> </div> <div id=""x-box""> <p class=""title-text"">X<p> </div> <div id=""b-box""> <p class=""title-text"">B</p></div> <br> <div style='float: left;padding-left:30px;'><p>Press '1' for A</p></div><div style='float: right;padding-right:30px;'><p>Press '0' for B</p> </div> </div></div>","null","","","","","","","","","","","","","",""
"3300","","test","audio-keyboard-response","86","242741","0.0-8.0-1.29","5f07363e47bd2b2e4874684d","condA","","resources/audio/wordStim/S3_AU_16_axb_Step-3.wav","48","","","","","AU","resources/audio/wordStim/S3_AU_16_axb_Step-3.wav","S3","16","axb","3","MI","0","0","true"
"null","","fixation","html-keyboard-response","87","243744","0.0-8.0-0.30","5f07363e47bd2b2e4874684d","condA","","<div class=""vertical-center"" style='width:60%;'><p style='font-weight:bold;'>Does the middle word sound more like the first word (A) or the last word (B)?</p> <br> <div class=""container""> <div id=""a-box""> <p class=""title-text"">A</h3></p> </div> <div id=""x-box""> <p class=""title-text"">X<p> </div> <div id=""b-box""> <p class=""title-text"">B</p></div> <br> <div style='float: left;padding-left:30px;'><p>Press '1' for A</p></div><div style='float: right;padding-right:30px;'><p>Press '0' for B</p> </div> </div></div>","null","","","","","","","","","","","","","",""
"3291","","test","audio-keyboard-response","88","247037","0.0-8.0-1.30","5f07363e47bd2b2e4874684d","condA","","resources/audio/wordStim/S3_AI_23_axb_Step-7.wav","48","","","","","AI","resources/audio/wordStim/S3_AI_23_axb_Step-7.wav","S3","23","axb","7","MI","0","0","true"
"null","","fixation","html-keyboard-response","89","248039","0.0-8.0-0.31","5f07363e47bd2b2e4874684d","condA","","<div class=""vertical-center"" style='width:60%;'><p style='font-weight:bold;'>Does the middle word sound more like the first word (A) or the last word (B)?</p> <br> <div class=""container""> <div id=""a-box""> <p class=""title-text"">A</h3></p> </div> <div id=""x-box""> <p class=""title-text"">X<p> </div> <div id=""b-box""> <p class=""title-text"">B</p></div> <br> <div style='float: left;padding-left:30px;'><p>Press '1' for A</p></div><div style='float: right;padding-right:30px;'><p>Press '0' for B</p> </div> </div></div>","null","","","","","","","","","","","","","",""
"2609","","test","audio-keyboard-response","90","250646","0.0-8.0-1.31","5f07363e47bd2b2e4874684d","condA","","resources/audio/wordStim/S3_AI_25_axb_Step-3.wav","49","","","","","AI","resources/audio/wordStim/S3_AI_25_axb_Step-3.wav","S3","25","axb","3","MI","0","1","false"
"null","","fixation","html-keyboard-response","91","251648","0.0-8.0-0.32","5f07363e47bd2b2e4874684d","condA","","<div class=""vertical-center"" style='width:60%;'><p style='font-weight:bold;'>Does the middle word sound more like the first word (A) or the last word (B)?</p> <br> <div class=""container""> <div id=""a-box""> <p class=""title-text"">A</h3></p> </div> <div id=""x-box""> <p class=""title-text"">X<p> </div> <div id=""b-box""> <p class=""title-text"">B</p></div> <br> <div style='float: left;padding-left:30px;'><p>Press '1' for A</p></div><div style='float: right;padding-right:30px;'><p>Press '0' for B</p> </div> </div></div>","null","","","","","","","","","","","","","",""
"2981","","test","audio-keyboard-response","92","254631","0.0-8.0-1.32","5f07363e47bd2b2e4874684d","condA","","resources/audio/wordStim/S9_AI_27_axb_Step-10.wav","48","","","","","AI","resources/audio/wordStim/S9_AI_27_axb_Step-10.wav","S9","27","axb","10","CN","0","0","true"
"null","","fixation","html-keyboard-response","93","255633","0.0-8.0-0.33","5f07363e47bd2b2e4874684d","condA","","<div class=""vertical-center"" style='width:60%;'><p style='font-weight:bold;'>Does the middle word sound more like the first word (A) or the last word (B)?</p> <br> <div class=""container""> <div id=""a-box""> <p class=""title-text"">A</h3></p> </div> <div id=""x-box""> <p class=""title-text"">X<p> </div> <div id=""b-box""> <p class=""title-text"">B</p></div> <br> <div style='float: left;padding-left:30px;'><p>Press '1' for A</p></div><div style='float: right;padding-right:30px;'><p>Press '0' for B</p> </div> </div></div>","null","","","","","","","","","","","","","",""
"3570","","test","audio-keyboard-response","94","259207","0.0-8.0-1.33","5f07363e47bd2b2e4874684d","condA","","resources/audio/wordStim/S3_AU_18_axb_Step-3.wav","49","","","","","AU","resources/audio/wordStim/S3_AU_18_axb_Step-3.wav","S3","18","axb","3","MI","0","1","false"
"null","","fixation","html-keyboard-response","95","260209","0.0-8.0-0.34","5f07363e47bd2b2e4874684d","condA","","<div class=""vertical-center"" style='width:60%;'><p style='font-weight:bold;'>Does the middle word sound more like the first word (A) or the last word (B)?</p> <br> <div class=""container""> <div id=""a-box""> <p class=""title-text"">A</h3></p> </div> <div id=""x-box""> <p class=""title-text"">X<p> </div> <div id=""b-box""> <p class=""title-text"">B</p></div> <br> <div style='float: left;padding-left:30px;'><p>Press '1' for A</p></div><div style='float: right;padding-right:30px;'><p>Press '0' for B</p> </div> </div></div>","null","","","","","","","","","","","","","",""
"3181","","test","audio-keyboard-response","96","263384","0.0-8.0-1.34","5f07363e47bd2b2e4874684d","condA","","resources/audio/wordStim/S9_AU_18_axb_Step-9.wav","48","","","","","AU","resources/audio/wordStim/S9_AU_18_axb_Step-9.wav","S9","18","axb","9","CN","0","0","true"
"null","","fixation","html-keyboard-response","97","264386","0.0-8.0-0.35","5f07363e47bd2b2e4874684d","condA","","<div class=""vertical-center"" style='width:60%;'><p style='font-weight:bold;'>Does the middle word sound more like the first word (A) or the last word (B)?</p> <br> <div class=""container""> <div id=""a-box""> <p class=""title-text"">A</h3></p> </div> <div id=""x-box""> <p class=""title-text"">X<p> </div> <div id=""b-box""> <p class=""title-text"">B</p></div> <br> <div style='float: left;padding-left:30px;'><p>Press '1' for A</p></div><div style='float: right;padding-right:30px;'><p>Press '0' for B</p> </div> </div></div>","null","","","","","","","","","","","","","",""
"3222","","test","audio-keyboard-response","98","267609","0.0-8.0-1.35","5f07363e47bd2b2e4874684d","condA","","resources/audio/wordStim/S3_AU_16_bxa_Step-2.wav","48","","","","","AU","resources/audio/wordStim/S3_AU_16_bxa_Step-2.wav","S3","16","bxa","2","MI","1","0","false"
"null","","fixation","html-keyboard-response","99","268612","0.0-8.0-0.36","5f07363e47bd2b2e4874684d","condA","","<div class=""vertical-center"" style='width:60%;'><p style='font-weight:bold;'>Does the middle word sound more like the first word (A) or the last word (B)?</p> <br> <div class=""container""> <div id=""a-box""> <p class=""title-text"">A</h3></p> </div> <div id=""x-box""> <p class=""title-text"">X<p> </div> <div id=""b-box""> <p class=""title-text"">B</p></div> <br> <div style='float: left;padding-left:30px;'><p>Press '1' for A</p></div><div style='float: right;padding-right:30px;'><p>Press '0' for B</p> </div> </div></div>","null","","","","","","","","","","","","","",""
"2778","","test","audio-keyboard-response","100","271393","0.0-8.0-1.36","5f07363e47bd2b2e4874684d","condA","","resources/audio/wordStim/S9_AU_17_bxa_Step-2.wav","48","","","","","AU","resources/audio/wordStim/S9_AU_17_bxa_Step-2.wav","S9","17","bxa","2","CN","1","0","false"
"null","","fixation","html-keyboard-response","101","272395","0.0-8.0-0.37","5f07363e47bd2b2e4874684d","condA","","<div class=""vertical-center"" style='width:60%;'><p style='font-weight:bold;'>Does the middle word sound more like the first word (A) or the last word (B)?</p> <br> <div class=""container""> <div id=""a-box""> <p class=""title-text"">A</h3></p> </div> <div id=""x-box""> <p class=""title-text"">X<p> </div> <div id=""b-box""> <p class=""title-text"">B</p></div> <br> <div style='float: left;padding-left:30px;'><p>Press '1' for A</p></div><div style='float: right;padding-right:30px;'><p>Press '0' for B</p> </div> </div></div>","null","","","","","","","","","","","","","",""
"2760","","test","audio-keyboard-response","102","275154","0.0-8.0-1.37","5f07363e47bd2b2e4874684d","condA","","resources/audio/wordStim/S9_AU_17_axb_Step-7.wav","48","","","","","AU","resources/audio/wordStim/S9_AU_17_axb_Step-7.wav","S9","17","axb","7","CN","0","0","true"
"null","","fixation","html-keyboard-response","103","276156","0.0-8.0-0.38","5f07363e47bd2b2e4874684d","condA","","<div class=""vertical-center"" style='width:60%;'><p style='font-weight:bold;'>Does the middle word sound more like the first word (A) or the last word (B)?</p> <br> <div class=""container""> <div id=""a-box""> <p class=""title-text"">A</h3></p> </div> <div id=""x-box""> <p class=""title-text"">X<p> </div> <div id=""b-box""> <p class=""title-text"">B</p></div> <br> <div style='float: left;padding-left:30px;'><p>Press '1' for A</p></div><div style='float: right;padding-right:30px;'><p>Press '0' for B</p> </div> </div></div>","null","","","","","","","","","","","","","",""
"2981","","test","audio-keyboard-response","104","279139","0.0-8.0-1.38","5f07363e47bd2b2e4874684d","condA","","resources/audio/wordStim/S9_AI_23_bxa_Step-4.wav","48","","","","","AI","resources/audio/wordStim/S9_AI_23_bxa_Step-4.wav","S9","23","bxa","4","CN","1","0","false"
"null","","fixation","html-keyboard-response","105","280141","0.0-8.0-0.39","5f07363e47bd2b2e4874684d","condA","","<div class=""vertical-center"" style='width:60%;'><p style='font-weight:bold;'>Does the middle word sound more like the first word (A) or the last word (B)?</p> <br> <div class=""container""> <div id=""a-box""> <p class=""title-text"">A</h3></p> </div> <div id=""x-box""> <p class=""title-text"">X<p> </div> <div id=""b-box""> <p class=""title-text"">B</p></div> <br> <div style='float: left;padding-left:30px;'><p>Press '1' for A</p></div><div style='float: right;padding-right:30px;'><p>Press '0' for B</p> </div> </div></div>","null","","","","","","","","","","","","","",""
"2911","","test","audio-keyboard-response","106","283059","0.0-8.0-1.39","5f07363e47bd2b2e4874684d","condA","","resources/audio/wordStim/S9_AU_11_bxa_Step-4.wav","48","","","","","AU","resources/audio/wordStim/S9_AU_11_bxa_Step-4.wav","S9","11","bxa","4","CN","1","0","false"
"null","","fixation","html-keyboard-response","107","284061","0.0-8.0-0.40","5f07363e47bd2b2e4874684d","condA","","<div class=""vertical-center"" style='width:60%;'><p style='font-weight:bold;'>Does the middle word sound more like the first word (A) or the last word (B)?</p> <br> <div class=""container""> <div id=""a-box""> <p class=""title-text"">A</h3></p> </div> <div id=""x-box""> <p class=""title-text"">X<p> </div> <div id=""b-box""> <p class=""title-text"">B</p></div> <br> <div style='float: left;padding-left:30px;'><p>Press '1' for A</p></div><div style='float: right;padding-right:30px;'><p>Press '0' for B</p> </div> </div></div>","null","","","","","","","","","","","","","",""
"3428","","test","audio-keyboard-response","108","287500","0.0-8.0-1.40","5f07363e47bd2b2e4874684d","condA","","resources/audio/wordStim/S3_AU_16_bxa_Step-4.wav","48","","","","","AU","resources/audio/wordStim/S3_AU_16_bxa_Step-4.wav","S3","16","bxa","4","MI","1","0","false"
"null","","fixation","html-keyboard-response","109","288502","0.0-8.0-0.41","5f07363e47bd2b2e4874684d","condA","","<div class=""vertical-center"" style='width:60%;'><p style='font-weight:bold;'>Does the middle word sound more like the first word (A) or the last word (B)?</p> <br> <div class=""container""> <div id=""a-box""> <p class=""title-text"">A</h3></p> </div> <div id=""x-box""> <p class=""title-text"">X<p> </div> <div id=""b-box""> <p class=""title-text"">B</p></div> <br> <div style='float: left;padding-left:30px;'><p>Press '1' for A</p></div><div style='float: right;padding-right:30px;'><p>Press '0' for B</p> </div> </div></div>","null","","","","","","","","","","","","","",""
"3631","","test","audio-keyboard-response","110","292132","0.0-8.0-1.41","5f07363e47bd2b2e4874684d","condA","","resources/audio/wordStim/S9_AI_25_bxa_Step-8.wav","49","","","","","AI","resources/audio/wordStim/S9_AI_25_bxa_Step-8.wav","S9","25","bxa","8","CN","1","1","true"
"null","","fixation","html-keyboard-response","111","293134","0.0-8.0-0.42","5f07363e47bd2b2e4874684d","condA","","<div class=""vertical-center"" style='width:60%;'><p style='font-weight:bold;'>Does the middle word sound more like the first word (A) or the last word (B)?</p> <br> <div class=""container""> <div id=""a-box""> <p class=""title-text"">A</h3></p> </div> <div id=""x-box""> <p class=""title-text"">X<p> </div> <div id=""b-box""> <p class=""title-text"">B</p></div> <br> <div style='float: left;padding-left:30px;'><p>Press '1' for A</p></div><div style='float: right;padding-right:30px;'><p>Press '0' for B</p> </div> </div></div>","null","","","","","","","","","","","","","",""
"3358","","test","audio-keyboard-response","112","296493","0.0-8.0-1.42","5f07363e47bd2b2e4874684d","condA","","resources/audio/wordStim/S9_AI_30_bxa_Step-4.wav","48","","","","","AI","resources/audio/wordStim/S9_AI_30_bxa_Step-4.wav","S9","30","bxa","4","CN","1","0","false"
"null","","fixation","html-keyboard-response","113","297495","0.0-8.0-0.43","5f07363e47bd2b2e4874684d","condA","","<div class=""vertical-center"" style='width:60%;'><p style='font-weight:bold;'>Does the middle word sound more like the first word (A) or the last word (B)?</p> <br> <div class=""container""> <div id=""a-box""> <p class=""title-text"">A</h3></p> </div> <div id=""x-box""> <p class=""title-text"">X<p> </div> <div id=""b-box""> <p class=""title-text"">B</p></div> <br> <div style='float: left;padding-left:30px;'><p>Press '1' for A</p></div><div style='float: right;padding-right:30px;'><p>Press '0' for B</p> </div> </div></div>","null","","","","","","","","","","","","","",""
"2998","","test","audio-keyboard-response","114","300494","0.0-8.0-1.43","5f07363e47bd2b2e4874684d","condA","","resources/audio/wordStim/S9_AU_14_axb_Step-5.wav","49","","","","","AU","resources/audio/wordStim/S9_AU_14_axb_Step-5.wav","S9","14","axb","5","CN","0","1","false"
"null","","fixation","html-keyboard-response","115","301496","0.0-8.0-0.44","5f07363e47bd2b2e4874684d","condA","","<div class=""vertical-center"" style='width:60%;'><p style='font-weight:bold;'>Does the middle word sound more like the first word (A) or the last word (B)?</p> <br> <div class=""container""> <div id=""a-box""> <p class=""title-text"">A</h3></p> </div> <div id=""x-box""> <p class=""title-text"">X<p> </div> <div id=""b-box""> <p class=""title-text"">B</p></div> <br> <div style='float: left;padding-left:30px;'><p>Press '1' for A</p></div><div style='float: right;padding-right:30px;'><p>Press '0' for B</p> </div> </div></div>","null","","","","","","","","","","","","","",""
"2630","","test","audio-keyboard-response","116","304126","0.0-8.0-1.44","5f07363e47bd2b2e4874684d","condA","","resources/audio/wordStim/S3_AU_14_axb_Step-5.wav","48","","","","","AU","resources/audio/wordStim/S3_AU_14_axb_Step-5.wav","S3","14","axb","5","MI","0","0","true"
"null","","fixation","html-keyboard-response","117","305129","0.0-8.0-0.45","5f07363e47bd2b2e4874684d","condA","","<div class=""vertical-center"" style='width:60%;'><p style='font-weight:bold;'>Does the middle word sound more like the first word (A) or the last word (B)?</p> <br> <div class=""container""> <div id=""a-box""> <p class=""title-text"">A</h3></p> </div> <div id=""x-box""> <p class=""title-text"">X<p> </div> <div id=""b-box""> <p class=""title-text"">B</p></div> <br> <div style='float: left;padding-left:30px;'><p>Press '1' for A</p></div><div style='float: right;padding-right:30px;'><p>Press '0' for B</p> </div> </div></div>","null","","","","","","","","","","","","","",""
"2621","","test","audio-keyboard-response","118","307743","0.0-8.0-1.45","5f07363e47bd2b2e4874684d","condA","","resources/audio/wordStim/S3_AI_23_axb_Step-3.wav","49","","","","","AI","resources/audio/wordStim/S3_AI_23_axb_Step-3.wav","S3","23","axb","3","MI","0","1","false"
"null","","fixation","html-keyboard-response","119","308745","0.0-8.0-0.46","5f07363e47bd2b2e4874684d","condA","","<div class=""vertical-center"" style='width:60%;'><p style='font-weight:bold;'>Does the middle word sound more like the first word (A) or the last word (B)?</p> <br> <div class=""container""> <div id=""a-box""> <p class=""title-text"">A</h3></p> </div> <div id=""x-box""> <p class=""title-text"">X<p> </div> <div id=""b-box""> <p class=""title-text"">B</p></div> <br> <div style='float: left;padding-left:30px;'><p>Press '1' for A</p></div><div style='float: right;padding-right:30px;'><p>Press '0' for B</p> </div> </div></div>","null","","","","","","","","","","","","","",""
"2609","","test","audio-keyboard-response","120","311351","0.0-8.0-1.46","5f07363e47bd2b2e4874684d","condA","","resources/audio/wordStim/S3_AU_15_bxa_Step-8.wav","48","","","","","AU","resources/audio/wordStim/S3_AU_15_bxa_Step-8.wav","S3","15","bxa","8","MI","1","0","false"
"null","","fixation","html-keyboard-response","121","312353","0.0-8.0-0.47","5f07363e47bd2b2e4874684d","condA","","<div class=""vertical-center"" style='width:60%;'><p style='font-weight:bold;'>Does the middle word sound more like the first word (A) or the last word (B)?</p> <br> <div class=""container""> <div id=""a-box""> <p class=""title-text"">A</h3></p> </div> <div id=""x-box""> <p class=""title-text"">X<p> </div> <div id=""b-box""> <p class=""title-text"">B</p></div> <br> <div style='float: left;padding-left:30px;'><p>Press '1' for A</p></div><div style='float: right;padding-right:30px;'><p>Press '0' for B</p> </div> </div></div>","null","","","","","","","","","","","","","",""
"3230","","test","audio-keyboard-response","122","315584","0.0-8.0-1.47","5f07363e47bd2b2e4874684d","condA","","resources/audio/wordStim/S3_AU_16_axb_Step-5.wav","48","","","","","AU","resources/audio/wordStim/S3_AU_16_axb_Step-5.wav","S3","16","axb","5","MI","0","0","true"
"null","","fixation","html-keyboard-response","123","316586","0.0-8.0-0.48","5f07363e47bd2b2e4874684d","condA","","<div class=""vertical-center"" style='width:60%;'><p style='font-weight:bold;'>Does the middle word sound more like the first word (A) or the last word (B)?</p> <br> <div class=""container""> <div id=""a-box""> <p class=""title-text"">A</h3></p> </div> <div id=""x-box""> <p class=""title-text"">X<p> </div> <div id=""b-box""> <p class=""title-text"">B</p></div> <br> <div style='float: left;padding-left:30px;'><p>Press '1' for A</p></div><div style='float: right;padding-right:30px;'><p>Press '0' for B</p> </div> </div></div>","null","","","","","","","","","","","","","",""
"3088","","test","audio-keyboard-response","124","319673","0.0-8.0-1.48","5f07363e47bd2b2e4874684d","condA","","resources/audio/wordStim/S9_AU_13_axb_Step-5.wav","48","","","","","AU","resources/audio/wordStim/S9_AU_13_axb_Step-5.wav","S9","13","axb","5","CN","0","0","true"
"null","","fixation","html-keyboard-response","125","320676","0.0-8.0-0.49","5f07363e47bd2b2e4874684d","condA","","<div class=""vertical-center"" style='width:60%;'><p style='font-weight:bold;'>Does the middle word sound more like the first word (A) or the last word (B)?</p> <br> <div class=""container""> <div id=""a-box""> <p class=""title-text"">A</h3></p> </div> <div id=""x-box""> <p class=""title-text"">X<p> </div> <div id=""b-box""> <p class=""title-text"">B</p></div> <br> <div style='float: left;padding-left:30px;'><p>Press '1' for A</p></div><div style='float: right;padding-right:30px;'><p>Press '0' for B</p> </div> </div></div>","null","","","","","","","","","","","","","",""
"2810","","test","audio-keyboard-response","126","323489","0.0-8.0-1.49","5f07363e47bd2b2e4874684d","condA","","resources/audio/wordStim/S9_AU_19_bxa_Step-6.wav","48","","","","","AU","resources/audio/wordStim/S9_AU_19_bxa_Step-6.wav","S9","19","bxa","6","CN","1","0","false"
"null","","fixation","html-keyboard-response","127","324492","0.0-8.0-0.50","5f07363e47bd2b2e4874684d","condA","","<div class=""vertical-center"" style='width:60%;'><p style='font-weight:bold;'>Does the middle word sound more like the first word (A) or the last word (B)?</p> <br> <div class=""container""> <div id=""a-box""> <p class=""title-text"">A</h3></p> </div> <div id=""x-box""> <p class=""title-text"">X<p> </div> <div id=""b-box""> <p class=""title-text"">B</p></div> <br> <div style='float: left;padding-left:30px;'><p>Press '1' for A</p></div><div style='float: right;padding-right:30px;'><p>Press '0' for B</p> </div> </div></div>","null","","","","","","","","","","","","","",""
"2781","","test","audio-keyboard-response","128","327274","0.0-8.0-1.50","5f07363e47bd2b2e4874684d","condA","","resources/audio/wordStim/S9_AU_14_bxa_Step-8.wav","49","","","","","AU","resources/audio/wordStim/S9_AU_14_bxa_Step-8.wav","S9","14","bxa","8","CN","1","1","true"
"null","","fixation","html-keyboard-response","129","328277","0.0-8.0-0.51","5f07363e47bd2b2e4874684d","condA","","<div class=""vertical-center"" style='width:60%;'><p style='font-weight:bold;'>Does the middle word sound more like the first word (A) or the last word (B)?</p> <br> <div class=""container""> <div id=""a-box""> <p class=""title-text"">A</h3></p> </div> <div id=""x-box""> <p class=""title-text"">X<p> </div> <div id=""b-box""> <p class=""title-text"">B</p></div> <br> <div style='float: left;padding-left:30px;'><p>Press '1' for A</p></div><div style='float: right;padding-right:30px;'><p>Press '0' for B</p> </div> </div></div>","null","","","","","","","","","","","","","",""
"2801","","test","audio-keyboard-response","130","331074","0.0-8.0-1.51","5f07363e47bd2b2e4874684d","condA","","resources/audio/wordStim/S3_AU_20_axb_Step-9.wav","48","","","","","AU","resources/audio/wordStim/S3_AU_20_axb_Step-9.wav","S3","20","axb","9","MI","0","0","true"
"null","","fixation","html-keyboard-response","131","332076","0.0-8.0-0.52","5f07363e47bd2b2e4874684d","condA","","<div class=""vertical-center"" style='width:60%;'><p style='font-weight:bold;'>Does the middle word sound more like the first word (A) or the last word (B)?</p> <br> <div class=""container""> <div id=""a-box""> <p class=""title-text"">A</h3></p> </div> <div id=""x-box""> <p class=""title-text"">X<p> </div> <div id=""b-box""> <p class=""title-text"">B</p></div> <br> <div style='float: left;padding-left:30px;'><p>Press '1' for A</p></div><div style='float: right;padding-right:30px;'><p>Press '0' for B</p> </div> </div></div>","null","","","","","","","","","","","","","",""
"2548","","test","audio-keyboard-response","132","334627","0.0-8.0-1.52","5f07363e47bd2b2e4874684d","condA","","resources/audio/wordStim/S3_AI_25_axb_Step-7.wav","48","","","","","AI","resources/audio/wordStim/S3_AI_25_axb_Step-7.wav","S3","25","axb","7","MI","0","0","true"
"null","","fixation","html-keyboard-response","133","335629","0.0-8.0-0.53","5f07363e47bd2b2e4874684d","condA","","<div class=""vertical-center"" style='width:60%;'><p style='font-weight:bold;'>Does the middle word sound more like the first word (A) or the last word (B)?</p> <br> <div class=""container""> <div id=""a-box""> <p class=""title-text"">A</h3></p> </div> <div id=""x-box""> <p class=""title-text"">X<p> </div> <div id=""b-box""> <p class=""title-text"">B</p></div> <br> <div style='float: left;padding-left:30px;'><p>Press '1' for A</p></div><div style='float: right;padding-right:30px;'><p>Press '0' for B</p> </div> </div></div>","null","","","","","","","","","","","","","",""
"2908","","test","audio-keyboard-response","134","338539","0.0-8.0-1.53","5f07363e47bd2b2e4874684d","condA","","resources/audio/wordStim/S3_AI_23_axb_Step-10.wav","48","","","","","AI","resources/audio/wordStim/S3_AI_23_axb_Step-10.wav","S3","23","axb","10","MI","0","0","true"
"1178.6499999871012","","break","html-keyboard-response","135","340220","0.0-8.0-2.53-0.53","5f07363e47bd2b2e4874684d","condA","","<div class=""vertical-center""><p>Feel free to take a break!</p><i>When you're ready to continue, press SPACE to begin the next trial.</i></p></div>","32","","","","","","","","","","","","","",""
"null","","fixation","html-keyboard-response","136","340721","0.0-8.0-0.54","5f07363e47bd2b2e4874684d","condA","","<div class=""vertical-center"" style='width:60%;'><p style='font-weight:bold;'>Does the middle word sound more like the first word (A) or the last word (B)?</p> <br> <div class=""container""> <div id=""a-box""> <p class=""title-text"">A</h3></p> </div> <div id=""x-box""> <p class=""title-text"">X<p> </div> <div id=""b-box""> <p class=""title-text"">B</p></div> <br> <div style='float: left;padding-left:30px;'><p>Press '1' for A</p></div><div style='float: right;padding-right:30px;'><p>Press '0' for B</p> </div> </div></div>","null","","","","","","","","","","","","","",""
"2859","","test","audio-keyboard-response","137","343588","0.0-8.0-1.54","5f07363e47bd2b2e4874684d","condA","","resources/audio/wordStim/S9_AU_11_bxa_Step-8.wav","48","","","","","AU","resources/audio/wordStim/S9_AU_11_bxa_Step-8.wav","S9","11","bxa","8","CN","1","0","false"
"null","","fixation","html-keyboard-response","138","344591","0.0-8.0-0.55","5f07363e47bd2b2e4874684d","condA","","<div class=""vertical-center"" style='width:60%;'><p style='font-weight:bold;'>Does the middle word sound more like the first word (A) or the last word (B)?</p> <br> <div class=""container""> <div id=""a-box""> <p class=""title-text"">A</h3></p> </div> <div id=""x-box""> <p class=""title-text"">X<p> </div> <div id=""b-box""> <p class=""title-text"">B</p></div> <br> <div style='float: left;padding-left:30px;'><p>Press '1' for A</p></div><div style='float: right;padding-right:30px;'><p>Press '0' for B</p> </div> </div></div>","null","","","","","","","","","","","","","",""
"2932","","test","audio-keyboard-response","139","347525","0.0-8.0-1.55","5f07363e47bd2b2e4874684d","condA","","resources/audio/wordStim/S9_AI_29_bxa_Step-4.wav","48","","","","","AI","resources/audio/wordStim/S9_AI_29_bxa_Step-4.wav","S9","29","bxa","4","CN","1","0","false"
"null","","fixation","html-keyboard-response","140","348526","0.0-8.0-0.56","5f07363e47bd2b2e4874684d","condA","","<div class=""vertical-center"" style='width:60%;'><p style='font-weight:bold;'>Does the middle word sound more like the first word (A) or the last word (B)?</p> <br> <div class=""container""> <div id=""a-box""> <p class=""title-text"">A</h3></p> </div> <div id=""x-box""> <p class=""title-text"">X<p> </div> <div id=""b-box""> <p class=""title-text"">B</p></div> <br> <div style='float: left;padding-left:30px;'><p>Press '1' for A</p></div><div style='float: right;padding-right:30px;'><p>Press '0' for B</p> </div> </div></div>","null","","","","","","","","","","","","","",""
"2461","","test","audio-keyboard-response","141","350981","0.0-8.0-1.56","5f07363e47bd2b2e4874684d","condA","","resources/audio/wordStim/S9_AU_16_axb_Step-5.wav","48","","","","","AU","resources/audio/wordStim/S9_AU_16_axb_Step-5.wav","S9","16","axb","5","CN","0","0","true"
"null","","fixation","html-keyboard-response","142","351984","0.0-8.0-0.57","5f07363e47bd2b2e4874684d","condA","","<div class=""vertical-center"" style='width:60%;'><p style='font-weight:bold;'>Does the middle word sound more like the first word (A) or the last word (B)?</p> <br> <div class=""container""> <div id=""a-box""> <p class=""title-text"">A</h3></p> </div> <div id=""x-box""> <p class=""title-text"">X<p> </div> <div id=""b-box""> <p class=""title-text"">B</p></div> <br> <div style='float: left;padding-left:30px;'><p>Press '1' for A</p></div><div style='float: right;padding-right:30px;'><p>Press '0' for B</p> </div> </div></div>","null","","","","","","","","","","","","","",""
"3001","","test","audio-keyboard-response","143","354990","0.0-8.0-1.57","5f07363e47bd2b2e4874684d","condA","","resources/audio/wordStim/S9_AU_11_axb_Step-10.wav","49","","","","","AU","resources/audio/wordStim/S9_AU_11_axb_Step-10.wav","S9","11","axb","10","CN","0","1","false"
"null","","fixation","html-keyboard-response","144","355993","0.0-8.0-0.58","5f07363e47bd2b2e4874684d","condA","","<div class=""vertical-center"" style='width:60%;'><p style='font-weight:bold;'>Does the middle word sound more like the first word (A) or the last word (B)?</p> <br> <div class=""container""> <div id=""a-box""> <p class=""title-text"">A</h3></p> </div> <div id=""x-box""> <p class=""title-text"">X<p> </div> <div id=""b-box""> <p class=""title-text"">B</p></div> <br> <div style='float: left;padding-left:30px;'><p>Press '1' for A</p></div><div style='float: right;padding-right:30px;'><p>Press '0' for B</p> </div> </div></div>","null","","","","","","","","","","","","","",""
"2818","","test","audio-keyboard-response","145","358815","0.0-8.0-1.58","5f07363e47bd2b2e4874684d","condA","","resources/audio/wordStim/S3_AU_11_bxa_Step-4.wav","48","","","","","AU","resources/audio/wordStim/S3_AU_11_bxa_Step-4.wav","S3","11","bxa","4","MI","1","0","false"
"null","","fixation","html-keyboard-response","146","359816","0.0-8.0-0.59","5f07363e47bd2b2e4874684d","condA","","<div class=""vertical-center"" style='width:60%;'><p style='font-weight:bold;'>Does the middle word sound more like the first word (A) or the last word (B)?</p> <br> <div class=""container""> <div id=""a-box""> <p class=""title-text"">A</h3></p> </div> <div id=""x-box""> <p class=""title-text"">X<p> </div> <div id=""b-box""> <p class=""title-text"">B</p></div> <br> <div style='float: left;padding-left:30px;'><p>Press '1' for A</p></div><div style='float: right;padding-right:30px;'><p>Press '0' for B</p> </div> </div></div>","null","","","","","","","","","","","","","",""
"2679","","test","audio-keyboard-response","147","362494","0.0-8.0-1.59","5f07363e47bd2b2e4874684d","condA","","resources/audio/wordStim/S9_AU_17_axb_Step-10.wav","48","","","","","AU","resources/audio/wordStim/S9_AU_17_axb_Step-10.wav","S9","17","axb","10","CN","0","0","true"
"null","","fixation","html-keyboard-response","148","363497","0.0-8.0-0.60","5f07363e47bd2b2e4874684d","condA","","<div class=""vertical-center"" style='width:60%;'><p style='font-weight:bold;'>Does the middle word sound more like the first word (A) or the last word (B)?</p> <br> <div class=""container""> <div id=""a-box""> <p class=""title-text"">A</h3></p> </div> <div id=""x-box""> <p class=""title-text"">X<p> </div> <div id=""b-box""> <p class=""title-text"">B</p></div> <br> <div style='float: left;padding-left:30px;'><p>Press '1' for A</p></div><div style='float: right;padding-right:30px;'><p>Press '0' for B</p> </div> </div></div>","null","","","","","","","","","","","","","",""
"3518","","test","audio-keyboard-response","149","367015","0.0-8.0-1.60","5f07363e47bd2b2e4874684d","condA","","resources/audio/wordStim/S9_AU_18_bxa_Step-8.wav","49","","","","","AU","resources/audio/wordStim/S9_AU_18_bxa_Step-8.wav","S9","18","bxa","8","CN","1","1","true"
"null","","fixation","html-keyboard-response","150","368018","0.0-8.0-0.61","5f07363e47bd2b2e4874684d","condA","","<div class=""vertical-center"" style='width:60%;'><p style='font-weight:bold;'>Does the middle word sound more like the first word (A) or the last word (B)?</p> <br> <div class=""container""> <div id=""a-box""> <p class=""title-text"">A</h3></p> </div> <div id=""x-box""> <p class=""title-text"">X<p> </div> <div id=""b-box""> <p class=""title-text"">B</p></div> <br> <div style='float: left;padding-left:30px;'><p>Press '1' for A</p></div><div style='float: right;padding-right:30px;'><p>Press '0' for B</p> </div> </div></div>","null","","","","","","","","","","","","","",""
"3111","","test","audio-keyboard-response","151","371120","0.0-8.0-1.61","5f07363e47bd2b2e4874684d","condA","","resources/audio/wordStim/S9_AU_13_axb_Step-7.wav","49","","","","","AU","resources/audio/wordStim/S9_AU_13_axb_Step-7.wav","S9","13","axb","7","CN","0","1","false"
"null","","fixation","html-keyboard-response","152","372122","0.0-8.0-0.62","5f07363e47bd2b2e4874684d","condA","","<div class=""vertical-center"" style='width:60%;'><p style='font-weight:bold;'>Does the middle word sound more like the first word (A) or the last word (B)?</p> <br> <div class=""container""> <div id=""a-box""> <p class=""title-text"">A</h3></p> </div> <div id=""x-box""> <p class=""title-text"">X<p> </div> <div id=""b-box""> <p class=""title-text"">B</p></div> <br> <div style='float: left;padding-left:30px;'><p>Press '1' for A</p></div><div style='float: right;padding-right:30px;'><p>Press '0' for B</p> </div> </div></div>","null","","","","","","","","","","","","","",""
"3390","","test","audio-keyboard-response","153","375512","0.0-8.0-1.62","5f07363e47bd2b2e4874684d","condA","","resources/audio/wordStim/S3_AU_18_bxa_Step-2.wav","48","","","","","AU","resources/audio/wordStim/S3_AU_18_bxa_Step-2.wav","S3","18","bxa","2","MI","1","0","false"
"null","","fixation","html-keyboard-response","154","376515","0.0-8.0-0.63","5f07363e47bd2b2e4874684d","condA","","<div class=""vertical-center"" style='width:60%;'><p style='font-weight:bold;'>Does the middle word sound more like the first word (A) or the last word (B)?</p> <br> <div class=""container""> <div id=""a-box""> <p class=""title-text"">A</h3></p> </div> <div id=""x-box""> <p class=""title-text"">X<p> </div> <div id=""b-box""> <p class=""title-text"">B</p></div> <br> <div style='float: left;padding-left:30px;'><p>Press '1' for A</p></div><div style='float: right;padding-right:30px;'><p>Press '0' for B</p> </div> </div></div>","null","","","","","","","","","","","","","",""
"3059","","test","audio-keyboard-response","155","379577","0.0-8.0-1.63","5f07363e47bd2b2e4874684d","condA","","resources/audio/wordStim/S3_AI_29_bxa_Step-4.wav","48","","","","","AI","resources/audio/wordStim/S3_AI_29_bxa_Step-4.wav","S3","29","bxa","4","MI","1","0","false"
"null","","fixation","html-keyboard-response","156","380579","0.0-8.0-0.64","5f07363e47bd2b2e4874684d","condA","","<div class=""vertical-center"" style='width:60%;'><p style='font-weight:bold;'>Does the middle word sound more like the first word (A) or the last word (B)?</p> <br> <div class=""container""> <div id=""a-box""> <p class=""title-text"">A</h3></p> </div> <div id=""x-box""> <p class=""title-text"">X<p> </div> <div id=""b-box""> <p class=""title-text"">B</p></div> <br> <div style='float: left;padding-left:30px;'><p>Press '1' for A</p></div><div style='float: right;padding-right:30px;'><p>Press '0' for B</p> </div> </div></div>","null","","","","","","","","","","","","","",""
"2702","","test","audio-keyboard-response","157","383274","0.0-8.0-1.64","5f07363e47bd2b2e4874684d","condA","","resources/audio/wordStim/S3_AU_14_axb_Step-9.wav","48","","","","","AU","resources/audio/wordStim/S3_AU_14_axb_Step-9.wav","S3","14","axb","9","MI","0","0","true"
"null","","fixation","html-keyboard-response","158","384276","0.0-8.0-0.65","5f07363e47bd2b2e4874684d","condA","","<div class=""vertical-center"" style='width:60%;'><p style='font-weight:bold;'>Does the middle word sound more like the first word (A) or the last word (B)?</p> <br> <div class=""container""> <div id=""a-box""> <p class=""title-text"">A</h3></p> </div> <div id=""x-box""> <p class=""title-text"">X<p> </div> <div id=""b-box""> <p class=""title-text"">B</p></div> <br> <div style='float: left;padding-left:30px;'><p>Press '1' for A</p></div><div style='float: right;padding-right:30px;'><p>Press '0' for B</p> </div> </div></div>","null","","","","","","","","","","","","","",""
"3140","","test","audio-keyboard-response","159","387410","0.0-8.0-1.65","5f07363e47bd2b2e4874684d","condA","","resources/audio/wordStim/S3_AI_23_bxa_Step-8.wav","49","","","","","AI","resources/audio/wordStim/S3_AI_23_bxa_Step-8.wav","S3","23","bxa","8","MI","1","1","true"
"null","","fixation","html-keyboard-response","160","388412","0.0-8.0-0.66","5f07363e47bd2b2e4874684d","condA","","<div class=""vertical-center"" style='width:60%;'><p style='font-weight:bold;'>Does the middle word sound more like the first word (A) or the last word (B)?</p> <br> <div class=""container""> <div id=""a-box""> <p class=""title-text"">A</h3></p> </div> <div id=""x-box""> <p class=""title-text"">X<p> </div> <div id=""b-box""> <p class=""title-text"">B</p></div> <br> <div style='float: left;padding-left:30px;'><p>Press '1' for A</p></div><div style='float: right;padding-right:30px;'><p>Press '0' for B</p> </div> </div></div>","null","","","","","","","","","","","","","",""
"2490","","test","audio-keyboard-response","161","390907","0.0-8.0-1.66","5f07363e47bd2b2e4874684d","condA","","resources/audio/wordStim/S9_AU_16_axb_Step-9.wav","48","","","","","AU","resources/audio/wordStim/S9_AU_16_axb_Step-9.wav","S9","16","axb","9","CN","0","0","true"
"null","","fixation","html-keyboard-response","162","391909","0.0-8.0-0.67","5f07363e47bd2b2e4874684d","condA","","<div class=""vertical-center"" style='width:60%;'><p style='font-weight:bold;'>Does the middle word sound more like the first word (A) or the last word (B)?</p> <br> <div class=""container""> <div id=""a-box""> <p class=""title-text"">A</h3></p> </div> <div id=""x-box""> <p class=""title-text"">X<p> </div> <div id=""b-box""> <p class=""title-text"">B</p></div> <br> <div style='float: left;padding-left:30px;'><p>Press '1' for A</p></div><div style='float: right;padding-right:30px;'><p>Press '0' for B</p> </div> </div></div>","null","","","","","","","","","","","","","",""
"2589","","test","audio-keyboard-response","163","394492","0.0-8.0-1.67","5f07363e47bd2b2e4874684d","condA","","resources/audio/wordStim/S3_AI_25_axb_Step-5.wav","48","","","","","AI","resources/audio/wordStim/S3_AI_25_axb_Step-5.wav","S3","25","axb","5","MI","0","0","true"
"null","","fixation","html-keyboard-response","164","395493","0.0-8.0-0.68","5f07363e47bd2b2e4874684d","condA","","<div class=""vertical-center"" style='width:60%;'><p style='font-weight:bold;'>Does the middle word sound more like the first word (A) or the last word (B)?</p> <br> <div class=""container""> <div id=""a-box""> <p class=""title-text"">A</h3></p> </div> <div id=""x-box""> <p class=""title-text"">X<p> </div> <div id=""b-box""> <p class=""title-text"">B</p></div> <br> <div style='float: left;padding-left:30px;'><p>Press '1' for A</p></div><div style='float: right;padding-right:30px;'><p>Press '0' for B</p> </div> </div></div>","null","","","","","","","","","","","","","",""
"2708","","test","audio-keyboard-response","165","398204","0.0-8.0-1.68","5f07363e47bd2b2e4874684d","condA","","resources/audio/wordStim/S3_AU_19_axb_Step-7.wav","48","","","","","AU","resources/audio/wordStim/S3_AU_19_axb_Step-7.wav","S3","19","axb","7","MI","0","0","true"
"null","","fixation","html-keyboard-response","166","399206","0.0-8.0-0.69","5f07363e47bd2b2e4874684d","condA","","<div class=""vertical-center"" style='width:60%;'><p style='font-weight:bold;'>Does the middle word sound more like the first word (A) or the last word (B)?</p> <br> <div class=""container""> <div id=""a-box""> <p class=""title-text"">A</h3></p> </div> <div id=""x-box""> <p class=""title-text"">X<p> </div> <div id=""b-box""> <p class=""title-text"">B</p></div> <br> <div style='float: left;padding-left:30px;'><p>Press '1' for A</p></div><div style='float: right;padding-right:30px;'><p>Press '0' for B</p> </div> </div></div>","null","","","","","","","","","","","","","",""
"3468","","test","audio-keyboard-response","167","402677","0.0-8.0-1.69","5f07363e47bd2b2e4874684d","condA","","resources/audio/wordStim/S3_AI_22_axb_Step-10.wav","49","","","","","AI","resources/audio/wordStim/S3_AI_22_axb_Step-10.wav","S3","22","axb","10","MI","0","1","false"
"null","","fixation","html-keyboard-response","168","403678","0.0-8.0-0.70","5f07363e47bd2b2e4874684d","condA","","<div class=""vertical-center"" style='width:60%;'><p style='font-weight:bold;'>Does the middle word sound more like the first word (A) or the last word (B)?</p> <br> <div class=""container""> <div id=""a-box""> <p class=""title-text"">A</h3></p> </div> <div id=""x-box""> <p class=""title-text"">X<p> </div> <div id=""b-box""> <p class=""title-text"">B</p></div> <br> <div style='float: left;padding-left:30px;'><p>Press '1' for A</p></div><div style='float: right;padding-right:30px;'><p>Press '0' for B</p> </div> </div></div>","null","","","","","","","","","","","","","",""
"3039","","test","audio-keyboard-response","169","406717","0.0-8.0-1.70","5f07363e47bd2b2e4874684d","condA","","resources/audio/wordStim/S9_AI_23_axb_Step-9.wav","48","","","","","AI","resources/audio/wordStim/S9_AI_23_axb_Step-9.wav","S9","23","axb","9","CN","0","0","true"
"null","","fixation","html-keyboard-response","170","407719","0.0-8.0-0.71","5f07363e47bd2b2e4874684d","condA","","<div class=""vertical-center"" style='width:60%;'><p style='font-weight:bold;'>Does the middle word sound more like the first word (A) or the last word (B)?</p> <br> <div class=""container""> <div id=""a-box""> <p class=""title-text"">A</h3></p> </div> <div id=""x-box""> <p class=""title-text"">X<p> </div> <div id=""b-box""> <p class=""title-text"">B</p></div> <br> <div style='float: left;padding-left:30px;'><p>Press '1' for A</p></div><div style='float: right;padding-right:30px;'><p>Press '0' for B</p> </div> </div></div>","null","","","","","","","","","","","","","",""
"2220","","test","audio-keyboard-response","171","409950","0.0-8.0-1.71","5f07363e47bd2b2e4874684d","condA","","resources/audio/wordStim/S3_AI_25_axb_Step-9.wav","48","","","","","AI","resources/audio/wordStim/S3_AI_25_axb_Step-9.wav","S3","25","axb","9","MI","0","0","true"
"null","","fixation","html-keyboard-response","172","410952","0.0-8.0-0.72","5f07363e47bd2b2e4874684d","condA","","<div class=""vertical-center"" style='width:60%;'><p style='font-weight:bold;'>Does the middle word sound more like the first word (A) or the last word (B)?</p> <br> <div class=""container""> <div id=""a-box""> <p class=""title-text"">A</h3></p> </div> <div id=""x-box""> <p class=""title-text"">X<p> </div> <div id=""b-box""> <p class=""title-text"">B</p></div> <br> <div style='float: left;padding-left:30px;'><p>Press '1' for A</p></div><div style='float: right;padding-right:30px;'><p>Press '0' for B</p> </div> </div></div>","null","","","","","","","","","","","","","",""
"3271","","test","audio-keyboard-response","173","414222","0.0-8.0-1.72","5f07363e47bd2b2e4874684d","condA","","resources/audio/wordStim/S3_AU_18_axb_Step-7.wav","48","","","","","AU","resources/audio/wordStim/S3_AU_18_axb_Step-7.wav","S3","18","axb","7","MI","0","0","true"
"null","","fixation","html-keyboard-response","174","415225","0.0-8.0-0.73","5f07363e47bd2b2e4874684d","condA","","<div class=""vertical-center"" style='width:60%;'><p style='font-weight:bold;'>Does the middle word sound more like the first word (A) or the last word (B)?</p> <br> <div class=""container""> <div id=""a-box""> <p class=""title-text"">A</h3></p> </div> <div id=""x-box""> <p class=""title-text"">X<p> </div> <div id=""b-box""> <p class=""title-text"">B</p></div> <br> <div style='float: left;padding-left:30px;'><p>Press '1' for A</p></div><div style='float: right;padding-right:30px;'><p>Press '0' for B</p> </div> </div></div>","null","","","","","","","","","","","","","",""
"3291","","test","audio-keyboard-response","175","418511","0.0-8.0-1.73","5f07363e47bd2b2e4874684d","condA","","resources/audio/wordStim/S9_AI_25_axb_Step-5.wav","49","","","","","AI","resources/audio/wordStim/S9_AI_25_axb_Step-5.wav","S9","25","axb","5","CN","0","1","false"
"null","","fixation","html-keyboard-response","176","419514","0.0-8.0-0.74","5f07363e47bd2b2e4874684d","condA","","<div class=""vertical-center"" style='width:60%;'><p style='font-weight:bold;'>Does the middle word sound more like the first word (A) or the last word (B)?</p> <br> <div class=""container""> <div id=""a-box""> <p class=""title-text"">A</h3></p> </div> <div id=""x-box""> <p class=""title-text"">X<p> </div> <div id=""b-box""> <p class=""title-text"">B</p></div> <br> <div style='float: left;padding-left:30px;'><p>Press '1' for A</p></div><div style='float: right;padding-right:30px;'><p>Press '0' for B</p> </div> </div></div>","null","","","","","","","","","","","","","",""
"3942","","test","audio-keyboard-response","177","423456","0.0-8.0-1.74","5f07363e47bd2b2e4874684d","condA","","resources/audio/wordStim/S9_AU_18_axb_Step-3.wav","49","","","","","AU","resources/audio/wordStim/S9_AU_18_axb_Step-3.wav","S9","18","axb","3","CN","0","1","false"
"null","","fixation","html-keyboard-response","178","424458","0.0-8.0-0.75","5f07363e47bd2b2e4874684d","condA","","<div class=""vertical-center"" style='width:60%;'><p style='font-weight:bold;'>Does the middle word sound more like the first word (A) or the last word (B)?</p> <br> <div class=""container""> <div id=""a-box""> <p class=""title-text"">A</h3></p> </div> <div id=""x-box""> <p class=""title-text"">X<p> </div> <div id=""b-box""> <p class=""title-text"">B</p></div> <br> <div style='float: left;padding-left:30px;'><p>Press '1' for A</p></div><div style='float: right;padding-right:30px;'><p>Press '0' for B</p> </div> </div></div>","null","","","","","","","","","","","","","",""
"3100","","test","audio-keyboard-response","179","427553","0.0-8.0-1.75","5f07363e47bd2b2e4874684d","condA","","resources/audio/wordStim/S3_AU_11_axb_Step-5.wav","49","","","","","AU","resources/audio/wordStim/S3_AU_11_axb_Step-5.wav","S3","11","axb","5","MI","0","1","false"
"null","","fixation","html-keyboard-response","180","428555","0.0-8.0-0.76","5f07363e47bd2b2e4874684d","condA","","<div class=""vertical-center"" style='width:60%;'><p style='font-weight:bold;'>Does the middle word sound more like the first word (A) or the last word (B)?</p> <br> <div class=""container""> <div id=""a-box""> <p class=""title-text"">A</h3></p> </div> <div id=""x-box""> <p class=""title-text"">X<p> </div> <div id=""b-box""> <p class=""title-text"">B</p></div> <br> <div style='float: left;padding-left:30px;'><p>Press '1' for A</p></div><div style='float: right;padding-right:30px;'><p>Press '0' for B</p> </div> </div></div>","null","","","","","","","","","","","","","",""
"2891","","test","audio-keyboard-response","181","431442","0.0-8.0-1.76","5f07363e47bd2b2e4874684d","condA","","resources/audio/wordStim/S3_AU_20_bxa_Step-2.wav","48","","","","","AU","resources/audio/wordStim/S3_AU_20_bxa_Step-2.wav","S3","20","bxa","2","MI","1","0","false"
"null","","fixation","html-keyboard-response","182","432444","0.0-8.0-0.77","5f07363e47bd2b2e4874684d","condA","","<div class=""vertical-center"" style='width:60%;'><p style='font-weight:bold;'>Does the middle word sound more like the first word (A) or the last word (B)?</p> <br> <div class=""container""> <div id=""a-box""> <p class=""title-text"">A</h3></p> </div> <div id=""x-box""> <p class=""title-text"">X<p> </div> <div id=""b-box""> <p class=""title-text"">B</p></div> <br> <div style='float: left;padding-left:30px;'><p>Press '1' for A</p></div><div style='float: right;padding-right:30px;'><p>Press '0' for B</p> </div> </div></div>","null","","","","","","","","","","","","","",""
"3030","","test","audio-keyboard-response","183","435474","0.0-8.0-1.77","5f07363e47bd2b2e4874684d","condA","","resources/audio/wordStim/S3_AU_11_bxa_Step-6.wav","48","","","","","AU","resources/audio/wordStim/S3_AU_11_bxa_Step-6.wav","S3","11","bxa","6","MI","1","0","false"
"null","","fixation","html-keyboard-response","184","436476","0.0-8.0-0.78","5f07363e47bd2b2e4874684d","condA","","<div class=""vertical-center"" style='width:60%;'><p style='font-weight:bold;'>Does the middle word sound more like the first word (A) or the last word (B)?</p> <br> <div class=""container""> <div id=""a-box""> <p class=""title-text"">A</h3></p> </div> <div id=""x-box""> <p class=""title-text"">X<p> </div> <div id=""b-box""> <p class=""title-text"">B</p></div> <br> <div style='float: left;padding-left:30px;'><p>Press '1' for A</p></div><div style='float: right;padding-right:30px;'><p>Press '0' for B</p> </div> </div></div>","null","","","","","","","","","","","","","",""
"3300","","test","audio-keyboard-response","185","439779","0.0-8.0-1.78","5f07363e47bd2b2e4874684d","condA","","resources/audio/wordStim/S9_AI_24_bxa_Step-4.wav","48","","","","","AI","resources/audio/wordStim/S9_AI_24_bxa_Step-4.wav","S9","24","bxa","4","CN","1","0","false"
"null","","fixation","html-keyboard-response","186","440781","0.0-8.0-0.79","5f07363e47bd2b2e4874684d","condA","","<div class=""vertical-center"" style='width:60%;'><p style='font-weight:bold;'>Does the middle word sound more like the first word (A) or the last word (B)?</p> <br> <div class=""container""> <div id=""a-box""> <p class=""title-text"">A</h3></p> </div> <div id=""x-box""> <p class=""title-text"">X<p> </div> <div id=""b-box""> <p class=""title-text"">B</p></div> <br> <div style='float: left;padding-left:30px;'><p>Press '1' for A</p></div><div style='float: right;padding-right:30px;'><p>Press '0' for B</p> </div> </div></div>","null","","","","","","","","","","","","","",""
"3379","","test","audio-keyboard-response","187","444164","0.0-8.0-1.79","5f07363e47bd2b2e4874684d","condA","","resources/audio/wordStim/S9_AI_22_bxa_Step-6.wav","49","","","","","AI","resources/audio/wordStim/S9_AI_22_bxa_Step-6.wav","S9","22","bxa","6","CN","1","1","true"
"null","","fixation","html-keyboard-response","188","445165","0.0-8.0-0.80","5f07363e47bd2b2e4874684d","condA","","<div class=""vertical-center"" style='width:60%;'><p style='font-weight:bold;'>Does the middle word sound more like the first word (A) or the last word (B)?</p> <br> <div class=""container""> <div id=""a-box""> <p class=""title-text"">A</h3></p> </div> <div id=""x-box""> <p class=""title-text"">X<p> </div> <div id=""b-box""> <p class=""title-text"">B</p></div> <br> <div style='float: left;padding-left:30px;'><p>Press '1' for A</p></div><div style='float: right;padding-right:30px;'><p>Press '0' for B</p> </div> </div></div>","null","","","","","","","","","","","","","",""
"2540","","test","audio-keyboard-response","189","447708","0.0-8.0-1.80","5f07363e47bd2b2e4874684d","condA","","resources/audio/wordStim/S3_AI_21_bxa_Step-4.wav","48","","","","","AI","resources/audio/wordStim/S3_AI_21_bxa_Step-4.wav","S3","21","bxa","4","MI","1","0","false"
"795.4200000094716","","break","html-keyboard-response","190","449004","0.0-8.0-2.80-0.80","5f07363e47bd2b2e4874684d","condA","","<div class=""vertical-center""><p>Feel free to take a break!</p><i>When you're ready to continue, press SPACE to begin the next trial.</i></p></div>","32","","","","","","","","","","","","","",""
"null","","fixation","html-keyboard-response","191","449505","0.0-8.0-0.81","5f07363e47bd2b2e4874684d","condA","","<div class=""vertical-center"" style='width:60%;'><p style='font-weight:bold;'>Does the middle word sound more like the first word (A) or the last word (B)?</p> <br> <div class=""container""> <div id=""a-box""> <p class=""title-text"">A</h3></p> </div> <div id=""x-box""> <p class=""title-text"">X<p> </div> <div id=""b-box""> <p class=""title-text"">B</p></div> <br> <div style='float: left;padding-left:30px;'><p>Press '1' for A</p></div><div style='float: right;padding-right:30px;'><p>Press '0' for B</p> </div> </div></div>","null","","","","","","","","","","","","","",""
"3129","","test","audio-keyboard-response","192","452637","0.0-8.0-1.81","5f07363e47bd2b2e4874684d","condA","","resources/audio/wordStim/S3_AU_18_bxa_Step-4.wav","48","","","","","AU","resources/audio/wordStim/S3_AU_18_bxa_Step-4.wav","S3","18","bxa","4","MI","1","0","false"
"null","","fixation","html-keyboard-response","193","453639","0.0-8.0-0.82","5f07363e47bd2b2e4874684d","condA","","<div class=""vertical-center"" style='width:60%;'><p style='font-weight:bold;'>Does the middle word sound more like the first word (A) or the last word (B)?</p> <br> <div class=""container""> <div id=""a-box""> <p class=""title-text"">A</h3></p> </div> <div id=""x-box""> <p class=""title-text"">X<p> </div> <div id=""b-box""> <p class=""title-text"">B</p></div> <br> <div style='float: left;padding-left:30px;'><p>Press '1' for A</p></div><div style='float: right;padding-right:30px;'><p>Press '0' for B</p> </div> </div></div>","null","","","","","","","","","","","","","",""
"2990","","test","audio-keyboard-response","194","456629","0.0-8.0-1.82","5f07363e47bd2b2e4874684d","condA","","resources/audio/wordStim/S9_AU_11_axb_Step-3.wav","48","","","","","AU","resources/audio/wordStim/S9_AU_11_axb_Step-3.wav","S9","11","axb","3","CN","0","0","true"
"null","","fixation","html-keyboard-response","195","457630","0.0-8.0-0.83","5f07363e47bd2b2e4874684d","condA","","<div class=""vertical-center"" style='width:60%;'><p style='font-weight:bold;'>Does the middle word sound more like the first word (A) or the last word (B)?</p> <br> <div class=""container""> <div id=""a-box""> <p class=""title-text"">A</h3></p> </div> <div id=""x-box""> <p class=""title-text"">X<p> </div> <div id=""b-box""> <p class=""title-text"">B</p></div> <br> <div style='float: left;padding-left:30px;'><p>Press '1' for A</p></div><div style='float: right;padding-right:30px;'><p>Press '0' for B</p> </div> </div></div>","null","","","","","","","","","","","","","",""
"3190","","test","audio-keyboard-response","196","460830","0.0-8.0-1.83","5f07363e47bd2b2e4874684d","condA","","resources/audio/wordStim/S9_AI_30_axb_Step-7.wav","49","","","","","AI","resources/audio/wordStim/S9_AI_30_axb_Step-7.wav","S9","30","axb","7","CN","0","1","false"
"null","","fixation","html-keyboard-response","197","461833","0.0-8.0-0.84","5f07363e47bd2b2e4874684d","condA","","<div class=""vertical-center"" style='width:60%;'><p style='font-weight:bold;'>Does the middle word sound more like the first word (A) or the last word (B)?</p> <br> <div class=""container""> <div id=""a-box""> <p class=""title-text"">A</h3></p> </div> <div id=""x-box""> <p class=""title-text"">X<p> </div> <div id=""b-box""> <p class=""title-text"">B</p></div> <br> <div style='float: left;padding-left:30px;'><p>Press '1' for A</p></div><div style='float: right;padding-right:30px;'><p>Press '0' for B</p> </div> </div></div>","null","","","","","","","","","","","","","",""
"2871","","test","audio-keyboard-response","198","464703","0.0-8.0-1.84","5f07363e47bd2b2e4874684d","condA","","resources/audio/wordStim/S9_AI_29_axb_Step-9.wav","48","","","","","AI","resources/audio/wordStim/S9_AI_29_axb_Step-9.wav","S9","29","axb","9","CN","0","0","true"
"null","","fixation","html-keyboard-response","199","465705","0.0-8.0-0.85","5f07363e47bd2b2e4874684d","condA","","<div class=""vertical-center"" style='width:60%;'><p style='font-weight:bold;'>Does the middle word sound more like the first word (A) or the last word (B)?</p> <br> <div class=""container""> <div id=""a-box""> <p class=""title-text"">A</h3></p> </div> <div id=""x-box""> <p class=""title-text"">X<p> </div> <div id=""b-box""> <p class=""title-text"">B</p></div> <br> <div style='float: left;padding-left:30px;'><p>Press '1' for A</p></div><div style='float: right;padding-right:30px;'><p>Press '0' for B</p> </div> </div></div>","null","","","","","","","","","","","","","",""
"3120","","test","audio-keyboard-response","200","468823","0.0-8.0-1.85","5f07363e47bd2b2e4874684d","condA","","resources/audio/wordStim/S9_AI_24_bxa_Step-2.wav","49","","","","","AI","resources/audio/wordStim/S9_AI_24_bxa_Step-2.wav","S9","24","bxa","2","CN","1","1","true"
"null","","fixation","html-keyboard-response","201","469824","0.0-8.0-0.86","5f07363e47bd2b2e4874684d","condA","","<div class=""vertical-center"" style='width:60%;'><p style='font-weight:bold;'>Does the middle word sound more like the first word (A) or the last word (B)?</p> <br> <div class=""container""> <div id=""a-box""> <p class=""title-text"">A</h3></p> </div> <div id=""x-box""> <p class=""title-text"">X<p> </div> <div id=""b-box""> <p class=""title-text"">B</p></div> <br> <div style='float: left;padding-left:30px;'><p>Press '1' for A</p></div><div style='float: right;padding-right:30px;'><p>Press '0' for B</p> </div> </div></div>","null","","","","","","","","","","","","","",""
"2949","","test","audio-keyboard-response","202","472776","0.0-8.0-1.86","5f07363e47bd2b2e4874684d","condA","","resources/audio/wordStim/S3_AI_22_bxa_Step-2.wav","48","","","","","AI","resources/audio/wordStim/S3_AI_22_bxa_Step-2.wav","S3","22","bxa","2","MI","1","0","false"
"null","","fixation","html-keyboard-response","203","473779","0.0-8.0-0.87","5f07363e47bd2b2e4874684d","condA","","<div class=""vertical-center"" style='width:60%;'><p style='font-weight:bold;'>Does the middle word sound more like the first word (A) or the last word (B)?</p> <br> <div class=""container""> <div id=""a-box""> <p class=""title-text"">A</h3></p> </div> <div id=""x-box""> <p class=""title-text"">X<p> </div> <div id=""b-box""> <p class=""title-text"">B</p></div> <br> <div style='float: left;padding-left:30px;'><p>Press '1' for A</p></div><div style='float: right;padding-right:30px;'><p>Press '0' for B</p> </div> </div></div>","null","","","","","","","","","","","","","",""
"3068","","test","audio-keyboard-response","204","476849","0.0-8.0-1.87","5f07363e47bd2b2e4874684d","condA","","resources/audio/wordStim/S3_AU_11_axb_Step-3.wav","49","","","","","AU","resources/audio/wordStim/S3_AU_11_axb_Step-3.wav","S3","11","axb","3","MI","0","1","false"
"null","","fixation","html-keyboard-response","205","477850","0.0-8.0-0.88","5f07363e47bd2b2e4874684d","condA","","<div class=""vertical-center"" style='width:60%;'><p style='font-weight:bold;'>Does the middle word sound more like the first word (A) or the last word (B)?</p> <br> <div class=""container""> <div id=""a-box""> <p class=""title-text"">A</h3></p> </div> <div id=""x-box""> <p class=""title-text"">X<p> </div> <div id=""b-box""> <p class=""title-text"">B</p></div> <br> <div style='float: left;padding-left:30px;'><p>Press '1' for A</p></div><div style='float: right;padding-right:30px;'><p>Press '0' for B</p> </div> </div></div>","null","","","","","","","","","","","","","",""
"3042","","test","audio-keyboard-response","206","480897","0.0-8.0-1.88","5f07363e47bd2b2e4874684d","condA","","resources/audio/wordStim/S9_AI_24_bxa_Step-6.wav","49","","","","","AI","resources/audio/wordStim/S9_AI_24_bxa_Step-6.wav","S9","24","bxa","6","CN","1","1","true"
"null","","fixation","html-keyboard-response","207","481900","0.0-8.0-0.89","5f07363e47bd2b2e4874684d","condA","","<div class=""vertical-center"" style='width:60%;'><p style='font-weight:bold;'>Does the middle word sound more like the first word (A) or the last word (B)?</p> <br> <div class=""container""> <div id=""a-box""> <p class=""title-text"">A</h3></p> </div> <div id=""x-box""> <p class=""title-text"">X<p> </div> <div id=""b-box""> <p class=""title-text"">B</p></div> <br> <div style='float: left;padding-left:30px;'><p>Press '1' for A</p></div><div style='float: right;padding-right:30px;'><p>Press '0' for B</p> </div> </div></div>","null","","","","","","","","","","","","","",""
"2850","","test","audio-keyboard-response","208","484754","0.0-8.0-1.89","5f07363e47bd2b2e4874684d","condA","","resources/audio/wordStim/S9_AI_24_axb_Step-7.wav","49","","","","","AI","resources/audio/wordStim/S9_AI_24_axb_Step-7.wav","S9","24","axb","7","CN","0","1","false"
"null","","fixation","html-keyboard-response","209","485756","0.0-8.0-0.90","5f07363e47bd2b2e4874684d","condA","","<div class=""vertical-center"" style='width:60%;'><p style='font-weight:bold;'>Does the middle word sound more like the first word (A) or the last word (B)?</p> <br> <div class=""container""> <div id=""a-box""> <p class=""title-text"">A</h3></p> </div> <div id=""x-box""> <p class=""title-text"">X<p> </div> <div id=""b-box""> <p class=""title-text"">B</p></div> <br> <div style='float: left;padding-left:30px;'><p>Press '1' for A</p></div><div style='float: right;padding-right:30px;'><p>Press '0' for B</p> </div> </div></div>","null","","","","","","","","","","","","","",""
"2699","","test","audio-keyboard-response","210","488458","0.0-8.0-1.90","5f07363e47bd2b2e4874684d","condA","","resources/audio/wordStim/S3_AI_28_axb_Step-9.wav","48","","","","","AI","resources/audio/wordStim/S3_AI_28_axb_Step-9.wav","S3","28","axb","9","MI","0","0","true"
"null","","fixation","html-keyboard-response","211","489460","0.0-8.0-0.91","5f07363e47bd2b2e4874684d","condA","","<div class=""vertical-center"" style='width:60%;'><p style='font-weight:bold;'>Does the middle word sound more like the first word (A) or the last word (B)?</p> <br> <div class=""container""> <div id=""a-box""> <p class=""title-text"">A</h3></p> </div> <div id=""x-box""> <p class=""title-text"">X<p> </div> <div id=""b-box""> <p class=""title-text"">B</p></div> <br> <div style='float: left;padding-left:30px;'><p>Press '1' for A</p></div><div style='float: right;padding-right:30px;'><p>Press '0' for B</p> </div> </div></div>","null","","","","","","","","","","","","","",""
"2830","","test","audio-keyboard-response","212","492291","0.0-8.0-1.91","5f07363e47bd2b2e4874684d","condA","","resources/audio/wordStim/S9_AU_19_axb_Step-10.wav","48","","","","","AU","resources/audio/wordStim/S9_AU_19_axb_Step-10.wav","S9","19","axb","10","CN","0","0","true"
"null","","fixation","html-keyboard-response","213","493293","0.0-8.0-0.92","5f07363e47bd2b2e4874684d","condA","","<div class=""vertical-center"" style='width:60%;'><p style='font-weight:bold;'>Does the middle word sound more like the first word (A) or the last word (B)?</p> <br> <div class=""container""> <div id=""a-box""> <p class=""title-text"">A</h3></p> </div> <div id=""x-box""> <p class=""title-text"">X<p> </div> <div id=""b-box""> <p class=""title-text"">B</p></div> <br> <div style='float: left;padding-left:30px;'><p>Press '1' for A</p></div><div style='float: right;padding-right:30px;'><p>Press '0' for B</p> </div> </div></div>","null","","","","","","","","","","","","","",""
"2670","","test","audio-keyboard-response","214","495963","0.0-8.0-1.92","5f07363e47bd2b2e4874684d","condA","","resources/audio/wordStim/S3_AI_30_axb_Step-10.wav","48","","","","","AI","resources/audio/wordStim/S3_AI_30_axb_Step-10.wav","S3","30","axb","10","MI","0","0","true"
