"rt","url","trial_role","trial_type","trial_index","time_elapsed","internal_node_id","participantId","condition","view_history","stimulus","key_press","button_pressed","correct_answer","correct_response","success","vowel","wordStim","speaker","sentNum","order","step","speakerIdentity","raised_answer","key_response","raised_response"
"13918.739999999958","micr.con.consent.html","consent","external-html","0","14007","0.0-0.0","5f11f98efbaf2b0ef855ec6b","condA","","","","","","","","","","","","","","","","",""
"15220.024999999965","","instructions","instructions","1","29229","0.0-1.0","5f11f98efbaf2b0ef855ec6b","condA","[{""page_index"":0,""viewing_time"":6036.605000000007},{""page_index"":1,""viewing_time"":4925.964999999906},{""page_index"":2,""viewing_time"":4256.360000000088}]","","","","","","","","","","","","","","","",""
"null","","fixation","html-keyboard-response","2","29731","0.0-2.0-0.0","5f11f98efbaf2b0ef855ec6b","condA","","<div class=""vertical-center"" style=""font-size:60px;"">+</div>","null","","","","","","","","","","","","","",""
"4696.280000000006","","tonetest","audio-button-response","3","34431","0.0-2.0-1.0","5f11f98efbaf2b0ef855ec6b","condA","","../../src/audio/toneTest_3.wav","","2","2","true","","","","","","","","","","",""
"null","","fixation","html-keyboard-response","4","34934","0.0-2.0-0.1","5f11f98efbaf2b0ef855ec6b","condA","","<div class=""vertical-center"" style=""font-size:60px;"">+</div>","null","","","","","","","","","","","","","",""
"4453.669999999991","","tonetest","audio-button-response","5","39389","0.0-2.0-1.1","5f11f98efbaf2b0ef855ec6b","condA","","../../src/audio/toneTest_2.wav","","2","1","false","","","","","","","","","","",""
"null","","fixation","html-keyboard-response","6","39895","0.0-2.0-0.2","5f11f98efbaf2b0ef855ec6b","condA","","<div class=""vertical-center"" style=""font-size:60px;"">+</div>","null","","","","","","","","","","","","","",""
"7693.185000000085","","tonetest","audio-button-response","7","47590","0.0-2.0-1.2","5f11f98efbaf2b0ef855ec6b","condA","","../../src/audio/toneTest_3.wav","","0","2","false","","","","","","","","","","",""
"null","","fixation","html-keyboard-response","8","48095","0.0-2.0-0.3","5f11f98efbaf2b0ef855ec6b","condA","","<div class=""vertical-center"" style=""font-size:60px;"">+</div>","null","","","","","","","","","","","","","",""
"5128.234999999906","","tonetest","audio-button-response","9","53225","0.0-2.0-1.3","5f11f98efbaf2b0ef855ec6b","condA","","../../src/audio/toneTest_5.wav","","2","0","false","","","","","","","","","","",""
"null","","fixation","html-keyboard-response","10","53728","0.0-2.0-0.4","5f11f98efbaf2b0ef855ec6b","condA","","<div class=""vertical-center"" style=""font-size:60px;"">+</div>","null","","","","","","","","","","","","","",""
"4769.5650000000605","","tonetest","audio-button-response","11","58499","0.0-2.0-1.4","5f11f98efbaf2b0ef855ec6b","condA","","../../src/audio/toneTest_3.wav","","2","2","true","","","","","","","","","","",""
"null","","fixation","html-keyboard-response","12","59005","0.0-2.0-0.5","5f11f98efbaf2b0ef855ec6b","condA","","<div class=""vertical-center"" style=""font-size:60px;"">+</div>","null","","","","","","","","","","","","","",""
"4666.290000000008","","tonetest","audio-button-response","13","63673","0.0-2.0-1.5","5f11f98efbaf2b0ef855ec6b","condA","","../../src/audio/toneTest_4.wav","","1","1","true","","","","","","","","","","",""
"5265.8599999999715","","instructions","html-keyboard-response","14","68941","0.0-3.0","5f11f98efbaf2b0ef855ec6b","condA","","<div class=""vertical-center""><p><b>Your score was 3/6.</b></p><p>If you scored below 6, please ensure that you are wearing headphones and in a quiet location free of distractions.</p><p><i>To continue to the main experiment, press SPACE.</i></p></div>","32","","","","","","","","","","","","","",""
"","","","fullscreen","15","72339","0.0-4.0","5f11f98efbaf2b0ef855ec6b","condA","","","","","","","true","","","","","","","","","",""
"2722.6349999999657","","instructions","instructions","16","75062","0.0-5.0","5f11f98efbaf2b0ef855ec6b","condA","[{""page_index"":0,""viewing_time"":2722.3900000000285}]","","","","","","","","","","","","","","","",""
"null","","fixation","html-keyboard-response","17","75566","0.0-6.0-0.0","5f11f98efbaf2b0ef855ec6b","condA","","<div class=""vertical-center"" style='width:60%;'><p style='font-weight:bold;'>Does the middle word sound more like the first word (A) or the last word (B)?</p> <br> <div class=""container""> <div id=""a-box""> <p class=""title-text"">A</h3></p> </div> <div id=""x-box""> <p class=""title-text"">X<p> </div> <div id=""b-box""> <p class=""title-text"">B</p></div> <br> <div style='float: left;padding-left:30px;'><p>Press '1' for A</p></div><div style='float: right;padding-right:30px;'><p>Press '0' for B</p> </div> </div></div>","null","","","","","","","","","","","","","",""
"24834","","practice","audio-keyboard-response","18","100400","0.0-6.0-1.0","5f11f98efbaf2b0ef855ec6b","condA","","resources/audio/practiceStim/S1_AU_14_bxa_Step-6.wav","49","","","","","","","","","","","","","",""
"null","","fixation","html-keyboard-response","19","101403","0.0-6.0-0.1","5f11f98efbaf2b0ef855ec6b","condA","","<div class=""vertical-center"" style='width:60%;'><p style='font-weight:bold;'>Does the middle word sound more like the first word (A) or the last word (B)?</p> <br> <div class=""container""> <div id=""a-box""> <p class=""title-text"">A</h3></p> </div> <div id=""x-box""> <p class=""title-text"">X<p> </div> <div id=""b-box""> <p class=""title-text"">B</p></div> <br> <div style='float: left;padding-left:30px;'><p>Press '1' for A</p></div><div style='float: right;padding-right:30px;'><p>Press '0' for B</p> </div> </div></div>","null","","","","","","","","","","","","","",""
"7303","","practice","audio-keyboard-response","20","108708","0.0-6.0-1.1","5f11f98efbaf2b0ef855ec6b","condA","","resources/audio/practiceStim/S1_AI_21_bxa_Step-6.wav","49","","","","","","","","","","","","","",""
"null","","fixation","html-keyboard-response","21","109713","0.0-6.0-0.2","5f11f98efbaf2b0ef855ec6b","condA","","<div class=""vertical-center"" style='width:60%;'><p style='font-weight:bold;'>Does the middle word sound more like the first word (A) or the last word (B)?</p> <br> <div class=""container""> <div id=""a-box""> <p class=""title-text"">A</h3></p> </div> <div id=""x-box""> <p class=""title-text"">X<p> </div> <div id=""b-box""> <p class=""title-text"">B</p></div> <br> <div style='float: left;padding-left:30px;'><p>Press '1' for A</p></div><div style='float: right;padding-right:30px;'><p>Press '0' for B</p> </div> </div></div>","null","","","","","","","","","","","","","",""
"3280","","practice","audio-keyboard-response","22","112993","0.0-6.0-1.2","5f11f98efbaf2b0ef855ec6b","condA","","resources/audio/practiceStim/S1_AI_21_axb_Step-6.wav","48","","","","","","","","","","","","","",""
"null","","fixation","html-keyboard-response","23","113998","0.0-6.0-0.3","5f11f98efbaf2b0ef855ec6b","condA","","<div class=""vertical-center"" style='width:60%;'><p style='font-weight:bold;'>Does the middle word sound more like the first word (A) or the last word (B)?</p> <br> <div class=""container""> <div id=""a-box""> <p class=""title-text"">A</h3></p> </div> <div id=""x-box""> <p class=""title-text"">X<p> </div> <div id=""b-box""> <p class=""title-text"">B</p></div> <br> <div style='float: left;padding-left:30px;'><p>Press '1' for A</p></div><div style='float: right;padding-right:30px;'><p>Press '0' for B</p> </div> </div></div>","null","","","","","","","","","","","","","",""
"3454","","practice","audio-keyboard-response","24","117457","0.0-6.0-1.3","5f11f98efbaf2b0ef855ec6b","condA","","resources/audio/practiceStim/S1_AU_14_axb_Step-6.wav","48","","","","","","","","","","","","","",""
"2220.9450000000215","","instructions","instructions","25","120180","0.0-7.0","5f11f98efbaf2b0ef855ec6b","condA","[{""page_index"":0,""viewing_time"":2220.7650000000285}]","","","","","","","","","","","","","","","",""
"null","","fixation","html-keyboard-response","26","120681","0.0-8.0-0.0","5f11f98efbaf2b0ef855ec6b","condA","","<div class=""vertical-center"" style='width:60%;'><p style='font-weight:bold;'>Does the middle word sound more like the first word (A) or the last word (B)?</p> <br> <div class=""container""> <div id=""a-box""> <p class=""title-text"">A</h3></p> </div> <div id=""x-box""> <p class=""title-text"">X<p> </div> <div id=""b-box""> <p class=""title-text"">B</p></div> <br> <div style='float: left;padding-left:30px;'><p>Press '1' for A</p></div><div style='float: right;padding-right:30px;'><p>Press '0' for B</p> </div> </div></div>","null","","","","","","","","","","","","","",""
"4069","","test","audio-keyboard-response","27","124751","0.0-8.0-1.0","5f11f98efbaf2b0ef855ec6b","condA","","resources/audio/wordStim/S3_AU_18_axb_Step-3.wav","49","","","","","AU","resources/audio/wordStim/S3_AU_18_axb_Step-3.wav","S3","18","axb","3","MI","0","1","false"
"null","","fixation","html-keyboard-response","28","125756","0.0-8.0-0.1","5f11f98efbaf2b0ef855ec6b","condA","","<div class=""vertical-center"" style='width:60%;'><p style='font-weight:bold;'>Does the middle word sound more like the first word (A) or the last word (B)?</p> <br> <div class=""container""> <div id=""a-box""> <p class=""title-text"">A</h3></p> </div> <div id=""x-box""> <p class=""title-text"">X<p> </div> <div id=""b-box""> <p class=""title-text"">B</p></div> <br> <div style='float: left;padding-left:30px;'><p>Press '1' for A</p></div><div style='float: right;padding-right:30px;'><p>Press '0' for B</p> </div> </div></div>","null","","","","","","","","","","","","","",""
"5108","","test","audio-keyboard-response","29","130865","0.0-8.0-1.1","5f11f98efbaf2b0ef855ec6b","condA","","resources/audio/wordStim/S3_AU_20_bxa_Step-4.wav","48","","","","","AU","resources/audio/wordStim/S3_AU_20_bxa_Step-4.wav","S3","20","bxa","4","MI","1","0","false"
"null","","fixation","html-keyboard-response","30","131868","0.0-8.0-0.2","5f11f98efbaf2b0ef855ec6b","condA","","<div class=""vertical-center"" style='width:60%;'><p style='font-weight:bold;'>Does the middle word sound more like the first word (A) or the last word (B)?</p> <br> <div class=""container""> <div id=""a-box""> <p class=""title-text"">A</h3></p> </div> <div id=""x-box""> <p class=""title-text"">X<p> </div> <div id=""b-box""> <p class=""title-text"">B</p></div> <br> <div style='float: left;padding-left:30px;'><p>Press '1' for A</p></div><div style='float: right;padding-right:30px;'><p>Press '0' for B</p> </div> </div></div>","null","","","","","","","","","","","","","",""
"3721","","test","audio-keyboard-response","31","135592","0.0-8.0-1.2","5f11f98efbaf2b0ef855ec6b","condA","","resources/audio/wordStim/S9_AU_11_axb_Step-9.wav","49","","","","","AU","resources/audio/wordStim/S9_AU_11_axb_Step-9.wav","S9","11","axb","9","CN","0","1","false"
"null","","fixation","html-keyboard-response","32","136597","0.0-8.0-0.3","5f11f98efbaf2b0ef855ec6b","condA","","<div class=""vertical-center"" style='width:60%;'><p style='font-weight:bold;'>Does the middle word sound more like the first word (A) or the last word (B)?</p> <br> <div class=""container""> <div id=""a-box""> <p class=""title-text"">A</h3></p> </div> <div id=""x-box""> <p class=""title-text"">X<p> </div> <div id=""b-box""> <p class=""title-text"">B</p></div> <br> <div style='float: left;padding-left:30px;'><p>Press '1' for A</p></div><div style='float: right;padding-right:30px;'><p>Press '0' for B</p> </div> </div></div>","null","","","","","","","","","","","","","",""
"3233","","test","audio-keyboard-response","33","139836","0.0-8.0-1.3","5f11f98efbaf2b0ef855ec6b","condA","","resources/audio/wordStim/S9_AU_18_bxa_Step-4.wav","49","","","","","AU","resources/audio/wordStim/S9_AU_18_bxa_Step-4.wav","S9","18","bxa","4","CN","1","1","true"
"null","","fixation","html-keyboard-response","34","140838","0.0-8.0-0.4","5f11f98efbaf2b0ef855ec6b","condA","","<div class=""vertical-center"" style='width:60%;'><p style='font-weight:bold;'>Does the middle word sound more like the first word (A) or the last word (B)?</p> <br> <div class=""container""> <div id=""a-box""> <p class=""title-text"">A</h3></p> </div> <div id=""x-box""> <p class=""title-text"">X<p> </div> <div id=""b-box""> <p class=""title-text"">B</p></div> <br> <div style='float: left;padding-left:30px;'><p>Press '1' for A</p></div><div style='float: right;padding-right:30px;'><p>Press '0' for B</p> </div> </div></div>","null","","","","","","","","","","","","","",""
"3651","","test","audio-keyboard-response","35","144486","0.0-8.0-1.4","5f11f98efbaf2b0ef855ec6b","condA","","resources/audio/wordStim/S3_AU_20_bxa_Step-2.wav","49","","","","","AU","resources/audio/wordStim/S3_AU_20_bxa_Step-2.wav","S3","20","bxa","2","MI","1","1","true"
"null","","fixation","html-keyboard-response","36","145491","0.0-8.0-0.5","5f11f98efbaf2b0ef855ec6b","condA","","<div class=""vertical-center"" style='width:60%;'><p style='font-weight:bold;'>Does the middle word sound more like the first word (A) or the last word (B)?</p> <br> <div class=""container""> <div id=""a-box""> <p class=""title-text"">A</h3></p> </div> <div id=""x-box""> <p class=""title-text"">X<p> </div> <div id=""b-box""> <p class=""title-text"">B</p></div> <br> <div style='float: left;padding-left:30px;'><p>Press '1' for A</p></div><div style='float: right;padding-right:30px;'><p>Press '0' for B</p> </div> </div></div>","null","","","","","","","","","","","","","",""
"3918","","test","audio-keyboard-response","37","149411","0.0-8.0-1.5","5f11f98efbaf2b0ef855ec6b","condA","","resources/audio/wordStim/S9_AI_25_axb_Step-9.wav","48","","","","","AI","resources/audio/wordStim/S9_AI_25_axb_Step-9.wav","S9","25","axb","9","CN","0","0","true"
"null","","fixation","html-keyboard-response","38","150416","0.0-8.0-0.6","5f11f98efbaf2b0ef855ec6b","condA","","<div class=""vertical-center"" style='width:60%;'><p style='font-weight:bold;'>Does the middle word sound more like the first word (A) or the last word (B)?</p> <br> <div class=""container""> <div id=""a-box""> <p class=""title-text"">A</h3></p> </div> <div id=""x-box""> <p class=""title-text"">X<p> </div> <div id=""b-box""> <p class=""title-text"">B</p></div> <br> <div style='float: left;padding-left:30px;'><p>Press '1' for A</p></div><div style='float: right;padding-right:30px;'><p>Press '0' for B</p> </div> </div></div>","null","","","","","","","","","","","","","",""
"3698","","test","audio-keyboard-response","39","154113","0.0-8.0-1.6","5f11f98efbaf2b0ef855ec6b","condA","","resources/audio/wordStim/S3_AI_22_bxa_Step-6.wav","49","","","","","AI","resources/audio/wordStim/S3_AI_22_bxa_Step-6.wav","S3","22","bxa","6","MI","1","1","true"
"null","","fixation","html-keyboard-response","40","155117","0.0-8.0-0.7","5f11f98efbaf2b0ef855ec6b","condA","","<div class=""vertical-center"" style='width:60%;'><p style='font-weight:bold;'>Does the middle word sound more like the first word (A) or the last word (B)?</p> <br> <div class=""container""> <div id=""a-box""> <p class=""title-text"">A</h3></p> </div> <div id=""x-box""> <p class=""title-text"">X<p> </div> <div id=""b-box""> <p class=""title-text"">B</p></div> <br> <div style='float: left;padding-left:30px;'><p>Press '1' for A</p></div><div style='float: right;padding-right:30px;'><p>Press '0' for B</p> </div> </div></div>","null","","","","","","","","","","","","","",""
"3605","","test","audio-keyboard-response","41","158723","0.0-8.0-1.7","5f11f98efbaf2b0ef855ec6b","condA","","resources/audio/wordStim/S3_AI_30_bxa_Step-6.wav","49","","","","","AI","resources/audio/wordStim/S3_AI_30_bxa_Step-6.wav","S3","30","bxa","6","MI","1","1","true"
"null","","fixation","html-keyboard-response","42","159729","0.0-8.0-0.8","5f11f98efbaf2b0ef855ec6b","condA","","<div class=""vertical-center"" style='width:60%;'><p style='font-weight:bold;'>Does the middle word sound more like the first word (A) or the last word (B)?</p> <br> <div class=""container""> <div id=""a-box""> <p class=""title-text"">A</h3></p> </div> <div id=""x-box""> <p class=""title-text"">X<p> </div> <div id=""b-box""> <p class=""title-text"">B</p></div> <br> <div style='float: left;padding-left:30px;'><p>Press '1' for A</p></div><div style='float: right;padding-right:30px;'><p>Press '0' for B</p> </div> </div></div>","null","","","","","","","","","","","","","",""
"2920","","test","audio-keyboard-response","43","162651","0.0-8.0-1.8","5f11f98efbaf2b0ef855ec6b","condA","","resources/audio/wordStim/S3_AI_25_axb_Step-9.wav","49","","","","","AI","resources/audio/wordStim/S3_AI_25_axb_Step-9.wav","S3","25","axb","9","MI","0","1","false"
"null","","fixation","html-keyboard-response","44","163654","0.0-8.0-0.9","5f11f98efbaf2b0ef855ec6b","condA","","<div class=""vertical-center"" style='width:60%;'><p style='font-weight:bold;'>Does the middle word sound more like the first word (A) or the last word (B)?</p> <br> <div class=""container""> <div id=""a-box""> <p class=""title-text"">A</h3></p> </div> <div id=""x-box""> <p class=""title-text"">X<p> </div> <div id=""b-box""> <p class=""title-text"">B</p></div> <br> <div style='float: left;padding-left:30px;'><p>Press '1' for A</p></div><div style='float: right;padding-right:30px;'><p>Press '0' for B</p> </div> </div></div>","null","","","","","","","","","","","","","",""
"4598","","test","audio-keyboard-response","45","168257","0.0-8.0-1.9","5f11f98efbaf2b0ef855ec6b","condA","","resources/audio/wordStim/S3_AU_17_axb_Step-7.wav","48","","","","","AU","resources/audio/wordStim/S3_AU_17_axb_Step-7.wav","S3","17","axb","7","MI","0","0","true"
"null","","fixation","html-keyboard-response","46","169261","0.0-8.0-0.10","5f11f98efbaf2b0ef855ec6b","condA","","<div class=""vertical-center"" style='width:60%;'><p style='font-weight:bold;'>Does the middle word sound more like the first word (A) or the last word (B)?</p> <br> <div class=""container""> <div id=""a-box""> <p class=""title-text"">A</h3></p> </div> <div id=""x-box""> <p class=""title-text"">X<p> </div> <div id=""b-box""> <p class=""title-text"">B</p></div> <br> <div style='float: left;padding-left:30px;'><p>Press '1' for A</p></div><div style='float: right;padding-right:30px;'><p>Press '0' for B</p> </div> </div></div>","null","","","","","","","","","","","","","",""
"5108","","test","audio-keyboard-response","47","174371","0.0-8.0-1.10","5f11f98efbaf2b0ef855ec6b","condA","","resources/audio/wordStim/S9_AI_22_axb_Step-3.wav","49","","","","","AI","resources/audio/wordStim/S9_AI_22_axb_Step-3.wav","S9","22","axb","3","CN","0","1","false"
"null","","fixation","html-keyboard-response","48","175375","0.0-8.0-0.11","5f11f98efbaf2b0ef855ec6b","condA","","<div class=""vertical-center"" style='width:60%;'><p style='font-weight:bold;'>Does the middle word sound more like the first word (A) or the last word (B)?</p> <br> <div class=""container""> <div id=""a-box""> <p class=""title-text"">A</h3></p> </div> <div id=""x-box""> <p class=""title-text"">X<p> </div> <div id=""b-box""> <p class=""title-text"">B</p></div> <br> <div style='float: left;padding-left:30px;'><p>Press '1' for A</p></div><div style='float: right;padding-right:30px;'><p>Press '0' for B</p> </div> </div></div>","null","","","","","","","","","","","","","",""
"2821","","test","audio-keyboard-response","49","178196","0.0-8.0-1.11","5f11f98efbaf2b0ef855ec6b","condA","","resources/audio/wordStim/S3_AU_15_bxa_Step-4.wav","49","","","","","AU","resources/audio/wordStim/S3_AU_15_bxa_Step-4.wav","S3","15","bxa","4","MI","1","1","true"
"null","","fixation","html-keyboard-response","50","179201","0.0-8.0-0.12","5f11f98efbaf2b0ef855ec6b","condA","","<div class=""vertical-center"" style='width:60%;'><p style='font-weight:bold;'>Does the middle word sound more like the first word (A) or the last word (B)?</p> <br> <div class=""container""> <div id=""a-box""> <p class=""title-text"">A</h3></p> </div> <div id=""x-box""> <p class=""title-text"">X<p> </div> <div id=""b-box""> <p class=""title-text"">B</p></div> <br> <div style='float: left;padding-left:30px;'><p>Press '1' for A</p></div><div style='float: right;padding-right:30px;'><p>Press '0' for B</p> </div> </div></div>","null","","","","","","","","","","","","","",""
"4522","","test","audio-keyboard-response","51","183727","0.0-8.0-1.12","5f11f98efbaf2b0ef855ec6b","condA","","resources/audio/wordStim/S3_AU_16_axb_Step-9.wav","49","","","","","AU","resources/audio/wordStim/S3_AU_16_axb_Step-9.wav","S3","16","axb","9","MI","0","1","false"
"null","","fixation","html-keyboard-response","52","184732","0.0-8.0-0.13","5f11f98efbaf2b0ef855ec6b","condA","","<div class=""vertical-center"" style='width:60%;'><p style='font-weight:bold;'>Does the middle word sound more like the first word (A) or the last word (B)?</p> <br> <div class=""container""> <div id=""a-box""> <p class=""title-text"">A</h3></p> </div> <div id=""x-box""> <p class=""title-text"">X<p> </div> <div id=""b-box""> <p class=""title-text"">B</p></div> <br> <div style='float: left;padding-left:30px;'><p>Press '1' for A</p></div><div style='float: right;padding-right:30px;'><p>Press '0' for B</p> </div> </div></div>","null","","","","","","","","","","","","","",""
"3274","","test","audio-keyboard-response","53","188009","0.0-8.0-1.13","5f11f98efbaf2b0ef855ec6b","condA","","resources/audio/wordStim/S9_AU_16_axb_Step-3.wav","49","","","","","AU","resources/audio/wordStim/S9_AU_16_axb_Step-3.wav","S9","16","axb","3","CN","0","1","false"
"null","","fixation","html-keyboard-response","54","189014","0.0-8.0-0.14","5f11f98efbaf2b0ef855ec6b","condA","","<div class=""vertical-center"" style='width:60%;'><p style='font-weight:bold;'>Does the middle word sound more like the first word (A) or the last word (B)?</p> <br> <div class=""container""> <div id=""a-box""> <p class=""title-text"">A</h3></p> </div> <div id=""x-box""> <p class=""title-text"">X<p> </div> <div id=""b-box""> <p class=""title-text"">B</p></div> <br> <div style='float: left;padding-left:30px;'><p>Press '1' for A</p></div><div style='float: right;padding-right:30px;'><p>Press '0' for B</p> </div> </div></div>","null","","","","","","","","","","","","","",""
"3187","","test","audio-keyboard-response","55","192204","0.0-8.0-1.14","5f11f98efbaf2b0ef855ec6b","condA","","resources/audio/wordStim/S9_AU_19_bxa_Step-6.wav","49","","","","","AU","resources/audio/wordStim/S9_AU_19_bxa_Step-6.wav","S9","19","bxa","6","CN","1","1","true"
"null","","fixation","html-keyboard-response","56","193207","0.0-8.0-0.15","5f11f98efbaf2b0ef855ec6b","condA","","<div class=""vertical-center"" style='width:60%;'><p style='font-weight:bold;'>Does the middle word sound more like the first word (A) or the last word (B)?</p> <br> <div class=""container""> <div id=""a-box""> <p class=""title-text"">A</h3></p> </div> <div id=""x-box""> <p class=""title-text"">X<p> </div> <div id=""b-box""> <p class=""title-text"">B</p></div> <br> <div style='float: left;padding-left:30px;'><p>Press '1' for A</p></div><div style='float: right;padding-right:30px;'><p>Press '0' for B</p> </div> </div></div>","null","","","","","","","","","","","","","",""
"2781","","test","audio-keyboard-response","57","195990","0.0-8.0-1.15","5f11f98efbaf2b0ef855ec6b","condA","","resources/audio/wordStim/S3_AU_19_bxa_Step-6.wav","49","","","","","AU","resources/audio/wordStim/S3_AU_19_bxa_Step-6.wav","S3","19","bxa","6","MI","1","1","true"
"null","","fixation","html-keyboard-response","58","196994","0.0-8.0-0.16","5f11f98efbaf2b0ef855ec6b","condA","","<div class=""vertical-center"" style='width:60%;'><p style='font-weight:bold;'>Does the middle word sound more like the first word (A) or the last word (B)?</p> <br> <div class=""container""> <div id=""a-box""> <p class=""title-text"">A</h3></p> </div> <div id=""x-box""> <p class=""title-text"">X<p> </div> <div id=""b-box""> <p class=""title-text"">B</p></div> <br> <div style='float: left;padding-left:30px;'><p>Press '1' for A</p></div><div style='float: right;padding-right:30px;'><p>Press '0' for B</p> </div> </div></div>","null","","","","","","","","","","","","","",""
"3291","","test","audio-keyboard-response","59","200288","0.0-8.0-1.16","5f11f98efbaf2b0ef855ec6b","condA","","resources/audio/wordStim/S3_AI_22_bxa_Step-8.wav","49","","","","","AI","resources/audio/wordStim/S3_AI_22_bxa_Step-8.wav","S3","22","bxa","8","MI","1","1","true"
"null","","fixation","html-keyboard-response","60","201292","0.0-8.0-0.17","5f11f98efbaf2b0ef855ec6b","condA","","<div class=""vertical-center"" style='width:60%;'><p style='font-weight:bold;'>Does the middle word sound more like the first word (A) or the last word (B)?</p> <br> <div class=""container""> <div id=""a-box""> <p class=""title-text"">A</h3></p> </div> <div id=""x-box""> <p class=""title-text"">X<p> </div> <div id=""b-box""> <p class=""title-text"">B</p></div> <br> <div style='float: left;padding-left:30px;'><p>Press '1' for A</p></div><div style='float: right;padding-right:30px;'><p>Press '0' for B</p> </div> </div></div>","null","","","","","","","","","","","","","",""
"3947","","test","audio-keyboard-response","61","205242","0.0-8.0-1.17","5f11f98efbaf2b0ef855ec6b","condA","","resources/audio/wordStim/S9_AU_13_axb_Step-10.wav","48","","","","","AU","resources/audio/wordStim/S9_AU_13_axb_Step-10.wav","S9","13","axb","10","CN","0","0","true"
"null","","fixation","html-keyboard-response","62","206246","0.0-8.0-0.18","5f11f98efbaf2b0ef855ec6b","condA","","<div class=""vertical-center"" style='width:60%;'><p style='font-weight:bold;'>Does the middle word sound more like the first word (A) or the last word (B)?</p> <br> <div class=""container""> <div id=""a-box""> <p class=""title-text"">A</h3></p> </div> <div id=""x-box""> <p class=""title-text"">X<p> </div> <div id=""b-box""> <p class=""title-text"">B</p></div> <br> <div style='float: left;padding-left:30px;'><p>Press '1' for A</p></div><div style='float: right;padding-right:30px;'><p>Press '0' for B</p> </div> </div></div>","null","","","","","","","","","","","","","",""
"3767","","test","audio-keyboard-response","63","210016","0.0-8.0-1.18","5f11f98efbaf2b0ef855ec6b","condA","","resources/audio/wordStim/S3_AI_25_bxa_Step-6.wav","49","","","","","AI","resources/audio/wordStim/S3_AI_25_bxa_Step-6.wav","S3","25","bxa","6","MI","1","1","true"
"null","","fixation","html-keyboard-response","64","211021","0.0-8.0-0.19","5f11f98efbaf2b0ef855ec6b","condA","","<div class=""vertical-center"" style='width:60%;'><p style='font-weight:bold;'>Does the middle word sound more like the first word (A) or the last word (B)?</p> <br> <div class=""container""> <div id=""a-box""> <p class=""title-text"">A</h3></p> </div> <div id=""x-box""> <p class=""title-text"">X<p> </div> <div id=""b-box""> <p class=""title-text"">B</p></div> <br> <div style='float: left;padding-left:30px;'><p>Press '1' for A</p></div><div style='float: right;padding-right:30px;'><p>Press '0' for B</p> </div> </div></div>","null","","","","","","","","","","","","","",""
"3158","","test","audio-keyboard-response","65","214184","0.0-8.0-1.19","5f11f98efbaf2b0ef855ec6b","condA","","resources/audio/wordStim/S3_AU_16_bxa_Step-8.wav","49","","","","","AU","resources/audio/wordStim/S3_AU_16_bxa_Step-8.wav","S3","16","bxa","8","MI","1","1","true"
"null","","fixation","html-keyboard-response","66","215189","0.0-8.0-0.20","5f11f98efbaf2b0ef855ec6b","condA","","<div class=""vertical-center"" style='width:60%;'><p style='font-weight:bold;'>Does the middle word sound more like the first word (A) or the last word (B)?</p> <br> <div class=""container""> <div id=""a-box""> <p class=""title-text"">A</h3></p> </div> <div id=""x-box""> <p class=""title-text"">X<p> </div> <div id=""b-box""> <p class=""title-text"">B</p></div> <br> <div style='float: left;padding-left:30px;'><p>Press '1' for A</p></div><div style='float: right;padding-right:30px;'><p>Press '0' for B</p> </div> </div></div>","null","","","","","","","","","","","","","",""
"3001","","test","audio-keyboard-response","67","218190","0.0-8.0-1.20","5f11f98efbaf2b0ef855ec6b","condA","","resources/audio/wordStim/S9_AI_23_bxa_Step-2.wav","49","","","","","AI","resources/audio/wordStim/S9_AI_23_bxa_Step-2.wav","S9","23","bxa","2","CN","1","1","true"
"null","","fixation","html-keyboard-response","68","219196","0.0-8.0-0.21","5f11f98efbaf2b0ef855ec6b","condA","","<div class=""vertical-center"" style='width:60%;'><p style='font-weight:bold;'>Does the middle word sound more like the first word (A) or the last word (B)?</p> <br> <div class=""container""> <div id=""a-box""> <p class=""title-text"">A</h3></p> </div> <div id=""x-box""> <p class=""title-text"">X<p> </div> <div id=""b-box""> <p class=""title-text"">B</p></div> <br> <div style='float: left;padding-left:30px;'><p>Press '1' for A</p></div><div style='float: right;padding-right:30px;'><p>Press '0' for B</p> </div> </div></div>","null","","","","","","","","","","","","","",""
"3146","","test","audio-keyboard-response","69","222342","0.0-8.0-1.21","5f11f98efbaf2b0ef855ec6b","condA","","resources/audio/wordStim/S3_AI_23_axb_Step-10.wav","49","","","","","AI","resources/audio/wordStim/S3_AI_23_axb_Step-10.wav","S3","23","axb","10","MI","0","1","false"
"null","","fixation","html-keyboard-response","70","223346","0.0-8.0-0.22","5f11f98efbaf2b0ef855ec6b","condA","","<div class=""vertical-center"" style='width:60%;'><p style='font-weight:bold;'>Does the middle word sound more like the first word (A) or the last word (B)?</p> <br> <div class=""container""> <div id=""a-box""> <p class=""title-text"">A</h3></p> </div> <div id=""x-box""> <p class=""title-text"">X<p> </div> <div id=""b-box""> <p class=""title-text"">B</p></div> <br> <div style='float: left;padding-left:30px;'><p>Press '1' for A</p></div><div style='float: right;padding-right:30px;'><p>Press '0' for B</p> </div> </div></div>","null","","","","","","","","","","","","","",""
"3193","","test","audio-keyboard-response","71","226539","0.0-8.0-1.22","5f11f98efbaf2b0ef855ec6b","condA","","resources/audio/wordStim/S9_AI_24_bxa_Step-4.wav","48","","","","","AI","resources/audio/wordStim/S9_AI_24_bxa_Step-4.wav","S9","24","bxa","4","CN","1","0","false"
"null","","fixation","html-keyboard-response","72","227543","0.0-8.0-0.23","5f11f98efbaf2b0ef855ec6b","condA","","<div class=""vertical-center"" style='width:60%;'><p style='font-weight:bold;'>Does the middle word sound more like the first word (A) or the last word (B)?</p> <br> <div class=""container""> <div id=""a-box""> <p class=""title-text"">A</h3></p> </div> <div id=""x-box""> <p class=""title-text"">X<p> </div> <div id=""b-box""> <p class=""title-text"">B</p></div> <br> <div style='float: left;padding-left:30px;'><p>Press '1' for A</p></div><div style='float: right;padding-right:30px;'><p>Press '0' for B</p> </div> </div></div>","null","","","","","","","","","","","","","",""
"2630","","test","audio-keyboard-response","73","230173","0.0-8.0-1.23","5f11f98efbaf2b0ef855ec6b","condA","","resources/audio/wordStim/S3_AU_14_axb_Step-9.wav","49","","","","","AU","resources/audio/wordStim/S3_AU_14_axb_Step-9.wav","S3","14","axb","9","MI","0","1","false"
"null","","fixation","html-keyboard-response","74","231178","0.0-8.0-0.24","5f11f98efbaf2b0ef855ec6b","condA","","<div class=""vertical-center"" style='width:60%;'><p style='font-weight:bold;'>Does the middle word sound more like the first word (A) or the last word (B)?</p> <br> <div class=""container""> <div id=""a-box""> <p class=""title-text"">A</h3></p> </div> <div id=""x-box""> <p class=""title-text"">X<p> </div> <div id=""b-box""> <p class=""title-text"">B</p></div> <br> <div style='float: left;padding-left:30px;'><p>Press '1' for A</p></div><div style='float: right;padding-right:30px;'><p>Press '0' for B</p> </div> </div></div>","null","","","","","","","","","","","","","",""
"3030","","test","audio-keyboard-response","75","234208","0.0-8.0-1.24","5f11f98efbaf2b0ef855ec6b","condA","","resources/audio/wordStim/S3_AI_29_bxa_Step-4.wav","49","","","","","AI","resources/audio/wordStim/S3_AI_29_bxa_Step-4.wav","S3","29","bxa","4","MI","1","1","true"
"null","","fixation","html-keyboard-response","76","235212","0.0-8.0-0.25","5f11f98efbaf2b0ef855ec6b","condA","","<div class=""vertical-center"" style='width:60%;'><p style='font-weight:bold;'>Does the middle word sound more like the first word (A) or the last word (B)?</p> <br> <div class=""container""> <div id=""a-box""> <p class=""title-text"">A</h3></p> </div> <div id=""x-box""> <p class=""title-text"">X<p> </div> <div id=""b-box""> <p class=""title-text"">B</p></div> <br> <div style='float: left;padding-left:30px;'><p>Press '1' for A</p></div><div style='float: right;padding-right:30px;'><p>Press '0' for B</p> </div> </div></div>","null","","","","","","","","","","","","","",""
"2955","","test","audio-keyboard-response","77","238165","0.0-8.0-1.25","5f11f98efbaf2b0ef855ec6b","condA","","resources/audio/wordStim/S9_AI_25_axb_Step-10.wav","48","","","","","AI","resources/audio/wordStim/S9_AI_25_axb_Step-10.wav","S9","25","axb","10","CN","0","0","true"
"null","","fixation","html-keyboard-response","78","239170","0.0-8.0-0.26","5f11f98efbaf2b0ef855ec6b","condA","","<div class=""vertical-center"" style='width:60%;'><p style='font-weight:bold;'>Does the middle word sound more like the first word (A) or the last word (B)?</p> <br> <div class=""container""> <div id=""a-box""> <p class=""title-text"">A</h3></p> </div> <div id=""x-box""> <p class=""title-text"">X<p> </div> <div id=""b-box""> <p class=""title-text"">B</p></div> <br> <div style='float: left;padding-left:30px;'><p>Press '1' for A</p></div><div style='float: right;padding-right:30px;'><p>Press '0' for B</p> </div> </div></div>","null","","","","","","","","","","","","","",""
"2664","","test","audio-keyboard-response","79","241836","0.0-8.0-1.26","5f11f98efbaf2b0ef855ec6b","condA","","resources/audio/wordStim/S3_AI_22_axb_Step-5.wav","49","","","","","AI","resources/audio/wordStim/S3_AI_22_axb_Step-5.wav","S3","22","axb","5","MI","0","1","false"
"1945.164999999979","","break","html-keyboard-response","80","244285","0.0-8.0-2.26-0.26","5f11f98efbaf2b0ef855ec6b","condA","","<div class=""vertical-center""><p>Feel free to take a break!</p><i>When you're ready to continue, press SPACE to begin the next trial.</i></p></div>","32","","","","","","","","","","","","","",""
"null","","fixation","html-keyboard-response","81","244788","0.0-8.0-0.27","5f11f98efbaf2b0ef855ec6b","condA","","<div class=""vertical-center"" style='width:60%;'><p style='font-weight:bold;'>Does the middle word sound more like the first word (A) or the last word (B)?</p> <br> <div class=""container""> <div id=""a-box""> <p class=""title-text"">A</h3></p> </div> <div id=""x-box""> <p class=""title-text"">X<p> </div> <div id=""b-box""> <p class=""title-text"">B</p></div> <br> <div style='float: left;padding-left:30px;'><p>Press '1' for A</p></div><div style='float: right;padding-right:30px;'><p>Press '0' for B</p> </div> </div></div>","null","","","","","","","","","","","","","",""
"2844","","test","audio-keyboard-response","82","247636","0.0-8.0-1.27","5f11f98efbaf2b0ef855ec6b","condA","","resources/audio/wordStim/S9_AI_27_axb_Step-9.wav","49","","","","","AI","resources/audio/wordStim/S9_AI_27_axb_Step-9.wav","S9","27","axb","9","CN","0","1","false"
"null","","fixation","html-keyboard-response","83","248639","0.0-8.0-0.28","5f11f98efbaf2b0ef855ec6b","condA","","<div class=""vertical-center"" style='width:60%;'><p style='font-weight:bold;'>Does the middle word sound more like the first word (A) or the last word (B)?</p> <br> <div class=""container""> <div id=""a-box""> <p class=""title-text"">A</h3></p> </div> <div id=""x-box""> <p class=""title-text"">X<p> </div> <div id=""b-box""> <p class=""title-text"">B</p></div> <br> <div style='float: left;padding-left:30px;'><p>Press '1' for A</p></div><div style='float: right;padding-right:30px;'><p>Press '0' for B</p> </div> </div></div>","null","","","","","","","","","","","","","",""
"4743","","test","audio-keyboard-response","84","253380","0.0-8.0-1.28","5f11f98efbaf2b0ef855ec6b","condA","","resources/audio/wordStim/S9_AU_20_axb_Step-9.wav","48","","","","","AU","resources/audio/wordStim/S9_AU_20_axb_Step-9.wav","S9","20","axb","9","CN","0","0","true"
"null","","fixation","html-keyboard-response","85","254384","0.0-8.0-0.29","5f11f98efbaf2b0ef855ec6b","condA","","<div class=""vertical-center"" style='width:60%;'><p style='font-weight:bold;'>Does the middle word sound more like the first word (A) or the last word (B)?</p> <br> <div class=""container""> <div id=""a-box""> <p class=""title-text"">A</h3></p> </div> <div id=""x-box""> <p class=""title-text"">X<p> </div> <div id=""b-box""> <p class=""title-text"">B</p></div> <br> <div style='float: left;padding-left:30px;'><p>Press '1' for A</p></div><div style='float: right;padding-right:30px;'><p>Press '0' for B</p> </div> </div></div>","null","","","","","","","","","","","","","",""
"3408","","test","audio-keyboard-response","86","257793","0.0-8.0-1.29","5f11f98efbaf2b0ef855ec6b","condA","","resources/audio/wordStim/S3_AI_28_axb_Step-7.wav","49","","","","","AI","resources/audio/wordStim/S3_AI_28_axb_Step-7.wav","S3","28","axb","7","MI","0","1","false"
"null","","fixation","html-keyboard-response","87","258797","0.0-8.0-0.30","5f11f98efbaf2b0ef855ec6b","condA","","<div class=""vertical-center"" style='width:60%;'><p style='font-weight:bold;'>Does the middle word sound more like the first word (A) or the last word (B)?</p> <br> <div class=""container""> <div id=""a-box""> <p class=""title-text"">A</h3></p> </div> <div id=""x-box""> <p class=""title-text"">X<p> </div> <div id=""b-box""> <p class=""title-text"">B</p></div> <br> <div style='float: left;padding-left:30px;'><p>Press '1' for A</p></div><div style='float: right;padding-right:30px;'><p>Press '0' for B</p> </div> </div></div>","null","","","","","","","","","","","","","",""
"2914","","test","audio-keyboard-response","88","261709","0.0-8.0-1.30","5f11f98efbaf2b0ef855ec6b","condA","","resources/audio/wordStim/S3_AU_11_bxa_Step-6.wav","49","","","","","AU","resources/audio/wordStim/S3_AU_11_bxa_Step-6.wav","S3","11","bxa","6","MI","1","1","true"
"null","","fixation","html-keyboard-response","89","262714","0.0-8.0-0.31","5f11f98efbaf2b0ef855ec6b","condA","","<div class=""vertical-center"" style='width:60%;'><p style='font-weight:bold;'>Does the middle word sound more like the first word (A) or the last word (B)?</p> <br> <div class=""container""> <div id=""a-box""> <p class=""title-text"">A</h3></p> </div> <div id=""x-box""> <p class=""title-text"">X<p> </div> <div id=""b-box""> <p class=""title-text"">B</p></div> <br> <div style='float: left;padding-left:30px;'><p>Press '1' for A</p></div><div style='float: right;padding-right:30px;'><p>Press '0' for B</p> </div> </div></div>","null","","","","","","","","","","","","","",""
"2392","","test","audio-keyboard-response","90","265108","0.0-8.0-1.31","5f11f98efbaf2b0ef855ec6b","condA","","resources/audio/wordStim/S3_AI_23_axb_Step-7.wav","48","","","","","AI","resources/audio/wordStim/S3_AI_23_axb_Step-7.wav","S3","23","axb","7","MI","0","0","true"
"null","","fixation","html-keyboard-response","91","266113","0.0-8.0-0.32","5f11f98efbaf2b0ef855ec6b","condA","","<div class=""vertical-center"" style='width:60%;'><p style='font-weight:bold;'>Does the middle word sound more like the first word (A) or the last word (B)?</p> <br> <div class=""container""> <div id=""a-box""> <p class=""title-text"">A</h3></p> </div> <div id=""x-box""> <p class=""title-text"">X<p> </div> <div id=""b-box""> <p class=""title-text"">B</p></div> <br> <div style='float: left;padding-left:30px;'><p>Press '1' for A</p></div><div style='float: right;padding-right:30px;'><p>Press '0' for B</p> </div> </div></div>","null","","","","","","","","","","","","","",""
"2496","","test","audio-keyboard-response","92","268614","0.0-8.0-1.32","5f11f98efbaf2b0ef855ec6b","condA","","resources/audio/wordStim/S9_AI_25_axb_Step-5.wav","49","","","","","AI","resources/audio/wordStim/S9_AI_25_axb_Step-5.wav","S9","25","axb","5","CN","0","1","false"
"null","","fixation","html-keyboard-response","93","269616","0.0-8.0-0.33","5f11f98efbaf2b0ef855ec6b","condA","","<div class=""vertical-center"" style='width:60%;'><p style='font-weight:bold;'>Does the middle word sound more like the first word (A) or the last word (B)?</p> <br> <div class=""container""> <div id=""a-box""> <p class=""title-text"">A</h3></p> </div> <div id=""x-box""> <p class=""title-text"">X<p> </div> <div id=""b-box""> <p class=""title-text"">B</p></div> <br> <div style='float: left;padding-left:30px;'><p>Press '1' for A</p></div><div style='float: right;padding-right:30px;'><p>Press '0' for B</p> </div> </div></div>","null","","","","","","","","","","","","","",""
"2839","","test","audio-keyboard-response","94","272454","0.0-8.0-1.33","5f11f98efbaf2b0ef855ec6b","condA","","resources/audio/wordStim/S9_AI_24_axb_Step-7.wav","48","","","","","AI","resources/audio/wordStim/S9_AI_24_axb_Step-7.wav","S9","24","axb","7","CN","0","0","true"
"null","","fixation","html-keyboard-response","95","273459","0.0-8.0-0.34","5f11f98efbaf2b0ef855ec6b","condA","","<div class=""vertical-center"" style='width:60%;'><p style='font-weight:bold;'>Does the middle word sound more like the first word (A) or the last word (B)?</p> <br> <div class=""container""> <div id=""a-box""> <p class=""title-text"">A</h3></p> </div> <div id=""x-box""> <p class=""title-text"">X<p> </div> <div id=""b-box""> <p class=""title-text"">B</p></div> <br> <div style='float: left;padding-left:30px;'><p>Press '1' for A</p></div><div style='float: right;padding-right:30px;'><p>Press '0' for B</p> </div> </div></div>","null","","","","","","","","","","","","","",""
"3030","","test","audio-keyboard-response","96","276493","0.0-8.0-1.34","5f11f98efbaf2b0ef855ec6b","condA","","resources/audio/wordStim/S3_AU_19_axb_Step-10.wav","48","","","","","AU","resources/audio/wordStim/S3_AU_19_axb_Step-10.wav","S3","19","axb","10","MI","0","0","true"
"null","","fixation","html-keyboard-response","97","277498","0.0-8.0-0.35","5f11f98efbaf2b0ef855ec6b","condA","","<div class=""vertical-center"" style='width:60%;'><p style='font-weight:bold;'>Does the middle word sound more like the first word (A) or the last word (B)?</p> <br> <div class=""container""> <div id=""a-box""> <p class=""title-text"">A</h3></p> </div> <div id=""x-box""> <p class=""title-text"">X<p> </div> <div id=""b-box""> <p class=""title-text"">B</p></div> <br> <div style='float: left;padding-left:30px;'><p>Press '1' for A</p></div><div style='float: right;padding-right:30px;'><p>Press '0' for B</p> </div> </div></div>","null","","","","","","","","","","","","","",""
"2601","","test","audio-keyboard-response","98","280103","0.0-8.0-1.35","5f11f98efbaf2b0ef855ec6b","condA","","resources/audio/wordStim/S3_AI_25_axb_Step-3.wav","49","","","","","AI","resources/audio/wordStim/S3_AI_25_axb_Step-3.wav","S3","25","axb","3","MI","0","1","false"
"null","","fixation","html-keyboard-response","99","281108","0.0-8.0-0.36","5f11f98efbaf2b0ef855ec6b","condA","","<div class=""vertical-center"" style='width:60%;'><p style='font-weight:bold;'>Does the middle word sound more like the first word (A) or the last word (B)?</p> <br> <div class=""container""> <div id=""a-box""> <p class=""title-text"">A</h3></p> </div> <div id=""x-box""> <p class=""title-text"">X<p> </div> <div id=""b-box""> <p class=""title-text"">B</p></div> <br> <div style='float: left;padding-left:30px;'><p>Press '1' for A</p></div><div style='float: right;padding-right:30px;'><p>Press '0' for B</p> </div> </div></div>","null","","","","","","","","","","","","","",""
"3164","","test","audio-keyboard-response","100","284274","0.0-8.0-1.36","5f11f98efbaf2b0ef855ec6b","condA","","resources/audio/wordStim/S9_AU_18_axb_Step-7.wav","48","","","","","AU","resources/audio/wordStim/S9_AU_18_axb_Step-7.wav","S9","18","axb","7","CN","0","0","true"
"null","","fixation","html-keyboard-response","101","285279","0.0-8.0-0.37","5f11f98efbaf2b0ef855ec6b","condA","","<div class=""vertical-center"" style='width:60%;'><p style='font-weight:bold;'>Does the middle word sound more like the first word (A) or the last word (B)?</p> <br> <div class=""container""> <div id=""a-box""> <p class=""title-text"">A</h3></p> </div> <div id=""x-box""> <p class=""title-text"">X<p> </div> <div id=""b-box""> <p class=""title-text"">B</p></div> <br> <div style='float: left;padding-left:30px;'><p>Press '1' for A</p></div><div style='float: right;padding-right:30px;'><p>Press '0' for B</p> </div> </div></div>","null","","","","","","","","","","","","","",""
"2641","","test","audio-keyboard-response","102","287919","0.0-8.0-1.37","5f11f98efbaf2b0ef855ec6b","condA","","resources/audio/wordStim/S9_AI_27_bxa_Step-8.wav","49","","","","","AI","resources/audio/wordStim/S9_AI_27_bxa_Step-8.wav","S9","27","bxa","8","CN","1","1","true"
"null","","fixation","html-keyboard-response","103","288923","0.0-8.0-0.38","5f11f98efbaf2b0ef855ec6b","condA","","<div class=""vertical-center"" style='width:60%;'><p style='font-weight:bold;'>Does the middle word sound more like the first word (A) or the last word (B)?</p> <br> <div class=""container""> <div id=""a-box""> <p class=""title-text"">A</h3></p> </div> <div id=""x-box""> <p class=""title-text"">X<p> </div> <div id=""b-box""> <p class=""title-text"">B</p></div> <br> <div style='float: left;padding-left:30px;'><p>Press '1' for A</p></div><div style='float: right;padding-right:30px;'><p>Press '0' for B</p> </div> </div></div>","null","","","","","","","","","","","","","",""
"2821","","test","audio-keyboard-response","104","291747","0.0-8.0-1.38","5f11f98efbaf2b0ef855ec6b","condA","","resources/audio/wordStim/S9_AI_29_bxa_Step-2.wav","49","","","","","AI","resources/audio/wordStim/S9_AI_29_bxa_Step-2.wav","S9","29","bxa","2","CN","1","1","true"
"null","","fixation","html-keyboard-response","105","292752","0.0-8.0-0.39","5f11f98efbaf2b0ef855ec6b","condA","","<div class=""vertical-center"" style='width:60%;'><p style='font-weight:bold;'>Does the middle word sound more like the first word (A) or the last word (B)?</p> <br> <div class=""container""> <div id=""a-box""> <p class=""title-text"">A</h3></p> </div> <div id=""x-box""> <p class=""title-text"">X<p> </div> <div id=""b-box""> <p class=""title-text"">B</p></div> <br> <div style='float: left;padding-left:30px;'><p>Press '1' for A</p></div><div style='float: right;padding-right:30px;'><p>Press '0' for B</p> </div> </div></div>","null","","","","","","","","","","","","","",""
"2508","","test","audio-keyboard-response","106","295262","0.0-8.0-1.39","5f11f98efbaf2b0ef855ec6b","condA","","resources/audio/wordStim/S3_AI_25_bxa_Step-2.wav","49","","","","","AI","resources/audio/wordStim/S3_AI_25_bxa_Step-2.wav","S3","25","bxa","2","MI","1","1","true"
"null","","fixation","html-keyboard-response","107","296266","0.0-8.0-0.40","5f11f98efbaf2b0ef855ec6b","condA","","<div class=""vertical-center"" style='width:60%;'><p style='font-weight:bold;'>Does the middle word sound more like the first word (A) or the last word (B)?</p> <br> <div class=""container""> <div id=""a-box""> <p class=""title-text"">A</h3></p> </div> <div id=""x-box""> <p class=""title-text"">X<p> </div> <div id=""b-box""> <p class=""title-text"">B</p></div> <br> <div style='float: left;padding-left:30px;'><p>Press '1' for A</p></div><div style='float: right;padding-right:30px;'><p>Press '0' for B</p> </div> </div></div>","null","","","","","","","","","","","","","",""
"3013","","test","audio-keyboard-response","108","299279","0.0-8.0-1.40","5f11f98efbaf2b0ef855ec6b","condA","","resources/audio/wordStim/S9_AI_27_axb_Step-7.wav","48","","","","","AI","resources/audio/wordStim/S9_AI_27_axb_Step-7.wav","S9","27","axb","7","CN","0","0","true"
"null","","fixation","html-keyboard-response","109","300284","0.0-8.0-0.41","5f11f98efbaf2b0ef855ec6b","condA","","<div class=""vertical-center"" style='width:60%;'><p style='font-weight:bold;'>Does the middle word sound more like the first word (A) or the last word (B)?</p> <br> <div class=""container""> <div id=""a-box""> <p class=""title-text"">A</h3></p> </div> <div id=""x-box""> <p class=""title-text"">X<p> </div> <div id=""b-box""> <p class=""title-text"">B</p></div> <br> <div style='float: left;padding-left:30px;'><p>Press '1' for A</p></div><div style='float: right;padding-right:30px;'><p>Press '0' for B</p> </div> </div></div>","null","","","","","","","","","","","","","",""
"3709","","test","audio-keyboard-response","110","303994","0.0-8.0-1.41","5f11f98efbaf2b0ef855ec6b","condA","","resources/audio/wordStim/S9_AI_29_axb_Step-10.wav","48","","","","","AI","resources/audio/wordStim/S9_AI_29_axb_Step-10.wav","S9","29","axb","10","CN","0","0","true"
"null","","fixation","html-keyboard-response","111","304999","0.0-8.0-0.42","5f11f98efbaf2b0ef855ec6b","condA","","<div class=""vertical-center"" style='width:60%;'><p style='font-weight:bold;'>Does the middle word sound more like the first word (A) or the last word (B)?</p> <br> <div class=""container""> <div id=""a-box""> <p class=""title-text"">A</h3></p> </div> <div id=""x-box""> <p class=""title-text"">X<p> </div> <div id=""b-box""> <p class=""title-text"">B</p></div> <br> <div style='float: left;padding-left:30px;'><p>Press '1' for A</p></div><div style='float: right;padding-right:30px;'><p>Press '0' for B</p> </div> </div></div>","null","","","","","","","","","","","","","",""
"2699","","test","audio-keyboard-response","112","307703","0.0-8.0-1.42","5f11f98efbaf2b0ef855ec6b","condA","","resources/audio/wordStim/S9_AU_14_bxa_Step-2.wav","49","","","","","AU","resources/audio/wordStim/S9_AU_14_bxa_Step-2.wav","S9","14","bxa","2","CN","1","1","true"
"null","","fixation","html-keyboard-response","113","308709","0.0-8.0-0.43","5f11f98efbaf2b0ef855ec6b","condA","","<div class=""vertical-center"" style='width:60%;'><p style='font-weight:bold;'>Does the middle word sound more like the first word (A) or the last word (B)?</p> <br> <div class=""container""> <div id=""a-box""> <p class=""title-text"">A</h3></p> </div> <div id=""x-box""> <p class=""title-text"">X<p> </div> <div id=""b-box""> <p class=""title-text"">B</p></div> <br> <div style='float: left;padding-left:30px;'><p>Press '1' for A</p></div><div style='float: right;padding-right:30px;'><p>Press '0' for B</p> </div> </div></div>","null","","","","","","","","","","","","","",""
"2844","","test","audio-keyboard-response","114","311555","0.0-8.0-1.43","5f11f98efbaf2b0ef855ec6b","condA","","resources/audio/wordStim/S9_AI_23_axb_Step-3.wav","49","","","","","AI","resources/audio/wordStim/S9_AI_23_axb_Step-3.wav","S9","23","axb","3","CN","0","1","false"
"null","","fixation","html-keyboard-response","115","312560","0.0-8.0-0.44","5f11f98efbaf2b0ef855ec6b","condA","","<div class=""vertical-center"" style='width:60%;'><p style='font-weight:bold;'>Does the middle word sound more like the first word (A) or the last word (B)?</p> <br> <div class=""container""> <div id=""a-box""> <p class=""title-text"">A</h3></p> </div> <div id=""x-box""> <p class=""title-text"">X<p> </div> <div id=""b-box""> <p class=""title-text"">B</p></div> <br> <div style='float: left;padding-left:30px;'><p>Press '1' for A</p></div><div style='float: right;padding-right:30px;'><p>Press '0' for B</p> </div> </div></div>","null","","","","","","","","","","","","","",""
"2543","","test","audio-keyboard-response","116","315106","0.0-8.0-1.44","5f11f98efbaf2b0ef855ec6b","condA","","resources/audio/wordStim/S3_AU_20_axb_Step-10.wav","48","","","","","AU","resources/audio/wordStim/S3_AU_20_axb_Step-10.wav","S3","20","axb","10","MI","0","0","true"
"null","","fixation","html-keyboard-response","117","316111","0.0-8.0-0.45","5f11f98efbaf2b0ef855ec6b","condA","","<div class=""vertical-center"" style='width:60%;'><p style='font-weight:bold;'>Does the middle word sound more like the first word (A) or the last word (B)?</p> <br> <div class=""container""> <div id=""a-box""> <p class=""title-text"">A</h3></p> </div> <div id=""x-box""> <p class=""title-text"">X<p> </div> <div id=""b-box""> <p class=""title-text"">B</p></div> <br> <div style='float: left;padding-left:30px;'><p>Press '1' for A</p></div><div style='float: right;padding-right:30px;'><p>Press '0' for B</p> </div> </div></div>","null","","","","","","","","","","","","","",""
"3262","","test","audio-keyboard-response","118","319379","0.0-8.0-1.45","5f11f98efbaf2b0ef855ec6b","condA","","resources/audio/wordStim/S9_AU_19_axb_Step-3.wav","49","","","","","AU","resources/audio/wordStim/S9_AU_19_axb_Step-3.wav","S9","19","axb","3","CN","0","1","false"
"null","","fixation","html-keyboard-response","119","320383","0.0-8.0-0.46","5f11f98efbaf2b0ef855ec6b","condA","","<div class=""vertical-center"" style='width:60%;'><p style='font-weight:bold;'>Does the middle word sound more like the first word (A) or the last word (B)?</p> <br> <div class=""container""> <div id=""a-box""> <p class=""title-text"">A</h3></p> </div> <div id=""x-box""> <p class=""title-text"">X<p> </div> <div id=""b-box""> <p class=""title-text"">B</p></div> <br> <div style='float: left;padding-left:30px;'><p>Press '1' for A</p></div><div style='float: right;padding-right:30px;'><p>Press '0' for B</p> </div> </div></div>","null","","","","","","","","","","","","","",""
"2583","","test","audio-keyboard-response","120","322970","0.0-8.0-1.46","5f11f98efbaf2b0ef855ec6b","condA","","resources/audio/wordStim/S3_AI_28_bxa_Step-4.wav","49","","","","","AI","resources/audio/wordStim/S3_AI_28_bxa_Step-4.wav","S3","28","bxa","4","MI","1","1","true"
"null","","fixation","html-keyboard-response","121","323975","0.0-8.0-0.47","5f11f98efbaf2b0ef855ec6b","condA","","<div class=""vertical-center"" style='width:60%;'><p style='font-weight:bold;'>Does the middle word sound more like the first word (A) or the last word (B)?</p> <br> <div class=""container""> <div id=""a-box""> <p class=""title-text"">A</h3></p> </div> <div id=""x-box""> <p class=""title-text"">X<p> </div> <div id=""b-box""> <p class=""title-text"">B</p></div> <br> <div style='float: left;padding-left:30px;'><p>Press '1' for A</p></div><div style='float: right;padding-right:30px;'><p>Press '0' for B</p> </div> </div></div>","null","","","","","","","","","","","","","",""
"2299","","test","audio-keyboard-response","122","326273","0.0-8.0-1.47","5f11f98efbaf2b0ef855ec6b","condA","","resources/audio/wordStim/S9_AU_20_bxa_Step-2.wav","48","","","","","AU","resources/audio/wordStim/S9_AU_20_bxa_Step-2.wav","S9","20","bxa","2","CN","1","0","false"
"null","","fixation","html-keyboard-response","123","327275","0.0-8.0-0.48","5f11f98efbaf2b0ef855ec6b","condA","","<div class=""vertical-center"" style='width:60%;'><p style='font-weight:bold;'>Does the middle word sound more like the first word (A) or the last word (B)?</p> <br> <div class=""container""> <div id=""a-box""> <p class=""title-text"">A</h3></p> </div> <div id=""x-box""> <p class=""title-text"">X<p> </div> <div id=""b-box""> <p class=""title-text"">B</p></div> <br> <div style='float: left;padding-left:30px;'><p>Press '1' for A</p></div><div style='float: right;padding-right:30px;'><p>Press '0' for B</p> </div> </div></div>","null","","","","","","","","","","","","","",""
"3187","","test","audio-keyboard-response","124","330464","0.0-8.0-1.48","5f11f98efbaf2b0ef855ec6b","condA","","resources/audio/wordStim/S3_AU_16_bxa_Step-4.wav","49","","","","","AU","resources/audio/wordStim/S3_AU_16_bxa_Step-4.wav","S3","16","bxa","4","MI","1","1","true"
"null","","fixation","html-keyboard-response","125","331466","0.0-8.0-0.49","5f11f98efbaf2b0ef855ec6b","condA","","<div class=""vertical-center"" style='width:60%;'><p style='font-weight:bold;'>Does the middle word sound more like the first word (A) or the last word (B)?</p> <br> <div class=""container""> <div id=""a-box""> <p class=""title-text"">A</h3></p> </div> <div id=""x-box""> <p class=""title-text"">X<p> </div> <div id=""b-box""> <p class=""title-text"">B</p></div> <br> <div style='float: left;padding-left:30px;'><p>Press '1' for A</p></div><div style='float: right;padding-right:30px;'><p>Press '0' for B</p> </div> </div></div>","null","","","","","","","","","","","","","",""
"2456","","test","audio-keyboard-response","126","333925","0.0-8.0-1.49","5f11f98efbaf2b0ef855ec6b","condA","","resources/audio/wordStim/S9_AU_16_axb_Step-9.wav","48","","","","","AU","resources/audio/wordStim/S9_AU_16_axb_Step-9.wav","S9","16","axb","9","CN","0","0","true"
"null","","fixation","html-keyboard-response","127","334930","0.0-8.0-0.50","5f11f98efbaf2b0ef855ec6b","condA","","<div class=""vertical-center"" style='width:60%;'><p style='font-weight:bold;'>Does the middle word sound more like the first word (A) or the last word (B)?</p> <br> <div class=""container""> <div id=""a-box""> <p class=""title-text"">A</h3></p> </div> <div id=""x-box""> <p class=""title-text"">X<p> </div> <div id=""b-box""> <p class=""title-text"">B</p></div> <br> <div style='float: left;padding-left:30px;'><p>Press '1' for A</p></div><div style='float: right;padding-right:30px;'><p>Press '0' for B</p> </div> </div></div>","null","","","","","","","","","","","","","",""
"4714","","test","audio-keyboard-response","128","339645","0.0-8.0-1.50","5f11f98efbaf2b0ef855ec6b","condA","","resources/audio/wordStim/S3_AU_17_axb_Step-5.wav","48","","","","","AU","resources/audio/wordStim/S3_AU_17_axb_Step-5.wav","S3","17","axb","5","MI","0","0","true"
"null","","fixation","html-keyboard-response","129","340649","0.0-8.0-0.51","5f11f98efbaf2b0ef855ec6b","condA","","<div class=""vertical-center"" style='width:60%;'><p style='font-weight:bold;'>Does the middle word sound more like the first word (A) or the last word (B)?</p> <br> <div class=""container""> <div id=""a-box""> <p class=""title-text"">A</h3></p> </div> <div id=""x-box""> <p class=""title-text"">X<p> </div> <div id=""b-box""> <p class=""title-text"">B</p></div> <br> <div style='float: left;padding-left:30px;'><p>Press '1' for A</p></div><div style='float: right;padding-right:30px;'><p>Press '0' for B</p> </div> </div></div>","null","","","","","","","","","","","","","",""
"3170","","test","audio-keyboard-response","130","343821","0.0-8.0-1.51","5f11f98efbaf2b0ef855ec6b","condA","","resources/audio/wordStim/S9_AU_17_axb_Step-3.wav","49","","","","","AU","resources/audio/wordStim/S9_AU_17_axb_Step-3.wav","S9","17","axb","3","CN","0","1","false"
"null","","fixation","html-keyboard-response","131","344823","0.0-8.0-0.52","5f11f98efbaf2b0ef855ec6b","condA","","<div class=""vertical-center"" style='width:60%;'><p style='font-weight:bold;'>Does the middle word sound more like the first word (A) or the last word (B)?</p> <br> <div class=""container""> <div id=""a-box""> <p class=""title-text"">A</h3></p> </div> <div id=""x-box""> <p class=""title-text"">X<p> </div> <div id=""b-box""> <p class=""title-text"">B</p></div> <br> <div style='float: left;padding-left:30px;'><p>Press '1' for A</p></div><div style='float: right;padding-right:30px;'><p>Press '0' for B</p> </div> </div></div>","null","","","","","","","","","","","","","",""
"3524","","test","audio-keyboard-response","132","348349","0.0-8.0-1.52","5f11f98efbaf2b0ef855ec6b","condA","","resources/audio/wordStim/S9_AI_22_bxa_Step-2.wav","48","","","","","AI","resources/audio/wordStim/S9_AI_22_bxa_Step-2.wav","S9","22","bxa","2","CN","1","0","false"
"null","","fixation","html-keyboard-response","133","349352","0.0-8.0-0.53","5f11f98efbaf2b0ef855ec6b","condA","","<div class=""vertical-center"" style='width:60%;'><p style='font-weight:bold;'>Does the middle word sound more like the first word (A) or the last word (B)?</p> <br> <div class=""container""> <div id=""a-box""> <p class=""title-text"">A</h3></p> </div> <div id=""x-box""> <p class=""title-text"">X<p> </div> <div id=""b-box""> <p class=""title-text"">B</p></div> <br> <div style='float: left;padding-left:30px;'><p>Press '1' for A</p></div><div style='float: right;padding-right:30px;'><p>Press '0' for B</p> </div> </div></div>","null","","","","","","","","","","","","","",""
"3408","","test","audio-keyboard-response","134","352760","0.0-8.0-1.53","5f11f98efbaf2b0ef855ec6b","condA","","resources/audio/wordStim/S3_AU_20_bxa_Step-8.wav","49","","","","","AU","resources/audio/wordStim/S3_AU_20_bxa_Step-8.wav","S3","20","bxa","8","MI","1","1","true"
"1285.1049999999232","","break","html-keyboard-response","135","354547","0.0-8.0-2.53-0.53","5f11f98efbaf2b0ef855ec6b","condA","","<div class=""vertical-center""><p>Feel free to take a break!</p><i>When you're ready to continue, press SPACE to begin the next trial.</i></p></div>","32","","","","","","","","","","","","","",""
"null","","fixation","html-keyboard-response","136","355048","0.0-8.0-0.54","5f11f98efbaf2b0ef855ec6b","condA","","<div class=""vertical-center"" style='width:60%;'><p style='font-weight:bold;'>Does the middle word sound more like the first word (A) or the last word (B)?</p> <br> <div class=""container""> <div id=""a-box""> <p class=""title-text"">A</h3></p> </div> <div id=""x-box""> <p class=""title-text"">X<p> </div> <div id=""b-box""> <p class=""title-text"">B</p></div> <br> <div style='float: left;padding-left:30px;'><p>Press '1' for A</p></div><div style='float: right;padding-right:30px;'><p>Press '0' for B</p> </div> </div></div>","null","","","","","","","","","","","","","",""
"3280","","test","audio-keyboard-response","137","358334","0.0-8.0-1.54","5f11f98efbaf2b0ef855ec6b","condA","","resources/audio/wordStim/S9_AU_11_axb_Step-3.wav","49","","","","","AU","resources/audio/wordStim/S9_AU_11_axb_Step-3.wav","S9","11","axb","3","CN","0","1","false"
"null","","fixation","html-keyboard-response","138","359340","0.0-8.0-0.55","5f11f98efbaf2b0ef855ec6b","condA","","<div class=""vertical-center"" style='width:60%;'><p style='font-weight:bold;'>Does the middle word sound more like the first word (A) or the last word (B)?</p> <br> <div class=""container""> <div id=""a-box""> <p class=""title-text"">A</h3></p> </div> <div id=""x-box""> <p class=""title-text"">X<p> </div> <div id=""b-box""> <p class=""title-text"">B</p></div> <br> <div style='float: left;padding-left:30px;'><p>Press '1' for A</p></div><div style='float: right;padding-right:30px;'><p>Press '0' for B</p> </div> </div></div>","null","","","","","","","","","","","","","",""
"3355","","test","audio-keyboard-response","139","362699","0.0-8.0-1.55","5f11f98efbaf2b0ef855ec6b","condA","","resources/audio/wordStim/S9_AI_24_axb_Step-10.wav","48","","","","","AI","resources/audio/wordStim/S9_AI_24_axb_Step-10.wav","S9","24","axb","10","CN","0","0","true"
"null","","fixation","html-keyboard-response","140","363704","0.0-8.0-0.56","5f11f98efbaf2b0ef855ec6b","condA","","<div class=""vertical-center"" style='width:60%;'><p style='font-weight:bold;'>Does the middle word sound more like the first word (A) or the last word (B)?</p> <br> <div class=""container""> <div id=""a-box""> <p class=""title-text"">A</h3></p> </div> <div id=""x-box""> <p class=""title-text"">X<p> </div> <div id=""b-box""> <p class=""title-text"">B</p></div> <br> <div style='float: left;padding-left:30px;'><p>Press '1' for A</p></div><div style='float: right;padding-right:30px;'><p>Press '0' for B</p> </div> </div></div>","null","","","","","","","","","","","","","",""
"3855","","test","audio-keyboard-response","141","367561","0.0-8.0-1.56","5f11f98efbaf2b0ef855ec6b","condA","","resources/audio/wordStim/S9_AI_23_bxa_Step-8.wav","49","","","","","AI","resources/audio/wordStim/S9_AI_23_bxa_Step-8.wav","S9","23","bxa","8","CN","1","1","true"
"null","","fixation","html-keyboard-response","142","368565","0.0-8.0-0.57","5f11f98efbaf2b0ef855ec6b","condA","","<div class=""vertical-center"" style='width:60%;'><p style='font-weight:bold;'>Does the middle word sound more like the first word (A) or the last word (B)?</p> <br> <div class=""container""> <div id=""a-box""> <p class=""title-text"">A</h3></p> </div> <div id=""x-box""> <p class=""title-text"">X<p> </div> <div id=""b-box""> <p class=""title-text"">B</p></div> <br> <div style='float: left;padding-left:30px;'><p>Press '1' for A</p></div><div style='float: right;padding-right:30px;'><p>Press '0' for B</p> </div> </div></div>","null","","","","","","","","","","","","","",""
"3216","","test","audio-keyboard-response","143","371781","0.0-8.0-1.57","5f11f98efbaf2b0ef855ec6b","condA","","resources/audio/wordStim/S9_AU_20_bxa_Step-4.wav","49","","","","","AU","resources/audio/wordStim/S9_AU_20_bxa_Step-4.wav","S9","20","bxa","4","CN","1","1","true"
"null","","fixation","html-keyboard-response","144","372785","0.0-8.0-0.58","5f11f98efbaf2b0ef855ec6b","condA","","<div class=""vertical-center"" style='width:60%;'><p style='font-weight:bold;'>Does the middle word sound more like the first word (A) or the last word (B)?</p> <br> <div class=""container""> <div id=""a-box""> <p class=""title-text"">A</h3></p> </div> <div id=""x-box""> <p class=""title-text"">X<p> </div> <div id=""b-box""> <p class=""title-text"">B</p></div> <br> <div style='float: left;padding-left:30px;'><p>Press '1' for A</p></div><div style='float: right;padding-right:30px;'><p>Press '0' for B</p> </div> </div></div>","null","","","","","","","","","","","","","",""
"2397","","test","audio-keyboard-response","145","375183","0.0-8.0-1.58","5f11f98efbaf2b0ef855ec6b","condA","","resources/audio/wordStim/S9_AU_16_axb_Step-7.wav","48","","","","","AU","resources/audio/wordStim/S9_AU_16_axb_Step-7.wav","S9","16","axb","7","CN","0","0","true"
"null","","fixation","html-keyboard-response","146","376188","0.0-8.0-0.59","5f11f98efbaf2b0ef855ec6b","condA","","<div class=""vertical-center"" style='width:60%;'><p style='font-weight:bold;'>Does the middle word sound more like the first word (A) or the last word (B)?</p> <br> <div class=""container""> <div id=""a-box""> <p class=""title-text"">A</h3></p> </div> <div id=""x-box""> <p class=""title-text"">X<p> </div> <div id=""b-box""> <p class=""title-text"">B</p></div> <br> <div style='float: left;padding-left:30px;'><p>Press '1' for A</p></div><div style='float: right;padding-right:30px;'><p>Press '0' for B</p> </div> </div></div>","null","","","","","","","","","","","","","",""
"4180","","test","audio-keyboard-response","147","380367","0.0-8.0-1.59","5f11f98efbaf2b0ef855ec6b","condA","","resources/audio/wordStim/S9_AU_17_bxa_Step-6.wav","49","","","","","AU","resources/audio/wordStim/S9_AU_17_bxa_Step-6.wav","S9","17","bxa","6","CN","1","1","true"
"null","","fixation","html-keyboard-response","148","381371","0.0-8.0-0.60","5f11f98efbaf2b0ef855ec6b","condA","","<div class=""vertical-center"" style='width:60%;'><p style='font-weight:bold;'>Does the middle word sound more like the first word (A) or the last word (B)?</p> <br> <div class=""container""> <div id=""a-box""> <p class=""title-text"">A</h3></p> </div> <div id=""x-box""> <p class=""title-text"">X<p> </div> <div id=""b-box""> <p class=""title-text"">B</p></div> <br> <div style='float: left;padding-left:30px;'><p>Press '1' for A</p></div><div style='float: right;padding-right:30px;'><p>Press '0' for B</p> </div> </div></div>","null","","","","","","","","","","","","","",""
"2705","","test","audio-keyboard-response","149","384076","0.0-8.0-1.60","5f11f98efbaf2b0ef855ec6b","condA","","resources/audio/wordStim/S3_AU_14_axb_Step-5.wav","49","","","","","AU","resources/audio/wordStim/S3_AU_14_axb_Step-5.wav","S3","14","axb","5","MI","0","1","false"
"null","","fixation","html-keyboard-response","150","385079","0.0-8.0-0.61","5f11f98efbaf2b0ef855ec6b","condA","","<div class=""vertical-center"" style='width:60%;'><p style='font-weight:bold;'>Does the middle word sound more like the first word (A) or the last word (B)?</p> <br> <div class=""container""> <div id=""a-box""> <p class=""title-text"">A</h3></p> </div> <div id=""x-box""> <p class=""title-text"">X<p> </div> <div id=""b-box""> <p class=""title-text"">B</p></div> <br> <div style='float: left;padding-left:30px;'><p>Press '1' for A</p></div><div style='float: right;padding-right:30px;'><p>Press '0' for B</p> </div> </div></div>","null","","","","","","","","","","","","","",""
"2409","","test","audio-keyboard-response","151","387490","0.0-8.0-1.61","5f11f98efbaf2b0ef855ec6b","condA","","resources/audio/wordStim/S9_AI_27_axb_Step-5.wav","49","","","","","AI","resources/audio/wordStim/S9_AI_27_axb_Step-5.wav","S9","27","axb","5","CN","0","1","false"
"null","","fixation","html-keyboard-response","152","388496","0.0-8.0-0.62","5f11f98efbaf2b0ef855ec6b","condA","","<div class=""vertical-center"" style='width:60%;'><p style='font-weight:bold;'>Does the middle word sound more like the first word (A) or the last word (B)?</p> <br> <div class=""container""> <div id=""a-box""> <p class=""title-text"">A</h3></p> </div> <div id=""x-box""> <p class=""title-text"">X<p> </div> <div id=""b-box""> <p class=""title-text"">B</p></div> <br> <div style='float: left;padding-left:30px;'><p>Press '1' for A</p></div><div style='float: right;padding-right:30px;'><p>Press '0' for B</p> </div> </div></div>","null","","","","","","","","","","","","","",""
"2380","","test","audio-keyboard-response","153","390878","0.0-8.0-1.62","5f11f98efbaf2b0ef855ec6b","condA","","resources/audio/wordStim/S3_AU_14_bxa_Step-8.wav","48","","","","","AU","resources/audio/wordStim/S3_AU_14_bxa_Step-8.wav","S3","14","bxa","8","MI","1","0","false"
"null","","fixation","html-keyboard-response","154","391881","0.0-8.0-0.63","5f11f98efbaf2b0ef855ec6b","condA","","<div class=""vertical-center"" style='width:60%;'><p style='font-weight:bold;'>Does the middle word sound more like the first word (A) or the last word (B)?</p> <br> <div class=""container""> <div id=""a-box""> <p class=""title-text"">A</h3></p> </div> <div id=""x-box""> <p class=""title-text"">X<p> </div> <div id=""b-box""> <p class=""title-text"">B</p></div> <br> <div style='float: left;padding-left:30px;'><p>Press '1' for A</p></div><div style='float: right;padding-right:30px;'><p>Press '0' for B</p> </div> </div></div>","null","","","","","","","","","","","","","",""
"2879","","test","audio-keyboard-response","155","394763","0.0-8.0-1.63","5f11f98efbaf2b0ef855ec6b","condA","","resources/audio/wordStim/S9_AU_11_bxa_Step-8.wav","49","","","","","AU","resources/audio/wordStim/S9_AU_11_bxa_Step-8.wav","S9","11","bxa","8","CN","1","1","true"
"null","","fixation","html-keyboard-response","156","395769","0.0-8.0-0.64","5f11f98efbaf2b0ef855ec6b","condA","","<div class=""vertical-center"" style='width:60%;'><p style='font-weight:bold;'>Does the middle word sound more like the first word (A) or the last word (B)?</p> <br> <div class=""container""> <div id=""a-box""> <p class=""title-text"">A</h3></p> </div> <div id=""x-box""> <p class=""title-text"">X<p> </div> <div id=""b-box""> <p class=""title-text"">B</p></div> <br> <div style='float: left;padding-left:30px;'><p>Press '1' for A</p></div><div style='float: right;padding-right:30px;'><p>Press '0' for B</p> </div> </div></div>","null","","","","","","","","","","","","","",""
"3088","","test","audio-keyboard-response","157","398863","0.0-8.0-1.64","5f11f98efbaf2b0ef855ec6b","condA","","resources/audio/wordStim/S9_AI_23_axb_Step-7.wav","49","","","","","AI","resources/audio/wordStim/S9_AI_23_axb_Step-7.wav","S9","23","axb","7","CN","0","1","false"
"null","","fixation","html-keyboard-response","158","399868","0.0-8.0-0.65","5f11f98efbaf2b0ef855ec6b","condA","","<div class=""vertical-center"" style='width:60%;'><p style='font-weight:bold;'>Does the middle word sound more like the first word (A) or the last word (B)?</p> <br> <div class=""container""> <div id=""a-box""> <p class=""title-text"">A</h3></p> </div> <div id=""x-box""> <p class=""title-text"">X<p> </div> <div id=""b-box""> <p class=""title-text"">B</p></div> <br> <div style='float: left;padding-left:30px;'><p>Press '1' for A</p></div><div style='float: right;padding-right:30px;'><p>Press '0' for B</p> </div> </div></div>","null","","","","","","","","","","","","","",""
"2949","","test","audio-keyboard-response","159","402819","0.0-8.0-1.65","5f11f98efbaf2b0ef855ec6b","condA","","resources/audio/wordStim/S9_AI_25_axb_Step-7.wav","49","","","","","AI","resources/audio/wordStim/S9_AI_25_axb_Step-7.wav","S9","25","axb","7","CN","0","1","false"
"null","","fixation","html-keyboard-response","160","403823","0.0-8.0-0.66","5f11f98efbaf2b0ef855ec6b","condA","","<div class=""vertical-center"" style='width:60%;'><p style='font-weight:bold;'>Does the middle word sound more like the first word (A) or the last word (B)?</p> <br> <div class=""container""> <div id=""a-box""> <p class=""title-text"">A</h3></p> </div> <div id=""x-box""> <p class=""title-text"">X<p> </div> <div id=""b-box""> <p class=""title-text"">B</p></div> <br> <div style='float: left;padding-left:30px;'><p>Press '1' for A</p></div><div style='float: right;padding-right:30px;'><p>Press '0' for B</p> </div> </div></div>","null","","","","","","","","","","","","","",""
"3245","","test","audio-keyboard-response","161","407069","0.0-8.0-1.66","5f11f98efbaf2b0ef855ec6b","condA","","resources/audio/wordStim/S9_AI_22_bxa_Step-4.wav","49","","","","","AI","resources/audio/wordStim/S9_AI_22_bxa_Step-4.wav","S9","22","bxa","4","CN","1","1","true"
"null","","fixation","html-keyboard-response","162","408073","0.0-8.0-0.67","5f11f98efbaf2b0ef855ec6b","condA","","<div class=""vertical-center"" style='width:60%;'><p style='font-weight:bold;'>Does the middle word sound more like the first word (A) or the last word (B)?</p> <br> <div class=""container""> <div id=""a-box""> <p class=""title-text"">A</h3></p> </div> <div id=""x-box""> <p class=""title-text"">X<p> </div> <div id=""b-box""> <p class=""title-text"">B</p></div> <br> <div style='float: left;padding-left:30px;'><p>Press '1' for A</p></div><div style='float: right;padding-right:30px;'><p>Press '0' for B</p> </div> </div></div>","null","","","","","","","","","","","","","",""
"3013","","test","audio-keyboard-response","163","411085","0.0-8.0-1.67","5f11f98efbaf2b0ef855ec6b","condA","","resources/audio/wordStim/S9_AI_29_bxa_Step-8.wav","48","","","","","AI","resources/audio/wordStim/S9_AI_29_bxa_Step-8.wav","S9","29","bxa","8","CN","1","0","false"
"null","","fixation","html-keyboard-response","164","412090","0.0-8.0-0.68","5f11f98efbaf2b0ef855ec6b","condA","","<div class=""vertical-center"" style='width:60%;'><p style='font-weight:bold;'>Does the middle word sound more like the first word (A) or the last word (B)?</p> <br> <div class=""container""> <div id=""a-box""> <p class=""title-text"">A</h3></p> </div> <div id=""x-box""> <p class=""title-text"">X<p> </div> <div id=""b-box""> <p class=""title-text"">B</p></div> <br> <div style='float: left;padding-left:30px;'><p>Press '1' for A</p></div><div style='float: right;padding-right:30px;'><p>Press '0' for B</p> </div> </div></div>","null","","","","","","","","","","","","","",""
"2897","","test","audio-keyboard-response","165","414988","0.0-8.0-1.68","5f11f98efbaf2b0ef855ec6b","condA","","resources/audio/wordStim/S3_AI_22_axb_Step-7.wav","48","","","","","AI","resources/audio/wordStim/S3_AI_22_axb_Step-7.wav","S3","22","axb","7","MI","0","0","true"
"null","","fixation","html-keyboard-response","166","415993","0.0-8.0-0.69","5f11f98efbaf2b0ef855ec6b","condA","","<div class=""vertical-center"" style='width:60%;'><p style='font-weight:bold;'>Does the middle word sound more like the first word (A) or the last word (B)?</p> <br> <div class=""container""> <div id=""a-box""> <p class=""title-text"">A</h3></p> </div> <div id=""x-box""> <p class=""title-text"">X<p> </div> <div id=""b-box""> <p class=""title-text"">B</p></div> <br> <div style='float: left;padding-left:30px;'><p>Press '1' for A</p></div><div style='float: right;padding-right:30px;'><p>Press '0' for B</p> </div> </div></div>","null","","","","","","","","","","","","","",""
"3100","","test","audio-keyboard-response","167","419099","0.0-8.0-1.69","5f11f98efbaf2b0ef855ec6b","condA","","resources/audio/wordStim/S3_AI_22_axb_Step-9.wav","49","","","","","AI","resources/audio/wordStim/S3_AI_22_axb_Step-9.wav","S3","22","axb","9","MI","0","1","false"
"null","","fixation","html-keyboard-response","168","420101","0.0-8.0-0.70","5f11f98efbaf2b0ef855ec6b","condA","","<div class=""vertical-center"" style='width:60%;'><p style='font-weight:bold;'>Does the middle word sound more like the first word (A) or the last word (B)?</p> <br> <div class=""container""> <div id=""a-box""> <p class=""title-text"">A</h3></p> </div> <div id=""x-box""> <p class=""title-text"">X<p> </div> <div id=""b-box""> <p class=""title-text"">B</p></div> <br> <div style='float: left;padding-left:30px;'><p>Press '1' for A</p></div><div style='float: right;padding-right:30px;'><p>Press '0' for B</p> </div> </div></div>","null","","","","","","","","","","","","","",""
"6066","","test","audio-keyboard-response","169","426168","0.0-8.0-1.70","5f11f98efbaf2b0ef855ec6b","condA","","resources/audio/wordStim/S3_AU_14_bxa_Step-2.wav","49","","","","","AU","resources/audio/wordStim/S3_AU_14_bxa_Step-2.wav","S3","14","bxa","2","MI","1","1","true"
"null","","fixation","html-keyboard-response","170","427173","0.0-8.0-0.71","5f11f98efbaf2b0ef855ec6b","condA","","<div class=""vertical-center"" style='width:60%;'><p style='font-weight:bold;'>Does the middle word sound more like the first word (A) or the last word (B)?</p> <br> <div class=""container""> <div id=""a-box""> <p class=""title-text"">A</h3></p> </div> <div id=""x-box""> <p class=""title-text"">X<p> </div> <div id=""b-box""> <p class=""title-text"">B</p></div> <br> <div style='float: left;padding-left:30px;'><p>Press '1' for A</p></div><div style='float: right;padding-right:30px;'><p>Press '0' for B</p> </div> </div></div>","null","","","","","","","","","","","","","",""
"3181","","test","audio-keyboard-response","171","430360","0.0-8.0-1.71","5f11f98efbaf2b0ef855ec6b","condA","","resources/audio/wordStim/S9_AU_16_bxa_Step-2.wav","48","","","","","AU","resources/audio/wordStim/S9_AU_16_bxa_Step-2.wav","S9","16","bxa","2","CN","1","0","false"
"null","","fixation","html-keyboard-response","172","431365","0.0-8.0-0.72","5f11f98efbaf2b0ef855ec6b","condA","","<div class=""vertical-center"" style='width:60%;'><p style='font-weight:bold;'>Does the middle word sound more like the first word (A) or the last word (B)?</p> <br> <div class=""container""> <div id=""a-box""> <p class=""title-text"">A</h3></p> </div> <div id=""x-box""> <p class=""title-text"">X<p> </div> <div id=""b-box""> <p class=""title-text"">B</p></div> <br> <div style='float: left;padding-left:30px;'><p>Press '1' for A</p></div><div style='float: right;padding-right:30px;'><p>Press '0' for B</p> </div> </div></div>","null","","","","","","","","","","","","","",""
"4058","","test","audio-keyboard-response","173","435425","0.0-8.0-1.72","5f11f98efbaf2b0ef855ec6b","condA","","resources/audio/wordStim/S9_AI_24_axb_Step-3.wav","49","","","","","AI","resources/audio/wordStim/S9_AI_24_axb_Step-3.wav","S9","24","axb","3","CN","0","1","false"
"null","","fixation","html-keyboard-response","174","436430","0.0-8.0-0.73","5f11f98efbaf2b0ef855ec6b","condA","","<div class=""vertical-center"" style='width:60%;'><p style='font-weight:bold;'>Does the middle word sound more like the first word (A) or the last word (B)?</p> <br> <div class=""container""> <div id=""a-box""> <p class=""title-text"">A</h3></p> </div> <div id=""x-box""> <p class=""title-text"">X<p> </div> <div id=""b-box""> <p class=""title-text"">B</p></div> <br> <div style='float: left;padding-left:30px;'><p>Press '1' for A</p></div><div style='float: right;padding-right:30px;'><p>Press '0' for B</p> </div> </div></div>","null","","","","","","","","","","","","","",""
"3007","","test","audio-keyboard-response","175","439436","0.0-8.0-1.73","5f11f98efbaf2b0ef855ec6b","condA","","resources/audio/wordStim/S9_AU_14_axb_Step-7.wav","49","","","","","AU","resources/audio/wordStim/S9_AU_14_axb_Step-7.wav","S9","14","axb","7","CN","0","1","false"
"null","","fixation","html-keyboard-response","176","440440","0.0-8.0-0.74","5f11f98efbaf2b0ef855ec6b","condA","","<div class=""vertical-center"" style='width:60%;'><p style='font-weight:bold;'>Does the middle word sound more like the first word (A) or the last word (B)?</p> <br> <div class=""container""> <div id=""a-box""> <p class=""title-text"">A</h3></p> </div> <div id=""x-box""> <p class=""title-text"">X<p> </div> <div id=""b-box""> <p class=""title-text"">B</p></div> <br> <div style='float: left;padding-left:30px;'><p>Press '1' for A</p></div><div style='float: right;padding-right:30px;'><p>Press '0' for B</p> </div> </div></div>","null","","","","","","","","","","","","","",""
"3825","","test","audio-keyboard-response","177","444266","0.0-8.0-1.74","5f11f98efbaf2b0ef855ec6b","condA","","resources/audio/wordStim/S9_AI_22_bxa_Step-6.wav","49","","","","","AI","resources/audio/wordStim/S9_AI_22_bxa_Step-6.wav","S9","22","bxa","6","CN","1","1","true"
"null","","fixation","html-keyboard-response","178","445270","0.0-8.0-0.75","5f11f98efbaf2b0ef855ec6b","condA","","<div class=""vertical-center"" style='width:60%;'><p style='font-weight:bold;'>Does the middle word sound more like the first word (A) or the last word (B)?</p> <br> <div class=""container""> <div id=""a-box""> <p class=""title-text"">A</h3></p> </div> <div id=""x-box""> <p class=""title-text"">X<p> </div> <div id=""b-box""> <p class=""title-text"">B</p></div> <br> <div style='float: left;padding-left:30px;'><p>Press '1' for A</p></div><div style='float: right;padding-right:30px;'><p>Press '0' for B</p> </div> </div></div>","null","","","","","","","","","","","","","",""
"3651","","test","audio-keyboard-response","179","448923","0.0-8.0-1.75","5f11f98efbaf2b0ef855ec6b","condA","","resources/audio/wordStim/S3_AU_20_axb_Step-9.wav","48","","","","","AU","resources/audio/wordStim/S3_AU_20_axb_Step-9.wav","S3","20","axb","9","MI","0","0","true"
"null","","fixation","html-keyboard-response","180","449925","0.0-8.0-0.76","5f11f98efbaf2b0ef855ec6b","condA","","<div class=""vertical-center"" style='width:60%;'><p style='font-weight:bold;'>Does the middle word sound more like the first word (A) or the last word (B)?</p> <br> <div class=""container""> <div id=""a-box""> <p class=""title-text"">A</h3></p> </div> <div id=""x-box""> <p class=""title-text"">X<p> </div> <div id=""b-box""> <p class=""title-text"">B</p></div> <br> <div style='float: left;padding-left:30px;'><p>Press '1' for A</p></div><div style='float: right;padding-right:30px;'><p>Press '0' for B</p> </div> </div></div>","null","","","","","","","","","","","","","",""
"3071","","test","audio-keyboard-response","181","452998","0.0-8.0-1.76","5f11f98efbaf2b0ef855ec6b","condA","","resources/audio/wordStim/S9_AU_20_axb_Step-7.wav","49","","","","","AU","resources/audio/wordStim/S9_AU_20_axb_Step-7.wav","S9","20","axb","7","CN","0","1","false"
"null","","fixation","html-keyboard-response","182","453999","0.0-8.0-0.77","5f11f98efbaf2b0ef855ec6b","condA","","<div class=""vertical-center"" style='width:60%;'><p style='font-weight:bold;'>Does the middle word sound more like the first word (A) or the last word (B)?</p> <br> <div class=""container""> <div id=""a-box""> <p class=""title-text"">A</h3></p> </div> <div id=""x-box""> <p class=""title-text"">X<p> </div> <div id=""b-box""> <p class=""title-text"">B</p></div> <br> <div style='float: left;padding-left:30px;'><p>Press '1' for A</p></div><div style='float: right;padding-right:30px;'><p>Press '0' for B</p> </div> </div></div>","null","","","","","","","","","","","","","",""
"2426","","test","audio-keyboard-response","183","456426","0.0-8.0-1.77","5f11f98efbaf2b0ef855ec6b","condA","","resources/audio/wordStim/S3_AU_14_bxa_Step-4.wav","49","","","","","AU","resources/audio/wordStim/S3_AU_14_bxa_Step-4.wav","S3","14","bxa","4","MI","1","1","true"
"null","","fixation","html-keyboard-response","184","457430","0.0-8.0-0.78","5f11f98efbaf2b0ef855ec6b","condA","","<div class=""vertical-center"" style='width:60%;'><p style='font-weight:bold;'>Does the middle word sound more like the first word (A) or the last word (B)?</p> <br> <div class=""container""> <div id=""a-box""> <p class=""title-text"">A</h3></p> </div> <div id=""x-box""> <p class=""title-text"">X<p> </div> <div id=""b-box""> <p class=""title-text"">B</p></div> <br> <div style='float: left;padding-left:30px;'><p>Press '1' for A</p></div><div style='float: right;padding-right:30px;'><p>Press '0' for B</p> </div> </div></div>","null","","","","","","","","","","","","","",""
"3558","","test","audio-keyboard-response","185","460989","0.0-8.0-1.78","5f11f98efbaf2b0ef855ec6b","condA","","resources/audio/wordStim/S3_AI_28_axb_Step-9.wav","49","","","","","AI","resources/audio/wordStim/S3_AI_28_axb_Step-9.wav","S3","28","axb","9","MI","0","1","false"
"null","","fixation","html-keyboard-response","186","461994","0.0-8.0-0.79","5f11f98efbaf2b0ef855ec6b","condA","","<div class=""vertical-center"" style='width:60%;'><p style='font-weight:bold;'>Does the middle word sound more like the first word (A) or the last word (B)?</p> <br> <div class=""container""> <div id=""a-box""> <p class=""title-text"">A</h3></p> </div> <div id=""x-box""> <p class=""title-text"">X<p> </div> <div id=""b-box""> <p class=""title-text"">B</p></div> <br> <div style='float: left;padding-left:30px;'><p>Press '1' for A</p></div><div style='float: right;padding-right:30px;'><p>Press '0' for B</p> </div> </div></div>","null","","","","","","","","","","","","","",""
"5265","","test","audio-keyboard-response","187","467259","0.0-8.0-1.79","5f11f98efbaf2b0ef855ec6b","condA","","resources/audio/wordStim/S9_AI_24_axb_Step-9.wav","48","","","","","AI","resources/audio/wordStim/S9_AI_24_axb_Step-9.wav","S9","24","axb","9","CN","0","0","true"
"null","","fixation","html-keyboard-response","188","468265","0.0-8.0-0.80","5f11f98efbaf2b0ef855ec6b","condA","","<div class=""vertical-center"" style='width:60%;'><p style='font-weight:bold;'>Does the middle word sound more like the first word (A) or the last word (B)?</p> <br> <div class=""container""> <div id=""a-box""> <p class=""title-text"">A</h3></p> </div> <div id=""x-box""> <p class=""title-text"">X<p> </div> <div id=""b-box""> <p class=""title-text"">B</p></div> <br> <div style='float: left;padding-left:30px;'><p>Press '1' for A</p></div><div style='float: right;padding-right:30px;'><p>Press '0' for B</p> </div> </div></div>","null","","","","","","","","","","","","","",""
"5137","","test","audio-keyboard-response","189","473407","0.0-8.0-1.80","5f11f98efbaf2b0ef855ec6b","condA","","resources/audio/wordStim/S3_AI_28_axb_Step-5.wav","49","","","","","AI","resources/audio/wordStim/S3_AI_28_axb_Step-5.wav","S3","28","axb","5","MI","0","1","false"
"2558.929999999935","","break","html-keyboard-response","190","476468","0.0-8.0-2.80-0.80","5f11f98efbaf2b0ef855ec6b","condA","","<div class=""vertical-center""><p>Feel free to take a break!</p><i>When you're ready to continue, press SPACE to begin the next trial.</i></p></div>","32","","","","","","","","","","","","","",""
"null","","fixation","html-keyboard-response","191","476970","0.0-8.0-0.81","5f11f98efbaf2b0ef855ec6b","condA","","<div class=""vertical-center"" style='width:60%;'><p style='font-weight:bold;'>Does the middle word sound more like the first word (A) or the last word (B)?</p> <br> <div class=""container""> <div id=""a-box""> <p class=""title-text"">A</h3></p> </div> <div id=""x-box""> <p class=""title-text"">X<p> </div> <div id=""b-box""> <p class=""title-text"">B</p></div> <br> <div style='float: left;padding-left:30px;'><p>Press '1' for A</p></div><div style='float: right;padding-right:30px;'><p>Press '0' for B</p> </div> </div></div>","null","","","","","","","","","","","","","",""
"2978","","test","audio-keyboard-response","192","479949","0.0-8.0-1.81","5f11f98efbaf2b0ef855ec6b","condA","","resources/audio/wordStim/S9_AU_19_axb_Step-9.wav","48","","","","","AU","resources/audio/wordStim/S9_AU_19_axb_Step-9.wav","S9","19","axb","9","CN","0","0","true"
"null","","fixation","html-keyboard-response","193","480954","0.0-8.0-0.82","5f11f98efbaf2b0ef855ec6b","condA","","<div class=""vertical-center"" style='width:60%;'><p style='font-weight:bold;'>Does the middle word sound more like the first word (A) or the last word (B)?</p> <br> <div class=""container""> <div id=""a-box""> <p class=""title-text"">A</h3></p> </div> <div id=""x-box""> <p class=""title-text"">X<p> </div> <div id=""b-box""> <p class=""title-text"">B</p></div> <br> <div style='float: left;padding-left:30px;'><p>Press '1' for A</p></div><div style='float: right;padding-right:30px;'><p>Press '0' for B</p> </div> </div></div>","null","","","","","","","","","","","","","",""
"2763","","test","audio-keyboard-response","194","483724","0.0-8.0-1.82","5f11f98efbaf2b0ef855ec6b","condA","","resources/audio/wordStim/S9_AU_17_bxa_Step-2.wav","48","","","","","AU","resources/audio/wordStim/S9_AU_17_bxa_Step-2.wav","S9","17","bxa","2","CN","1","0","false"
"null","","fixation","html-keyboard-response","195","484729","0.0-8.0-0.83","5f11f98efbaf2b0ef855ec6b","condA","","<div class=""vertical-center"" style='width:60%;'><p style='font-weight:bold;'>Does the middle word sound more like the first word (A) or the last word (B)?</p> <br> <div class=""container""> <div id=""a-box""> <p class=""title-text"">A</h3></p> </div> <div id=""x-box""> <p class=""title-text"">X<p> </div> <div id=""b-box""> <p class=""title-text"">B</p></div> <br> <div style='float: left;padding-left:30px;'><p>Press '1' for A</p></div><div style='float: right;padding-right:30px;'><p>Press '0' for B</p> </div> </div></div>","null","","","","","","","","","","","","","",""
"3791","","test","audio-keyboard-response","196","488522","0.0-8.0-1.83","5f11f98efbaf2b0ef855ec6b","condA","","resources/audio/wordStim/S9_AI_30_bxa_Step-8.wav","49","","","","","AI","resources/audio/wordStim/S9_AI_30_bxa_Step-8.wav","S9","30","bxa","8","CN","1","1","true"
"null","","fixation","html-keyboard-response","197","489526","0.0-8.0-0.84","5f11f98efbaf2b0ef855ec6b","condA","","<div class=""vertical-center"" style='width:60%;'><p style='font-weight:bold;'>Does the middle word sound more like the first word (A) or the last word (B)?</p> <br> <div class=""container""> <div id=""a-box""> <p class=""title-text"">A</h3></p> </div> <div id=""x-box""> <p class=""title-text"">X<p> </div> <div id=""b-box""> <p class=""title-text"">B</p></div> <br> <div style='float: left;padding-left:30px;'><p>Press '1' for A</p></div><div style='float: right;padding-right:30px;'><p>Press '0' for B</p> </div> </div></div>","null","","","","","","","","","","","","","",""
"2763","","test","audio-keyboard-response","198","492289","0.0-8.0-1.84","5f11f98efbaf2b0ef855ec6b","condA","","resources/audio/wordStim/S3_AI_30_axb_Step-10.wav","48","","","","","AI","resources/audio/wordStim/S3_AI_30_axb_Step-10.wav","S3","30","axb","10","MI","0","0","true"
"null","","fixation","html-keyboard-response","199","493292","0.0-8.0-0.85","5f11f98efbaf2b0ef855ec6b","condA","","<div class=""vertical-center"" style='width:60%;'><p style='font-weight:bold;'>Does the middle word sound more like the first word (A) or the last word (B)?</p> <br> <div class=""container""> <div id=""a-box""> <p class=""title-text"">A</h3></p> </div> <div id=""x-box""> <p class=""title-text"">X<p> </div> <div id=""b-box""> <p class=""title-text"">B</p></div> <br> <div style='float: left;padding-left:30px;'><p>Press '1' for A</p></div><div style='float: right;padding-right:30px;'><p>Press '0' for B</p> </div> </div></div>","null","","","","","","","","","","","","","",""
"3506","","test","audio-keyboard-response","200","496798","0.0-8.0-1.85","5f11f98efbaf2b0ef855ec6b","condA","","resources/audio/wordStim/S3_AU_18_bxa_Step-4.wav","49","","","","","AU","resources/audio/wordStim/S3_AU_18_bxa_Step-4.wav","S3","18","bxa","4","MI","1","1","true"
"null","","fixation","html-keyboard-response","201","497801","0.0-8.0-0.86","5f11f98efbaf2b0ef855ec6b","condA","","<div class=""vertical-center"" style='width:60%;'><p style='font-weight:bold;'>Does the middle word sound more like the first word (A) or the last word (B)?</p> <br> <div class=""container""> <div id=""a-box""> <p class=""title-text"">A</h3></p> </div> <div id=""x-box""> <p class=""title-text"">X<p> </div> <div id=""b-box""> <p class=""title-text"">B</p></div> <br> <div style='float: left;padding-left:30px;'><p>Press '1' for A</p></div><div style='float: right;padding-right:30px;'><p>Press '0' for B</p> </div> </div></div>","null","","","","","","","","","","","","","",""
"4760","","test","audio-keyboard-response","202","502564","0.0-8.0-1.86","5f11f98efbaf2b0ef855ec6b","condA","","resources/audio/wordStim/S9_AI_27_bxa_Step-2.wav","49","","","","","AI","resources/audio/wordStim/S9_AI_27_bxa_Step-2.wav","S9","27","bxa","2","CN","1","1","true"
"null","","fixation","html-keyboard-response","203","503568","0.0-8.0-0.87","5f11f98efbaf2b0ef855ec6b","condA","","<div class=""vertical-center"" style='width:60%;'><p style='font-weight:bold;'>Does the middle word sound more like the first word (A) or the last word (B)?</p> <br> <div class=""container""> <div id=""a-box""> <p class=""title-text"">A</h3></p> </div> <div id=""x-box""> <p class=""title-text"">X<p> </div> <div id=""b-box""> <p class=""title-text"">B</p></div> <br> <div style='float: left;padding-left:30px;'><p>Press '1' for A</p></div><div style='float: right;padding-right:30px;'><p>Press '0' for B</p> </div> </div></div>","null","","","","","","","","","","","","","",""
"2879","","test","audio-keyboard-response","204","506450","0.0-8.0-1.87","5f11f98efbaf2b0ef855ec6b","condA","","resources/audio/wordStim/S3_AI_30_axb_Step-7.wav","49","","","","","AI","resources/audio/wordStim/S3_AI_30_axb_Step-7.wav","S3","30","axb","7","MI","0","1","false"
"null","","fixation","html-keyboard-response","205","507454","0.0-8.0-0.88","5f11f98efbaf2b0ef855ec6b","condA","","<div class=""vertical-center"" style='width:60%;'><p style='font-weight:bold;'>Does the middle word sound more like the first word (A) or the last word (B)?</p> <br> <div class=""container""> <div id=""a-box""> <p class=""title-text"">A</h3></p> </div> <div id=""x-box""> <p class=""title-text"">X<p> </div> <div id=""b-box""> <p class=""title-text"">B</p></div> <br> <div style='float: left;padding-left:30px;'><p>Press '1' for A</p></div><div style='float: right;padding-right:30px;'><p>Press '0' for B</p> </div> </div></div>","null","","","","","","","","","","","","","",""
"2926","","test","audio-keyboard-response","206","510382","0.0-8.0-1.88","5f11f98efbaf2b0ef855ec6b","condA","","resources/audio/wordStim/S3_AU_16_axb_Step-10.wav","48","","","","","AU","resources/audio/wordStim/S3_AU_16_axb_Step-10.wav","S3","16","axb","10","MI","0","0","true"
"null","","fixation","html-keyboard-response","207","511387","0.0-8.0-0.89","5f11f98efbaf2b0ef855ec6b","condA","","<div class=""vertical-center"" style='width:60%;'><p style='font-weight:bold;'>Does the middle word sound more like the first word (A) or the last word (B)?</p> <br> <div class=""container""> <div id=""a-box""> <p class=""title-text"">A</h3></p> </div> <div id=""x-box""> <p class=""title-text"">X<p> </div> <div id=""b-box""> <p class=""title-text"">B</p></div> <br> <div style='float: left;padding-left:30px;'><p>Press '1' for A</p></div><div style='float: right;padding-right:30px;'><p>Press '0' for B</p> </div> </div></div>","null","","","","","","","","","","","","","",""
"2229","","test","audio-keyboard-response","208","513618","0.0-8.0-1.89","5f11f98efbaf2b0ef855ec6b","condA","","resources/audio/wordStim/S3_AI_21_axb_Step-10.wav","49","","","","","AI","resources/audio/wordStim/S3_AI_21_axb_Step-10.wav","S3","21","axb","10","MI","0","1","false"
"null","","fixation","html-keyboard-response","209","514623","0.0-8.0-0.90","5f11f98efbaf2b0ef855ec6b","condA","","<div class=""vertical-center"" style='width:60%;'><p style='font-weight:bold;'>Does the middle word sound more like the first word (A) or the last word (B)?</p> <br> <div class=""container""> <div id=""a-box""> <p class=""title-text"">A</h3></p> </div> <div id=""x-box""> <p class=""title-text"">X<p> </div> <div id=""b-box""> <p class=""title-text"">B</p></div> <br> <div style='float: left;padding-left:30px;'><p>Press '1' for A</p></div><div style='float: right;padding-right:30px;'><p>Press '0' for B</p> </div> </div></div>","null","","","","","","","","","","","","","",""
"3053","","test","audio-keyboard-response","210","517679","0.0-8.0-1.90","5f11f98efbaf2b0ef855ec6b","condA","","resources/audio/wordStim/S3_AU_17_axb_Step-9.wav","48","","","","","AU","resources/audio/wordStim/S3_AU_17_axb_Step-9.wav","S3","17","axb","9","MI","0","0","true"
"null","","fixation","html-keyboard-response","211","518684","0.0-8.0-0.91","5f11f98efbaf2b0ef855ec6b","condA","","<div class=""vertical-center"" style='width:60%;'><p style='font-weight:bold;'>Does the middle word sound more like the first word (A) or the last word (B)?</p> <br> <div class=""container""> <div id=""a-box""> <p class=""title-text"">A</h3></p> </div> <div id=""x-box""> <p class=""title-text"">X<p> </div> <div id=""b-box""> <p class=""title-text"">B</p></div> <br> <div style='float: left;padding-left:30px;'><p>Press '1' for A</p></div><div style='float: right;padding-right:30px;'><p>Press '0' for B</p> </div> </div></div>","null","","","","","","","","","","","","","",""
"2740","","test","audio-keyboard-response","212","521422","0.0-8.0-1.91","5f11f98efbaf2b0ef855ec6b","condA","","resources/audio/wordStim/S3_AU_16_axb_Step-3.wav","49","","","","","AU","resources/audio/wordStim/S3_AU_16_axb_Step-3.wav","S3","16","axb","3","MI","0","1","false"
"null","","fixation","html-keyboard-response","213","522426","0.0-8.0-0.92","5f11f98efbaf2b0ef855ec6b","condA","","<div class=""vertical-center"" style='width:60%;'><p style='font-weight:bold;'>Does the middle word sound more like the first word (A) or the last word (B)?</p> <br> <div class=""container""> <div id=""a-box""> <p class=""title-text"">A</h3></p> </div> <div id=""x-box""> <p class=""title-text"">X<p> </div> <div id=""b-box""> <p class=""title-text"">B</p></div> <br> <div style='float: left;padding-left:30px;'><p>Press '1' for A</p></div><div style='float: right;padding-right:30px;'><p>Press '0' for B</p> </div> </div></div>","null","","","","","","","","","","","","","",""
"3204","","test","audio-keyboard-response","214","525632","0.0-8.0-1.92","5f11f98efbaf2b0ef855ec6b","condA","","resources/audio/wordStim/S9_AU_11_axb_Step-5.wav","48","","","","","AU","resources/audio/wordStim/S9_AU_11_axb_Step-5.wav","S9","11","axb","5","CN","0","0","true"
