"rt","url","trial_role","trial_type","trial_index","time_elapsed","internal_node_id","participantId","condition","view_history","stimulus","key_press","button_pressed","correct_answer","correct_response","success","vowel","wordStim","speaker","sentNum","order","step","speakerIdentity","raised_answer","key_response","raised_response"
"8254.220000002533","micr.con.consent.html","consent","external-html","0","8366","0.0-0.0","5f13786da54419389fc40b64","condA","","","","","","","","","","","","","","","","",""
"19861.095000000205","","instructions","instructions","1","28233","0.0-1.0","5f13786da54419389fc40b64","condA","[{""page_index"":0,""viewing_time"":2551.180000009481},{""page_index"":1,""viewing_time"":15620.19499996677},{""page_index"":2,""viewing_time"":1687.8799999831244}]","","","","","","","","","","","","","","","",""
"null","","fixation","html-keyboard-response","2","28739","0.0-2.0-0.0","5f13786da54419389fc40b64","condA","","<div class=""vertical-center"" style=""font-size:60px;"">+</div>","null","","","","","","","","","","","","","",""
"5091.194999986328","","tonetest","audio-button-response","3","33835","0.0-2.0-1.0","5f13786da54419389fc40b64","condA","","../../src/audio/toneTest_6.wav","","0","0","true","","","","","","","","","","",""
"null","","fixation","html-keyboard-response","4","34345","0.0-2.0-0.1","5f13786da54419389fc40b64","condA","","<div class=""vertical-center"" style=""font-size:60px;"">+</div>","null","","","","","","","","","","","","","",""
"4457.5649999897","","tonetest","audio-button-response","5","38808","0.0-2.0-1.1","5f13786da54419389fc40b64","condA","","../../src/audio/toneTest_4.wav","","1","1","true","","","","","","","","","","",""
"null","","fixation","html-keyboard-response","6","39313","0.0-2.0-0.2","5f13786da54419389fc40b64","condA","","<div class=""vertical-center"" style=""font-size:60px;"">+</div>","null","","","","","","","","","","","","","",""
"4448.429999989457","","tonetest","audio-button-response","7","43764","0.0-2.0-1.2","5f13786da54419389fc40b64","condA","","../../src/audio/toneTest_6.wav","","0","0","true","","","","","","","","","","",""
"null","","fixation","html-keyboard-response","8","44268","0.0-2.0-0.3","5f13786da54419389fc40b64","condA","","<div class=""vertical-center"" style=""font-size:60px;"">+</div>","null","","","","","","","","","","","","","",""
"5047.120000002906","","tonetest","audio-button-response","9","49319","0.0-2.0-1.3","5f13786da54419389fc40b64","condA","","../../src/audio/toneTest_4.wav","","1","1","true","","","","","","","","","","",""
"null","","fixation","html-keyboard-response","10","49826","0.0-2.0-0.4","5f13786da54419389fc40b64","condA","","<div class=""vertical-center"" style=""font-size:60px;"">+</div>","null","","","","","","","","","","","","","",""
"4462.0649999706075","","tonetest","audio-button-response","11","54291","0.0-2.0-1.4","5f13786da54419389fc40b64","condA","","../../src/audio/toneTest_4.wav","","1","1","true","","","","","","","","","","",""
"null","","fixation","html-keyboard-response","12","54797","0.0-2.0-0.5","5f13786da54419389fc40b64","condA","","<div class=""vertical-center"" style=""font-size:60px;"">+</div>","null","","","","","","","","","","","","","",""
"4468.014999991283","","tonetest","audio-button-response","13","59269","0.0-2.0-1.5","5f13786da54419389fc40b64","condA","","../../src/audio/toneTest_4.wav","","1","1","true","","","","","","","","","","",""
"2929.8900000285357","","instructions","html-keyboard-response","14","62203","0.0-3.0","5f13786da54419389fc40b64","condA","","<div class=""vertical-center""><p><b>Your score was 6/6.</b></p><p>If you scored below 6, please ensure that you are wearing headphones and in a quiet location free of distractions.</p><p><i>To continue to the main experiment, press SPACE.</i></p></div>","32","","","","","","","","","","","","","",""
"","","","fullscreen","15","65564","0.0-4.0","5f13786da54419389fc40b64","condA","","","","","","","true","","","","","","","","","",""
"38544.69499998959","","instructions","instructions","16","104110","0.0-5.0","5f13786da54419389fc40b64","condA","[{""page_index"":0,""viewing_time"":38544.504999998026}]","","","","","","","","","","","","","","","",""
"null","","fixation","html-keyboard-response","17","104615","0.0-6.0-0.0","5f13786da54419389fc40b64","condA","","<div class=""vertical-center"" style='width:60%;'><p style='font-weight:bold;'>Does the middle word sound more like the first word (A) or the last word (B)?</p> <br> <div class=""container""> <div id=""a-box""> <p class=""title-text"">A</h3></p> </div> <div id=""x-box""> <p class=""title-text"">X<p> </div> <div id=""b-box""> <p class=""title-text"">B</p></div> <br> <div style='float: left;padding-left:30px;'><p>Press '1' for A</p></div><div style='float: right;padding-right:30px;'><p>Press '0' for B</p> </div> </div></div>","null","","","","","","","","","","","","","",""
"31939","","practice","audio-keyboard-response","18","136709","0.0-6.0-1.0","5f13786da54419389fc40b64","condA","","resources/audio/practiceStim/S1_AI_21_bxa_Step-6.wav","49","","","","","","","","","","","","","",""
"null","","fixation","html-keyboard-response","19","137714","0.0-6.0-0.1","5f13786da54419389fc40b64","condA","","<div class=""vertical-center"" style='width:60%;'><p style='font-weight:bold;'>Does the middle word sound more like the first word (A) or the last word (B)?</p> <br> <div class=""container""> <div id=""a-box""> <p class=""title-text"">A</h3></p> </div> <div id=""x-box""> <p class=""title-text"">X<p> </div> <div id=""b-box""> <p class=""title-text"">B</p></div> <br> <div style='float: left;padding-left:30px;'><p>Press '1' for A</p></div><div style='float: right;padding-right:30px;'><p>Press '0' for B</p> </div> </div></div>","null","","","","","","","","","","","","","",""
"6960","","practice","audio-keyboard-response","20","144681","0.0-6.0-1.1","5f13786da54419389fc40b64","condA","","resources/audio/practiceStim/S1_AU_14_axb_Step-6.wav","49","","","","","","","","","","","","","",""
"null","","fixation","html-keyboard-response","21","145688","0.0-6.0-0.2","5f13786da54419389fc40b64","condA","","<div class=""vertical-center"" style='width:60%;'><p style='font-weight:bold;'>Does the middle word sound more like the first word (A) or the last word (B)?</p> <br> <div class=""container""> <div id=""a-box""> <p class=""title-text"">A</h3></p> </div> <div id=""x-box""> <p class=""title-text"">X<p> </div> <div id=""b-box""> <p class=""title-text"">B</p></div> <br> <div style='float: left;padding-left:30px;'><p>Press '1' for A</p></div><div style='float: right;padding-right:30px;'><p>Press '0' for B</p> </div> </div></div>","null","","","","","","","","","","","","","",""
"3910","","practice","audio-keyboard-response","22","149603","0.0-6.0-1.2","5f13786da54419389fc40b64","condA","","resources/audio/practiceStim/S1_AI_21_axb_Step-6.wav","49","","","","","","","","","","","","","",""
"null","","fixation","html-keyboard-response","23","150611","0.0-6.0-0.3","5f13786da54419389fc40b64","condA","","<div class=""vertical-center"" style='width:60%;'><p style='font-weight:bold;'>Does the middle word sound more like the first word (A) or the last word (B)?</p> <br> <div class=""container""> <div id=""a-box""> <p class=""title-text"">A</h3></p> </div> <div id=""x-box""> <p class=""title-text"">X<p> </div> <div id=""b-box""> <p class=""title-text"">B</p></div> <br> <div style='float: left;padding-left:30px;'><p>Press '1' for A</p></div><div style='float: right;padding-right:30px;'><p>Press '0' for B</p> </div> </div></div>","null","","","","","","","","","","","","","",""
"4090","","practice","audio-keyboard-response","24","154705","0.0-6.0-1.3","5f13786da54419389fc40b64","condA","","resources/audio/practiceStim/S1_AU_14_bxa_Step-6.wav","49","","","","","","","","","","","","","",""
"2109.2800000333227","","instructions","instructions","25","157318","0.0-7.0","5f13786da54419389fc40b64","condA","[{""page_index"":0,""viewing_time"":2108.910000009928}]","","","","","","","","","","","","","","","",""
"null","","fixation","html-keyboard-response","26","157822","0.0-8.0-0.0","5f13786da54419389fc40b64","condA","","<div class=""vertical-center"" style='width:60%;'><p style='font-weight:bold;'>Does the middle word sound more like the first word (A) or the last word (B)?</p> <br> <div class=""container""> <div id=""a-box""> <p class=""title-text"">A</h3></p> </div> <div id=""x-box""> <p class=""title-text"">X<p> </div> <div id=""b-box""> <p class=""title-text"">B</p></div> <br> <div style='float: left;padding-left:30px;'><p>Press '1' for A</p></div><div style='float: right;padding-right:30px;'><p>Press '0' for B</p> </div> </div></div>","null","","","","","","","","","","","","","",""
"3431","","test","audio-keyboard-response","27","161246","0.0-8.0-1.0","5f13786da54419389fc40b64","condA","","resources/audio/wordStim/S9_AU_13_axb_Step-5.wav","49","","","","","AU","resources/audio/wordStim/S9_AU_13_axb_Step-5.wav","S9","13","axb","5","CN","0","1","false"
"null","","fixation","html-keyboard-response","28","162254","0.0-8.0-0.1","5f13786da54419389fc40b64","condA","","<div class=""vertical-center"" style='width:60%;'><p style='font-weight:bold;'>Does the middle word sound more like the first word (A) or the last word (B)?</p> <br> <div class=""container""> <div id=""a-box""> <p class=""title-text"">A</h3></p> </div> <div id=""x-box""> <p class=""title-text"">X<p> </div> <div id=""b-box""> <p class=""title-text"">B</p></div> <br> <div style='float: left;padding-left:30px;'><p>Press '1' for A</p></div><div style='float: right;padding-right:30px;'><p>Press '0' for B</p> </div> </div></div>","null","","","","","","","","","","","","","",""
"4818","","test","audio-keyboard-response","29","167083","0.0-8.0-1.1","5f13786da54419389fc40b64","condA","","resources/audio/wordStim/S9_AI_29_bxa_Step-8.wav","49","","","","","AI","resources/audio/wordStim/S9_AI_29_bxa_Step-8.wav","S9","29","bxa","8","CN","1","1","true"
"null","","fixation","html-keyboard-response","30","168089","0.0-8.0-0.2","5f13786da54419389fc40b64","condA","","<div class=""vertical-center"" style='width:60%;'><p style='font-weight:bold;'>Does the middle word sound more like the first word (A) or the last word (B)?</p> <br> <div class=""container""> <div id=""a-box""> <p class=""title-text"">A</h3></p> </div> <div id=""x-box""> <p class=""title-text"">X<p> </div> <div id=""b-box""> <p class=""title-text"">B</p></div> <br> <div style='float: left;padding-left:30px;'><p>Press '1' for A</p></div><div style='float: right;padding-right:30px;'><p>Press '0' for B</p> </div> </div></div>","null","","","","","","","","","","","","","",""
"3402","","test","audio-keyboard-response","31","171484","0.0-8.0-1.2","5f13786da54419389fc40b64","condA","","resources/audio/wordStim/S3_AU_15_axb_Step-5.wav","49","","","","","AU","resources/audio/wordStim/S3_AU_15_axb_Step-5.wav","S3","15","axb","5","MI","0","1","false"
"null","","fixation","html-keyboard-response","32","172489","0.0-8.0-0.3","5f13786da54419389fc40b64","condA","","<div class=""vertical-center"" style='width:60%;'><p style='font-weight:bold;'>Does the middle word sound more like the first word (A) or the last word (B)?</p> <br> <div class=""container""> <div id=""a-box""> <p class=""title-text"">A</h3></p> </div> <div id=""x-box""> <p class=""title-text"">X<p> </div> <div id=""b-box""> <p class=""title-text"">B</p></div> <br> <div style='float: left;padding-left:30px;'><p>Press '1' for A</p></div><div style='float: right;padding-right:30px;'><p>Press '0' for B</p> </div> </div></div>","null","","","","","","","","","","","","","",""
"10701","","test","audio-keyboard-response","33","183190","0.0-8.0-1.3","5f13786da54419389fc40b64","condA","","resources/audio/wordStim/S3_AU_20_bxa_Step-8.wav","48","","","","","AU","resources/audio/wordStim/S3_AU_20_bxa_Step-8.wav","S3","20","bxa","8","MI","1","0","false"
"null","","fixation","html-keyboard-response","34","184200","0.0-8.0-0.4","5f13786da54419389fc40b64","condA","","<div class=""vertical-center"" style='width:60%;'><p style='font-weight:bold;'>Does the middle word sound more like the first word (A) or the last word (B)?</p> <br> <div class=""container""> <div id=""a-box""> <p class=""title-text"">A</h3></p> </div> <div id=""x-box""> <p class=""title-text"">X<p> </div> <div id=""b-box""> <p class=""title-text"">B</p></div> <br> <div style='float: left;padding-left:30px;'><p>Press '1' for A</p></div><div style='float: right;padding-right:30px;'><p>Press '0' for B</p> </div> </div></div>","null","","","","","","","","","","","","","",""
"3030","","test","audio-keyboard-response","35","187228","0.0-8.0-1.4","5f13786da54419389fc40b64","condA","","resources/audio/wordStim/S3_AU_14_axb_Step-9.wav","49","","","","","AU","resources/audio/wordStim/S3_AU_14_axb_Step-9.wav","S3","14","axb","9","MI","0","1","false"
"null","","fixation","html-keyboard-response","36","188234","0.0-8.0-0.5","5f13786da54419389fc40b64","condA","","<div class=""vertical-center"" style='width:60%;'><p style='font-weight:bold;'>Does the middle word sound more like the first word (A) or the last word (B)?</p> <br> <div class=""container""> <div id=""a-box""> <p class=""title-text"">A</h3></p> </div> <div id=""x-box""> <p class=""title-text"">X<p> </div> <div id=""b-box""> <p class=""title-text"">B</p></div> <br> <div style='float: left;padding-left:30px;'><p>Press '1' for A</p></div><div style='float: right;padding-right:30px;'><p>Press '0' for B</p> </div> </div></div>","null","","","","","","","","","","","","","",""
"4029","","test","audio-keyboard-response","37","192269","0.0-8.0-1.5","5f13786da54419389fc40b64","condA","","resources/audio/wordStim/S3_AU_14_bxa_Step-6.wav","48","","","","","AU","resources/audio/wordStim/S3_AU_14_bxa_Step-6.wav","S3","14","bxa","6","MI","1","0","false"
"null","","fixation","html-keyboard-response","38","193275","0.0-8.0-0.6","5f13786da54419389fc40b64","condA","","<div class=""vertical-center"" style='width:60%;'><p style='font-weight:bold;'>Does the middle word sound more like the first word (A) or the last word (B)?</p> <br> <div class=""container""> <div id=""a-box""> <p class=""title-text"">A</h3></p> </div> <div id=""x-box""> <p class=""title-text"">X<p> </div> <div id=""b-box""> <p class=""title-text"">B</p></div> <br> <div style='float: left;padding-left:30px;'><p>Press '1' for A</p></div><div style='float: right;padding-right:30px;'><p>Press '0' for B</p> </div> </div></div>","null","","","","","","","","","","","","","",""
"4661","","test","audio-keyboard-response","39","197944","0.0-8.0-1.6","5f13786da54419389fc40b64","condA","","resources/audio/wordStim/S9_AI_24_bxa_Step-2.wav","48","","","","","AI","resources/audio/wordStim/S9_AI_24_bxa_Step-2.wav","S9","24","bxa","2","CN","1","0","false"
"null","","fixation","html-keyboard-response","40","198950","0.0-8.0-0.7","5f13786da54419389fc40b64","condA","","<div class=""vertical-center"" style='width:60%;'><p style='font-weight:bold;'>Does the middle word sound more like the first word (A) or the last word (B)?</p> <br> <div class=""container""> <div id=""a-box""> <p class=""title-text"">A</h3></p> </div> <div id=""x-box""> <p class=""title-text"">X<p> </div> <div id=""b-box""> <p class=""title-text"">B</p></div> <br> <div style='float: left;padding-left:30px;'><p>Press '1' for A</p></div><div style='float: right;padding-right:30px;'><p>Press '0' for B</p> </div> </div></div>","null","","","","","","","","","","","","","",""
"3399","","test","audio-keyboard-response","41","202349","0.0-8.0-1.7","5f13786da54419389fc40b64","condA","","resources/audio/wordStim/S3_AI_25_axb_Step-9.wav","49","","","","","AI","resources/audio/wordStim/S3_AI_25_axb_Step-9.wav","S3","25","axb","9","MI","0","1","false"
"null","","fixation","html-keyboard-response","42","203354","0.0-8.0-0.8","5f13786da54419389fc40b64","condA","","<div class=""vertical-center"" style='width:60%;'><p style='font-weight:bold;'>Does the middle word sound more like the first word (A) or the last word (B)?</p> <br> <div class=""container""> <div id=""a-box""> <p class=""title-text"">A</h3></p> </div> <div id=""x-box""> <p class=""title-text"">X<p> </div> <div id=""b-box""> <p class=""title-text"">B</p></div> <br> <div style='float: left;padding-left:30px;'><p>Press '1' for A</p></div><div style='float: right;padding-right:30px;'><p>Press '0' for B</p> </div> </div></div>","null","","","","","","","","","","","","","",""
"3689","","test","audio-keyboard-response","43","207048","0.0-8.0-1.8","5f13786da54419389fc40b64","condA","","resources/audio/wordStim/S3_AI_28_bxa_Step-4.wav","49","","","","","AI","resources/audio/wordStim/S3_AI_28_bxa_Step-4.wav","S3","28","bxa","4","MI","1","1","true"
"null","","fixation","html-keyboard-response","44","208053","0.0-8.0-0.9","5f13786da54419389fc40b64","condA","","<div class=""vertical-center"" style='width:60%;'><p style='font-weight:bold;'>Does the middle word sound more like the first word (A) or the last word (B)?</p> <br> <div class=""container""> <div id=""a-box""> <p class=""title-text"">A</h3></p> </div> <div id=""x-box""> <p class=""title-text"">X<p> </div> <div id=""b-box""> <p class=""title-text"">B</p></div> <br> <div style='float: left;padding-left:30px;'><p>Press '1' for A</p></div><div style='float: right;padding-right:30px;'><p>Press '0' for B</p> </div> </div></div>","null","","","","","","","","","","","","","",""
"2871","","test","audio-keyboard-response","45","210932","0.0-8.0-1.9","5f13786da54419389fc40b64","condA","","resources/audio/wordStim/S3_AU_14_bxa_Step-2.wav","48","","","","","AU","resources/audio/wordStim/S3_AU_14_bxa_Step-2.wav","S3","14","bxa","2","MI","1","0","false"
"null","","fixation","html-keyboard-response","46","211939","0.0-8.0-0.10","5f13786da54419389fc40b64","condA","","<div class=""vertical-center"" style='width:60%;'><p style='font-weight:bold;'>Does the middle word sound more like the first word (A) or the last word (B)?</p> <br> <div class=""container""> <div id=""a-box""> <p class=""title-text"">A</h3></p> </div> <div id=""x-box""> <p class=""title-text"">X<p> </div> <div id=""b-box""> <p class=""title-text"">B</p></div> <br> <div style='float: left;padding-left:30px;'><p>Press '1' for A</p></div><div style='float: right;padding-right:30px;'><p>Press '0' for B</p> </div> </div></div>","null","","","","","","","","","","","","","",""
"3419","","test","audio-keyboard-response","47","215365","0.0-8.0-1.10","5f13786da54419389fc40b64","condA","","resources/audio/wordStim/S9_AU_16_axb_Step-10.wav","48","","","","","AU","resources/audio/wordStim/S9_AU_16_axb_Step-10.wav","S9","16","axb","10","CN","0","0","true"
"null","","fixation","html-keyboard-response","48","216369","0.0-8.0-0.11","5f13786da54419389fc40b64","condA","","<div class=""vertical-center"" style='width:60%;'><p style='font-weight:bold;'>Does the middle word sound more like the first word (A) or the last word (B)?</p> <br> <div class=""container""> <div id=""a-box""> <p class=""title-text"">A</h3></p> </div> <div id=""x-box""> <p class=""title-text"">X<p> </div> <div id=""b-box""> <p class=""title-text"">B</p></div> <br> <div style='float: left;padding-left:30px;'><p>Press '1' for A</p></div><div style='float: right;padding-right:30px;'><p>Press '0' for B</p> </div> </div></div>","null","","","","","","","","","","","","","",""
"7843","","test","audio-keyboard-response","49","224210","0.0-8.0-1.11","5f13786da54419389fc40b64","condA","","resources/audio/wordStim/S9_AI_29_axb_Step-9.wav","48","","","","","AI","resources/audio/wordStim/S9_AI_29_axb_Step-9.wav","S9","29","axb","9","CN","0","0","true"
"null","","fixation","html-keyboard-response","50","225215","0.0-8.0-0.12","5f13786da54419389fc40b64","condA","","<div class=""vertical-center"" style='width:60%;'><p style='font-weight:bold;'>Does the middle word sound more like the first word (A) or the last word (B)?</p> <br> <div class=""container""> <div id=""a-box""> <p class=""title-text"">A</h3></p> </div> <div id=""x-box""> <p class=""title-text"">X<p> </div> <div id=""b-box""> <p class=""title-text"">B</p></div> <br> <div style='float: left;padding-left:30px;'><p>Press '1' for A</p></div><div style='float: right;padding-right:30px;'><p>Press '0' for B</p> </div> </div></div>","null","","","","","","","","","","","","","",""
"3448","","test","audio-keyboard-response","51","228669","0.0-8.0-1.12","5f13786da54419389fc40b64","condA","","resources/audio/wordStim/S3_AU_18_axb_Step-3.wav","49","","","","","AU","resources/audio/wordStim/S3_AU_18_axb_Step-3.wav","S3","18","axb","3","MI","0","1","false"
"null","","fixation","html-keyboard-response","52","229678","0.0-8.0-0.13","5f13786da54419389fc40b64","condA","","<div class=""vertical-center"" style='width:60%;'><p style='font-weight:bold;'>Does the middle word sound more like the first word (A) or the last word (B)?</p> <br> <div class=""container""> <div id=""a-box""> <p class=""title-text"">A</h3></p> </div> <div id=""x-box""> <p class=""title-text"">X<p> </div> <div id=""b-box""> <p class=""title-text"">B</p></div> <br> <div style='float: left;padding-left:30px;'><p>Press '1' for A</p></div><div style='float: right;padding-right:30px;'><p>Press '0' for B</p> </div> </div></div>","null","","","","","","","","","","","","","",""
"3361","","test","audio-keyboard-response","53","233044","0.0-8.0-1.13","5f13786da54419389fc40b64","condA","","resources/audio/wordStim/S9_AU_17_bxa_Step-4.wav","48","","","","","AU","resources/audio/wordStim/S9_AU_17_bxa_Step-4.wav","S9","17","bxa","4","CN","1","0","false"
"null","","fixation","html-keyboard-response","54","234052","0.0-8.0-0.14","5f13786da54419389fc40b64","condA","","<div class=""vertical-center"" style='width:60%;'><p style='font-weight:bold;'>Does the middle word sound more like the first word (A) or the last word (B)?</p> <br> <div class=""container""> <div id=""a-box""> <p class=""title-text"">A</h3></p> </div> <div id=""x-box""> <p class=""title-text"">X<p> </div> <div id=""b-box""> <p class=""title-text"">B</p></div> <br> <div style='float: left;padding-left:30px;'><p>Press '1' for A</p></div><div style='float: right;padding-right:30px;'><p>Press '0' for B</p> </div> </div></div>","null","","","","","","","","","","","","","",""
"5149","","test","audio-keyboard-response","55","239202","0.0-8.0-1.14","5f13786da54419389fc40b64","condA","","resources/audio/wordStim/S9_AI_29_bxa_Step-4.wav","49","","","","","AI","resources/audio/wordStim/S9_AI_29_bxa_Step-4.wav","S9","29","bxa","4","CN","1","1","true"
"null","","fixation","html-keyboard-response","56","240213","0.0-8.0-0.15","5f13786da54419389fc40b64","condA","","<div class=""vertical-center"" style='width:60%;'><p style='font-weight:bold;'>Does the middle word sound more like the first word (A) or the last word (B)?</p> <br> <div class=""container""> <div id=""a-box""> <p class=""title-text"">A</h3></p> </div> <div id=""x-box""> <p class=""title-text"">X<p> </div> <div id=""b-box""> <p class=""title-text"">B</p></div> <br> <div style='float: left;padding-left:30px;'><p>Press '1' for A</p></div><div style='float: right;padding-right:30px;'><p>Press '0' for B</p> </div> </div></div>","null","","","","","","","","","","","","","",""
"3590","","test","audio-keyboard-response","57","243799","0.0-8.0-1.15","5f13786da54419389fc40b64","condA","","resources/audio/wordStim/S3_AU_15_axb_Step-9.wav","48","","","","","AU","resources/audio/wordStim/S3_AU_15_axb_Step-9.wav","S3","15","axb","9","MI","0","0","true"
"null","","fixation","html-keyboard-response","58","244805","0.0-8.0-0.16","5f13786da54419389fc40b64","condA","","<div class=""vertical-center"" style='width:60%;'><p style='font-weight:bold;'>Does the middle word sound more like the first word (A) or the last word (B)?</p> <br> <div class=""container""> <div id=""a-box""> <p class=""title-text"">A</h3></p> </div> <div id=""x-box""> <p class=""title-text"">X<p> </div> <div id=""b-box""> <p class=""title-text"">B</p></div> <br> <div style='float: left;padding-left:30px;'><p>Press '1' for A</p></div><div style='float: right;padding-right:30px;'><p>Press '0' for B</p> </div> </div></div>","null","","","","","","","","","","","","","",""
"3230","","test","audio-keyboard-response","59","248040","0.0-8.0-1.16","5f13786da54419389fc40b64","condA","","resources/audio/wordStim/S9_AI_27_bxa_Step-4.wav","48","","","","","AI","resources/audio/wordStim/S9_AI_27_bxa_Step-4.wav","S9","27","bxa","4","CN","1","0","false"
"null","","fixation","html-keyboard-response","60","249048","0.0-8.0-0.17","5f13786da54419389fc40b64","condA","","<div class=""vertical-center"" style='width:60%;'><p style='font-weight:bold;'>Does the middle word sound more like the first word (A) or the last word (B)?</p> <br> <div class=""container""> <div id=""a-box""> <p class=""title-text"">A</h3></p> </div> <div id=""x-box""> <p class=""title-text"">X<p> </div> <div id=""b-box""> <p class=""title-text"">B</p></div> <br> <div style='float: left;padding-left:30px;'><p>Press '1' for A</p></div><div style='float: right;padding-right:30px;'><p>Press '0' for B</p> </div> </div></div>","null","","","","","","","","","","","","","",""
"6089","","test","audio-keyboard-response","61","255142","0.0-8.0-1.17","5f13786da54419389fc40b64","condA","","resources/audio/wordStim/S9_AU_11_axb_Step-7.wav","49","","","","","AU","resources/audio/wordStim/S9_AU_11_axb_Step-7.wav","S9","11","axb","7","CN","0","1","false"
"null","","fixation","html-keyboard-response","62","256147","0.0-8.0-0.18","5f13786da54419389fc40b64","condA","","<div class=""vertical-center"" style='width:60%;'><p style='font-weight:bold;'>Does the middle word sound more like the first word (A) or the last word (B)?</p> <br> <div class=""container""> <div id=""a-box""> <p class=""title-text"">A</h3></p> </div> <div id=""x-box""> <p class=""title-text"">X<p> </div> <div id=""b-box""> <p class=""title-text"">B</p></div> <br> <div style='float: left;padding-left:30px;'><p>Press '1' for A</p></div><div style='float: right;padding-right:30px;'><p>Press '0' for B</p> </div> </div></div>","null","","","","","","","","","","","","","",""
"3570","","test","audio-keyboard-response","63","259720","0.0-8.0-1.18","5f13786da54419389fc40b64","condA","","resources/audio/wordStim/S3_AU_15_bxa_Step-6.wav","49","","","","","AU","resources/audio/wordStim/S3_AU_15_bxa_Step-6.wav","S3","15","bxa","6","MI","1","1","true"
"null","","fixation","html-keyboard-response","64","260724","0.0-8.0-0.19","5f13786da54419389fc40b64","condA","","<div class=""vertical-center"" style='width:60%;'><p style='font-weight:bold;'>Does the middle word sound more like the first word (A) or the last word (B)?</p> <br> <div class=""container""> <div id=""a-box""> <p class=""title-text"">A</h3></p> </div> <div id=""x-box""> <p class=""title-text"">X<p> </div> <div id=""b-box""> <p class=""title-text"">B</p></div> <br> <div style='float: left;padding-left:30px;'><p>Press '1' for A</p></div><div style='float: right;padding-right:30px;'><p>Press '0' for B</p> </div> </div></div>","null","","","","","","","","","","","","","",""
"3361","","test","audio-keyboard-response","65","264079","0.0-8.0-1.19","5f13786da54419389fc40b64","condA","","resources/audio/wordStim/S9_AU_11_bxa_Step-2.wav","49","","","","","AU","resources/audio/wordStim/S9_AU_11_bxa_Step-2.wav","S9","11","bxa","2","CN","1","1","true"
"null","","fixation","html-keyboard-response","66","265086","0.0-8.0-0.20","5f13786da54419389fc40b64","condA","","<div class=""vertical-center"" style='width:60%;'><p style='font-weight:bold;'>Does the middle word sound more like the first word (A) or the last word (B)?</p> <br> <div class=""container""> <div id=""a-box""> <p class=""title-text"">A</h3></p> </div> <div id=""x-box""> <p class=""title-text"">X<p> </div> <div id=""b-box""> <p class=""title-text"">B</p></div> <br> <div style='float: left;padding-left:30px;'><p>Press '1' for A</p></div><div style='float: right;padding-right:30px;'><p>Press '0' for B</p> </div> </div></div>","null","","","","","","","","","","","","","",""
"3181","","test","audio-keyboard-response","67","268269","0.0-8.0-1.20","5f13786da54419389fc40b64","condA","","resources/audio/wordStim/S9_AI_24_axb_Step-5.wav","49","","","","","AI","resources/audio/wordStim/S9_AI_24_axb_Step-5.wav","S9","24","axb","5","CN","0","1","false"
"null","","fixation","html-keyboard-response","68","269281","0.0-8.0-0.21","5f13786da54419389fc40b64","condA","","<div class=""vertical-center"" style='width:60%;'><p style='font-weight:bold;'>Does the middle word sound more like the first word (A) or the last word (B)?</p> <br> <div class=""container""> <div id=""a-box""> <p class=""title-text"">A</h3></p> </div> <div id=""x-box""> <p class=""title-text"">X<p> </div> <div id=""b-box""> <p class=""title-text"">B</p></div> <br> <div style='float: left;padding-left:30px;'><p>Press '1' for A</p></div><div style='float: right;padding-right:30px;'><p>Press '0' for B</p> </div> </div></div>","null","","","","","","","","","","","","","",""
"2560","","test","audio-keyboard-response","69","271841","0.0-8.0-1.21","5f13786da54419389fc40b64","condA","","resources/audio/wordStim/S3_AU_14_axb_Step-5.wav","48","","","","","AU","resources/audio/wordStim/S3_AU_14_axb_Step-5.wav","S3","14","axb","5","MI","0","0","true"
"null","","fixation","html-keyboard-response","70","272846","0.0-8.0-0.22","5f13786da54419389fc40b64","condA","","<div class=""vertical-center"" style='width:60%;'><p style='font-weight:bold;'>Does the middle word sound more like the first word (A) or the last word (B)?</p> <br> <div class=""container""> <div id=""a-box""> <p class=""title-text"">A</h3></p> </div> <div id=""x-box""> <p class=""title-text"">X<p> </div> <div id=""b-box""> <p class=""title-text"">B</p></div> <br> <div style='float: left;padding-left:30px;'><p>Press '1' for A</p></div><div style='float: right;padding-right:30px;'><p>Press '0' for B</p> </div> </div></div>","null","","","","","","","","","","","","","",""
"4049","","test","audio-keyboard-response","71","276897","0.0-8.0-1.22","5f13786da54419389fc40b64","condA","","resources/audio/wordStim/S3_AU_20_axb_Step-9.wav","48","","","","","AU","resources/audio/wordStim/S3_AU_20_axb_Step-9.wav","S3","20","axb","9","MI","0","0","true"
"null","","fixation","html-keyboard-response","72","277908","0.0-8.0-0.23","5f13786da54419389fc40b64","condA","","<div class=""vertical-center"" style='width:60%;'><p style='font-weight:bold;'>Does the middle word sound more like the first word (A) or the last word (B)?</p> <br> <div class=""container""> <div id=""a-box""> <p class=""title-text"">A</h3></p> </div> <div id=""x-box""> <p class=""title-text"">X<p> </div> <div id=""b-box""> <p class=""title-text"">B</p></div> <br> <div style='float: left;padding-left:30px;'><p>Press '1' for A</p></div><div style='float: right;padding-right:30px;'><p>Press '0' for B</p> </div> </div></div>","null","","","","","","","","","","","","","",""
"4040","","test","audio-keyboard-response","73","281955","0.0-8.0-1.23","5f13786da54419389fc40b64","condA","","resources/audio/wordStim/S3_AI_29_bxa_Step-6.wav","48","","","","","AI","resources/audio/wordStim/S3_AI_29_bxa_Step-6.wav","S3","29","bxa","6","MI","1","0","false"
"null","","fixation","html-keyboard-response","74","282959","0.0-8.0-0.24","5f13786da54419389fc40b64","condA","","<div class=""vertical-center"" style='width:60%;'><p style='font-weight:bold;'>Does the middle word sound more like the first word (A) or the last word (B)?</p> <br> <div class=""container""> <div id=""a-box""> <p class=""title-text"">A</h3></p> </div> <div id=""x-box""> <p class=""title-text"">X<p> </div> <div id=""b-box""> <p class=""title-text"">B</p></div> <br> <div style='float: left;padding-left:30px;'><p>Press '1' for A</p></div><div style='float: right;padding-right:30px;'><p>Press '0' for B</p> </div> </div></div>","null","","","","","","","","","","","","","",""
"3059","","test","audio-keyboard-response","75","286023","0.0-8.0-1.24","5f13786da54419389fc40b64","condA","","resources/audio/wordStim/S9_AU_13_axb_Step-10.wav","48","","","","","AU","resources/audio/wordStim/S9_AU_13_axb_Step-10.wav","S9","13","axb","10","CN","0","0","true"
"null","","fixation","html-keyboard-response","76","287034","0.0-8.0-0.25","5f13786da54419389fc40b64","condA","","<div class=""vertical-center"" style='width:60%;'><p style='font-weight:bold;'>Does the middle word sound more like the first word (A) or the last word (B)?</p> <br> <div class=""container""> <div id=""a-box""> <p class=""title-text"">A</h3></p> </div> <div id=""x-box""> <p class=""title-text"">X<p> </div> <div id=""b-box""> <p class=""title-text"">B</p></div> <br> <div style='float: left;padding-left:30px;'><p>Press '1' for A</p></div><div style='float: right;padding-right:30px;'><p>Press '0' for B</p> </div> </div></div>","null","","","","","","","","","","","","","",""
"3172","","test","audio-keyboard-response","77","290208","0.0-8.0-1.25","5f13786da54419389fc40b64","condA","","resources/audio/wordStim/S9_AI_24_axb_Step-10.wav","49","","","","","AI","resources/audio/wordStim/S9_AI_24_axb_Step-10.wav","S9","24","axb","10","CN","0","1","false"
"null","","fixation","html-keyboard-response","78","291214","0.0-8.0-0.26","5f13786da54419389fc40b64","condA","","<div class=""vertical-center"" style='width:60%;'><p style='font-weight:bold;'>Does the middle word sound more like the first word (A) or the last word (B)?</p> <br> <div class=""container""> <div id=""a-box""> <p class=""title-text"">A</h3></p> </div> <div id=""x-box""> <p class=""title-text"">X<p> </div> <div id=""b-box""> <p class=""title-text"">B</p></div> <br> <div style='float: left;padding-left:30px;'><p>Press '1' for A</p></div><div style='float: right;padding-right:30px;'><p>Press '0' for B</p> </div> </div></div>","null","","","","","","","","","","","","","",""
"3791","","test","audio-keyboard-response","79","295006","0.0-8.0-1.26","5f13786da54419389fc40b64","condA","","resources/audio/wordStim/S9_AU_14_bxa_Step-6.wav","48","","","","","AU","resources/audio/wordStim/S9_AU_14_bxa_Step-6.wav","S9","14","bxa","6","CN","1","0","false"
"1616.0950000048615","","break","html-keyboard-response","80","297127","0.0-8.0-2.26-0.26","5f13786da54419389fc40b64","condA","","<div class=""vertical-center""><p>Feel free to take a break!</p><i>When you're ready to continue, press SPACE to begin the next trial.</i></p></div>","32","","","","","","","","","","","","","",""
"null","","fixation","html-keyboard-response","81","297632","0.0-8.0-0.27","5f13786da54419389fc40b64","condA","","<div class=""vertical-center"" style='width:60%;'><p style='font-weight:bold;'>Does the middle word sound more like the first word (A) or the last word (B)?</p> <br> <div class=""container""> <div id=""a-box""> <p class=""title-text"">A</h3></p> </div> <div id=""x-box""> <p class=""title-text"">X<p> </div> <div id=""b-box""> <p class=""title-text"">B</p></div> <br> <div style='float: left;padding-left:30px;'><p>Press '1' for A</p></div><div style='float: right;padding-right:30px;'><p>Press '0' for B</p> </div> </div></div>","null","","","","","","","","","","","","","",""
"4049","","test","audio-keyboard-response","82","301683","0.0-8.0-1.27","5f13786da54419389fc40b64","condA","","resources/audio/wordStim/S9_AI_27_axb_Step-9.wav","48","","","","","AI","resources/audio/wordStim/S9_AI_27_axb_Step-9.wav","S9","27","axb","9","CN","0","0","true"
"null","","fixation","html-keyboard-response","83","302693","0.0-8.0-0.28","5f13786da54419389fc40b64","condA","","<div class=""vertical-center"" style='width:60%;'><p style='font-weight:bold;'>Does the middle word sound more like the first word (A) or the last word (B)?</p> <br> <div class=""container""> <div id=""a-box""> <p class=""title-text"">A</h3></p> </div> <div id=""x-box""> <p class=""title-text"">X<p> </div> <div id=""b-box""> <p class=""title-text"">B</p></div> <br> <div style='float: left;padding-left:30px;'><p>Press '1' for A</p></div><div style='float: right;padding-right:30px;'><p>Press '0' for B</p> </div> </div></div>","null","","","","","","","","","","","","","",""
"3640","","test","audio-keyboard-response","84","306325","0.0-8.0-1.28","5f13786da54419389fc40b64","condA","","resources/audio/wordStim/S3_AU_17_axb_Step-9.wav","48","","","","","AU","resources/audio/wordStim/S3_AU_17_axb_Step-9.wav","S3","17","axb","9","MI","0","0","true"
"null","","fixation","html-keyboard-response","85","307330","0.0-8.0-0.29","5f13786da54419389fc40b64","condA","","<div class=""vertical-center"" style='width:60%;'><p style='font-weight:bold;'>Does the middle word sound more like the first word (A) or the last word (B)?</p> <br> <div class=""container""> <div id=""a-box""> <p class=""title-text"">A</h3></p> </div> <div id=""x-box""> <p class=""title-text"">X<p> </div> <div id=""b-box""> <p class=""title-text"">B</p></div> <br> <div style='float: left;padding-left:30px;'><p>Press '1' for A</p></div><div style='float: right;padding-right:30px;'><p>Press '0' for B</p> </div> </div></div>","null","","","","","","","","","","","","","",""
"2789","","test","audio-keyboard-response","86","310123","0.0-8.0-1.29","5f13786da54419389fc40b64","condA","","resources/audio/wordStim/S3_AI_21_axb_Step-7.wav","49","","","","","AI","resources/audio/wordStim/S3_AI_21_axb_Step-7.wav","S3","21","axb","7","MI","0","1","false"
"null","","fixation","html-keyboard-response","87","311131","0.0-8.0-0.30","5f13786da54419389fc40b64","condA","","<div class=""vertical-center"" style='width:60%;'><p style='font-weight:bold;'>Does the middle word sound more like the first word (A) or the last word (B)?</p> <br> <div class=""container""> <div id=""a-box""> <p class=""title-text"">A</h3></p> </div> <div id=""x-box""> <p class=""title-text"">X<p> </div> <div id=""b-box""> <p class=""title-text"">B</p></div> <br> <div style='float: left;padding-left:30px;'><p>Press '1' for A</p></div><div style='float: right;padding-right:30px;'><p>Press '0' for B</p> </div> </div></div>","null","","","","","","","","","","","","","",""
"5790","","test","audio-keyboard-response","88","316922","0.0-8.0-1.30","5f13786da54419389fc40b64","condA","","resources/audio/wordStim/S9_AI_22_axb_Step-10.wav","49","","","","","AI","resources/audio/wordStim/S9_AI_22_axb_Step-10.wav","S9","22","axb","10","CN","0","1","false"
"null","","fixation","html-keyboard-response","89","317931","0.0-8.0-0.31","5f13786da54419389fc40b64","condA","","<div class=""vertical-center"" style='width:60%;'><p style='font-weight:bold;'>Does the middle word sound more like the first word (A) or the last word (B)?</p> <br> <div class=""container""> <div id=""a-box""> <p class=""title-text"">A</h3></p> </div> <div id=""x-box""> <p class=""title-text"">X<p> </div> <div id=""b-box""> <p class=""title-text"">B</p></div> <br> <div style='float: left;padding-left:30px;'><p>Press '1' for A</p></div><div style='float: right;padding-right:30px;'><p>Press '0' for B</p> </div> </div></div>","null","","","","","","","","","","","","","",""
"4650","","test","audio-keyboard-response","90","322579","0.0-8.0-1.31","5f13786da54419389fc40b64","condA","","resources/audio/wordStim/S9_AI_25_bxa_Step-8.wav","48","","","","","AI","resources/audio/wordStim/S9_AI_25_bxa_Step-8.wav","S9","25","bxa","8","CN","1","0","false"
"null","","fixation","html-keyboard-response","91","323584","0.0-8.0-0.32","5f13786da54419389fc40b64","condA","","<div class=""vertical-center"" style='width:60%;'><p style='font-weight:bold;'>Does the middle word sound more like the first word (A) or the last word (B)?</p> <br> <div class=""container""> <div id=""a-box""> <p class=""title-text"">A</h3></p> </div> <div id=""x-box""> <p class=""title-text"">X<p> </div> <div id=""b-box""> <p class=""title-text"">B</p></div> <br> <div style='float: left;padding-left:30px;'><p>Press '1' for A</p></div><div style='float: right;padding-right:30px;'><p>Press '0' for B</p> </div> </div></div>","null","","","","","","","","","","","","","",""
"3260","","test","audio-keyboard-response","92","326846","0.0-8.0-1.32","5f13786da54419389fc40b64","condA","","resources/audio/wordStim/S3_AU_19_axb_Step-9.wav","49","","","","","AU","resources/audio/wordStim/S3_AU_19_axb_Step-9.wav","S3","19","axb","9","MI","0","1","false"
"null","","fixation","html-keyboard-response","93","327851","0.0-8.0-0.33","5f13786da54419389fc40b64","condA","","<div class=""vertical-center"" style='width:60%;'><p style='font-weight:bold;'>Does the middle word sound more like the first word (A) or the last word (B)?</p> <br> <div class=""container""> <div id=""a-box""> <p class=""title-text"">A</h3></p> </div> <div id=""x-box""> <p class=""title-text"">X<p> </div> <div id=""b-box""> <p class=""title-text"">B</p></div> <br> <div style='float: left;padding-left:30px;'><p>Press '1' for A</p></div><div style='float: right;padding-right:30px;'><p>Press '0' for B</p> </div> </div></div>","null","","","","","","","","","","","","","",""
"2670","","test","audio-keyboard-response","94","330520","0.0-8.0-1.33","5f13786da54419389fc40b64","condA","","resources/audio/wordStim/S3_AU_20_axb_Step-5.wav","49","","","","","AU","resources/audio/wordStim/S3_AU_20_axb_Step-5.wav","S3","20","axb","5","MI","0","1","false"
"null","","fixation","html-keyboard-response","95","331524","0.0-8.0-0.34","5f13786da54419389fc40b64","condA","","<div class=""vertical-center"" style='width:60%;'><p style='font-weight:bold;'>Does the middle word sound more like the first word (A) or the last word (B)?</p> <br> <div class=""container""> <div id=""a-box""> <p class=""title-text"">A</h3></p> </div> <div id=""x-box""> <p class=""title-text"">X<p> </div> <div id=""b-box""> <p class=""title-text"">B</p></div> <br> <div style='float: left;padding-left:30px;'><p>Press '1' for A</p></div><div style='float: right;padding-right:30px;'><p>Press '0' for B</p> </div> </div></div>","null","","","","","","","","","","","","","",""
"3199","","test","audio-keyboard-response","96","334737","0.0-8.0-1.34","5f13786da54419389fc40b64","condA","","resources/audio/wordStim/S9_AI_30_axb_Step-10.wav","48","","","","","AI","resources/audio/wordStim/S9_AI_30_axb_Step-10.wav","S9","30","axb","10","CN","0","0","true"
"null","","fixation","html-keyboard-response","97","335743","0.0-8.0-0.35","5f13786da54419389fc40b64","condA","","<div class=""vertical-center"" style='width:60%;'><p style='font-weight:bold;'>Does the middle word sound more like the first word (A) or the last word (B)?</p> <br> <div class=""container""> <div id=""a-box""> <p class=""title-text"">A</h3></p> </div> <div id=""x-box""> <p class=""title-text"">X<p> </div> <div id=""b-box""> <p class=""title-text"">B</p></div> <br> <div style='float: left;padding-left:30px;'><p>Press '1' for A</p></div><div style='float: right;padding-right:30px;'><p>Press '0' for B</p> </div> </div></div>","null","","","","","","","","","","","","","",""
"3120","","test","audio-keyboard-response","98","338861","0.0-8.0-1.35","5f13786da54419389fc40b64","condA","","resources/audio/wordStim/S9_AI_30_bxa_Step-8.wav","49","","","","","AI","resources/audio/wordStim/S9_AI_30_bxa_Step-8.wav","S9","30","bxa","8","CN","1","1","true"
"null","","fixation","html-keyboard-response","99","339866","0.0-8.0-0.36","5f13786da54419389fc40b64","condA","","<div class=""vertical-center"" style='width:60%;'><p style='font-weight:bold;'>Does the middle word sound more like the first word (A) or the last word (B)?</p> <br> <div class=""container""> <div id=""a-box""> <p class=""title-text"">A</h3></p> </div> <div id=""x-box""> <p class=""title-text"">X<p> </div> <div id=""b-box""> <p class=""title-text"">B</p></div> <br> <div style='float: left;padding-left:30px;'><p>Press '1' for A</p></div><div style='float: right;padding-right:30px;'><p>Press '0' for B</p> </div> </div></div>","null","","","","","","","","","","","","","",""
"3901","","test","audio-keyboard-response","100","343773","0.0-8.0-1.36","5f13786da54419389fc40b64","condA","","resources/audio/wordStim/S3_AU_16_axb_Step-7.wav","49","","","","","AU","resources/audio/wordStim/S3_AU_16_axb_Step-7.wav","S3","16","axb","7","MI","0","1","false"
"null","","fixation","html-keyboard-response","101","344782","0.0-8.0-0.37","5f13786da54419389fc40b64","condA","","<div class=""vertical-center"" style='width:60%;'><p style='font-weight:bold;'>Does the middle word sound more like the first word (A) or the last word (B)?</p> <br> <div class=""container""> <div id=""a-box""> <p class=""title-text"">A</h3></p> </div> <div id=""x-box""> <p class=""title-text"">X<p> </div> <div id=""b-box""> <p class=""title-text"">B</p></div> <br> <div style='float: left;padding-left:30px;'><p>Press '1' for A</p></div><div style='float: right;padding-right:30px;'><p>Press '0' for B</p> </div> </div></div>","null","","","","","","","","","","","","","",""
"2850","","test","audio-keyboard-response","102","347631","0.0-8.0-1.37","5f13786da54419389fc40b64","condA","","resources/audio/wordStim/S9_AI_24_bxa_Step-4.wav","49","","","","","AI","resources/audio/wordStim/S9_AI_24_bxa_Step-4.wav","S9","24","bxa","4","CN","1","1","true"
"null","","fixation","html-keyboard-response","103","348637","0.0-8.0-0.38","5f13786da54419389fc40b64","condA","","<div class=""vertical-center"" style='width:60%;'><p style='font-weight:bold;'>Does the middle word sound more like the first word (A) or the last word (B)?</p> <br> <div class=""container""> <div id=""a-box""> <p class=""title-text"">A</h3></p> </div> <div id=""x-box""> <p class=""title-text"">X<p> </div> <div id=""b-box""> <p class=""title-text"">B</p></div> <br> <div style='float: left;padding-left:30px;'><p>Press '1' for A</p></div><div style='float: right;padding-right:30px;'><p>Press '0' for B</p> </div> </div></div>","null","","","","","","","","","","","","","",""
"4940","","test","audio-keyboard-response","104","353582","0.0-8.0-1.38","5f13786da54419389fc40b64","condA","","resources/audio/wordStim/S9_AI_22_axb_Step-7.wav","49","","","","","AI","resources/audio/wordStim/S9_AI_22_axb_Step-7.wav","S9","22","axb","7","CN","0","1","false"
"null","","fixation","html-keyboard-response","105","354590","0.0-8.0-0.39","5f13786da54419389fc40b64","condA","","<div class=""vertical-center"" style='width:60%;'><p style='font-weight:bold;'>Does the middle word sound more like the first word (A) or the last word (B)?</p> <br> <div class=""container""> <div id=""a-box""> <p class=""title-text"">A</h3></p> </div> <div id=""x-box""> <p class=""title-text"">X<p> </div> <div id=""b-box""> <p class=""title-text"">B</p></div> <br> <div style='float: left;padding-left:30px;'><p>Press '1' for A</p></div><div style='float: right;padding-right:30px;'><p>Press '0' for B</p> </div> </div></div>","null","","","","","","","","","","","","","",""
"3019","","test","audio-keyboard-response","106","357610","0.0-8.0-1.39","5f13786da54419389fc40b64","condA","","resources/audio/wordStim/S9_AI_30_bxa_Step-2.wav","49","","","","","AI","resources/audio/wordStim/S9_AI_30_bxa_Step-2.wav","S9","30","bxa","2","CN","1","1","true"
"null","","fixation","html-keyboard-response","107","358622","0.0-8.0-0.40","5f13786da54419389fc40b64","condA","","<div class=""vertical-center"" style='width:60%;'><p style='font-weight:bold;'>Does the middle word sound more like the first word (A) or the last word (B)?</p> <br> <div class=""container""> <div id=""a-box""> <p class=""title-text"">A</h3></p> </div> <div id=""x-box""> <p class=""title-text"">X<p> </div> <div id=""b-box""> <p class=""title-text"">B</p></div> <br> <div style='float: left;padding-left:30px;'><p>Press '1' for A</p></div><div style='float: right;padding-right:30px;'><p>Press '0' for B</p> </div> </div></div>","null","","","","","","","","","","","","","",""
"3390","","test","audio-keyboard-response","108","362017","0.0-8.0-1.40","5f13786da54419389fc40b64","condA","","resources/audio/wordStim/S9_AU_20_axb_Step-7.wav","48","","","","","AU","resources/audio/wordStim/S9_AU_20_axb_Step-7.wav","S9","20","axb","7","CN","0","0","true"
"null","","fixation","html-keyboard-response","109","363027","0.0-8.0-0.41","5f13786da54419389fc40b64","condA","","<div class=""vertical-center"" style='width:60%;'><p style='font-weight:bold;'>Does the middle word sound more like the first word (A) or the last word (B)?</p> <br> <div class=""container""> <div id=""a-box""> <p class=""title-text"">A</h3></p> </div> <div id=""x-box""> <p class=""title-text"">X<p> </div> <div id=""b-box""> <p class=""title-text"">B</p></div> <br> <div style='float: left;padding-left:30px;'><p>Press '1' for A</p></div><div style='float: right;padding-right:30px;'><p>Press '0' for B</p> </div> </div></div>","null","","","","","","","","","","","","","",""
"3242","","test","audio-keyboard-response","110","366271","0.0-8.0-1.41","5f13786da54419389fc40b64","condA","","resources/audio/wordStim/S3_AU_11_axb_Step-5.wav","48","","","","","AU","resources/audio/wordStim/S3_AU_11_axb_Step-5.wav","S3","11","axb","5","MI","0","0","true"
"null","","fixation","html-keyboard-response","111","367280","0.0-8.0-0.42","5f13786da54419389fc40b64","condA","","<div class=""vertical-center"" style='width:60%;'><p style='font-weight:bold;'>Does the middle word sound more like the first word (A) or the last word (B)?</p> <br> <div class=""container""> <div id=""a-box""> <p class=""title-text"">A</h3></p> </div> <div id=""x-box""> <p class=""title-text"">X<p> </div> <div id=""b-box""> <p class=""title-text"">B</p></div> <br> <div style='float: left;padding-left:30px;'><p>Press '1' for A</p></div><div style='float: right;padding-right:30px;'><p>Press '0' for B</p> </div> </div></div>","null","","","","","","","","","","","","","",""
"2688","","test","audio-keyboard-response","112","369967","0.0-8.0-1.42","5f13786da54419389fc40b64","condA","","resources/audio/wordStim/S3_AU_20_bxa_Step-6.wav","49","","","","","AU","resources/audio/wordStim/S3_AU_20_bxa_Step-6.wav","S3","20","bxa","6","MI","1","1","true"
"null","","fixation","html-keyboard-response","113","370976","0.0-8.0-0.43","5f13786da54419389fc40b64","condA","","<div class=""vertical-center"" style='width:60%;'><p style='font-weight:bold;'>Does the middle word sound more like the first word (A) or the last word (B)?</p> <br> <div class=""container""> <div id=""a-box""> <p class=""title-text"">A</h3></p> </div> <div id=""x-box""> <p class=""title-text"">X<p> </div> <div id=""b-box""> <p class=""title-text"">B</p></div> <br> <div style='float: left;padding-left:30px;'><p>Press '1' for A</p></div><div style='float: right;padding-right:30px;'><p>Press '0' for B</p> </div> </div></div>","null","","","","","","","","","","","","","",""
"3512","","test","audio-keyboard-response","114","374491","0.0-8.0-1.43","5f13786da54419389fc40b64","condA","","resources/audio/wordStim/S9_AI_24_bxa_Step-8.wav","49","","","","","AI","resources/audio/wordStim/S9_AI_24_bxa_Step-8.wav","S9","24","bxa","8","CN","1","1","true"
"null","","fixation","html-keyboard-response","115","375495","0.0-8.0-0.44","5f13786da54419389fc40b64","condA","","<div class=""vertical-center"" style='width:60%;'><p style='font-weight:bold;'>Does the middle word sound more like the first word (A) or the last word (B)?</p> <br> <div class=""container""> <div id=""a-box""> <p class=""title-text"">A</h3></p> </div> <div id=""x-box""> <p class=""title-text"">X<p> </div> <div id=""b-box""> <p class=""title-text"">B</p></div> <br> <div style='float: left;padding-left:30px;'><p>Press '1' for A</p></div><div style='float: right;padding-right:30px;'><p>Press '0' for B</p> </div> </div></div>","null","","","","","","","","","","","","","",""
"3370","","test","audio-keyboard-response","116","378866","0.0-8.0-1.44","5f13786da54419389fc40b64","condA","","resources/audio/wordStim/S9_AU_18_axb_Step-3.wav","49","","","","","AU","resources/audio/wordStim/S9_AU_18_axb_Step-3.wav","S9","18","axb","3","CN","0","1","false"
"null","","fixation","html-keyboard-response","117","379871","0.0-8.0-0.45","5f13786da54419389fc40b64","condA","","<div class=""vertical-center"" style='width:60%;'><p style='font-weight:bold;'>Does the middle word sound more like the first word (A) or the last word (B)?</p> <br> <div class=""container""> <div id=""a-box""> <p class=""title-text"">A</h3></p> </div> <div id=""x-box""> <p class=""title-text"">X<p> </div> <div id=""b-box""> <p class=""title-text"">B</p></div> <br> <div style='float: left;padding-left:30px;'><p>Press '1' for A</p></div><div style='float: right;padding-right:30px;'><p>Press '0' for B</p> </div> </div></div>","null","","","","","","","","","","","","","",""
"3881","","test","audio-keyboard-response","118","383751","0.0-8.0-1.45","5f13786da54419389fc40b64","condA","","resources/audio/wordStim/S3_AU_16_axb_Step-3.wav","49","","","","","AU","resources/audio/wordStim/S3_AU_16_axb_Step-3.wav","S3","16","axb","3","MI","0","1","false"
"null","","fixation","html-keyboard-response","119","384756","0.0-8.0-0.46","5f13786da54419389fc40b64","condA","","<div class=""vertical-center"" style='width:60%;'><p style='font-weight:bold;'>Does the middle word sound more like the first word (A) or the last word (B)?</p> <br> <div class=""container""> <div id=""a-box""> <p class=""title-text"">A</h3></p> </div> <div id=""x-box""> <p class=""title-text"">X<p> </div> <div id=""b-box""> <p class=""title-text"">B</p></div> <br> <div style='float: left;padding-left:30px;'><p>Press '1' for A</p></div><div style='float: right;padding-right:30px;'><p>Press '0' for B</p> </div> </div></div>","null","","","","","","","","","","","","","",""
"2900","","test","audio-keyboard-response","120","387663","0.0-8.0-1.46","5f13786da54419389fc40b64","condA","","resources/audio/wordStim/S3_AI_21_axb_Step-10.wav","48","","","","","AI","resources/audio/wordStim/S3_AI_21_axb_Step-10.wav","S3","21","axb","10","MI","0","0","true"
"null","","fixation","html-keyboard-response","121","388667","0.0-8.0-0.47","5f13786da54419389fc40b64","condA","","<div class=""vertical-center"" style='width:60%;'><p style='font-weight:bold;'>Does the middle word sound more like the first word (A) or the last word (B)?</p> <br> <div class=""container""> <div id=""a-box""> <p class=""title-text"">A</h3></p> </div> <div id=""x-box""> <p class=""title-text"">X<p> </div> <div id=""b-box""> <p class=""title-text"">B</p></div> <br> <div style='float: left;padding-left:30px;'><p>Press '1' for A</p></div><div style='float: right;padding-right:30px;'><p>Press '0' for B</p> </div> </div></div>","null","","","","","","","","","","","","","",""
"3320","","test","audio-keyboard-response","122","391990","0.0-8.0-1.47","5f13786da54419389fc40b64","condA","","resources/audio/wordStim/S3_AI_29_axb_Step-5.wav","49","","","","","AI","resources/audio/wordStim/S3_AI_29_axb_Step-5.wav","S3","29","axb","5","MI","0","1","false"
"null","","fixation","html-keyboard-response","123","393001","0.0-8.0-0.48","5f13786da54419389fc40b64","condA","","<div class=""vertical-center"" style='width:60%;'><p style='font-weight:bold;'>Does the middle word sound more like the first word (A) or the last word (B)?</p> <br> <div class=""container""> <div id=""a-box""> <p class=""title-text"">A</h3></p> </div> <div id=""x-box""> <p class=""title-text"">X<p> </div> <div id=""b-box""> <p class=""title-text"">B</p></div> <br> <div style='float: left;padding-left:30px;'><p>Press '1' for A</p></div><div style='float: right;padding-right:30px;'><p>Press '0' for B</p> </div> </div></div>","null","","","","","","","","","","","","","",""
"3230","","test","audio-keyboard-response","124","396225","0.0-8.0-1.48","5f13786da54419389fc40b64","condA","","resources/audio/wordStim/S3_AI_29_axb_Step-3.wav","49","","","","","AI","resources/audio/wordStim/S3_AI_29_axb_Step-3.wav","S3","29","axb","3","MI","0","1","false"
"null","","fixation","html-keyboard-response","125","397230","0.0-8.0-0.49","5f13786da54419389fc40b64","condA","","<div class=""vertical-center"" style='width:60%;'><p style='font-weight:bold;'>Does the middle word sound more like the first word (A) or the last word (B)?</p> <br> <div class=""container""> <div id=""a-box""> <p class=""title-text"">A</h3></p> </div> <div id=""x-box""> <p class=""title-text"">X<p> </div> <div id=""b-box""> <p class=""title-text"">B</p></div> <br> <div style='float: left;padding-left:30px;'><p>Press '1' for A</p></div><div style='float: right;padding-right:30px;'><p>Press '0' for B</p> </div> </div></div>","null","","","","","","","","","","","","","",""
"3071","","test","audio-keyboard-response","126","400299","0.0-8.0-1.49","5f13786da54419389fc40b64","condA","","resources/audio/wordStim/S3_AI_25_axb_Step-5.wav","49","","","","","AI","resources/audio/wordStim/S3_AI_25_axb_Step-5.wav","S3","25","axb","5","MI","0","1","false"
"null","","fixation","html-keyboard-response","127","401305","0.0-8.0-0.50","5f13786da54419389fc40b64","condA","","<div class=""vertical-center"" style='width:60%;'><p style='font-weight:bold;'>Does the middle word sound more like the first word (A) or the last word (B)?</p> <br> <div class=""container""> <div id=""a-box""> <p class=""title-text"">A</h3></p> </div> <div id=""x-box""> <p class=""title-text"">X<p> </div> <div id=""b-box""> <p class=""title-text"">B</p></div> <br> <div style='float: left;padding-left:30px;'><p>Press '1' for A</p></div><div style='float: right;padding-right:30px;'><p>Press '0' for B</p> </div> </div></div>","null","","","","","","","","","","","","","",""
"2804","","test","audio-keyboard-response","128","404116","0.0-8.0-1.50","5f13786da54419389fc40b64","condA","","resources/audio/wordStim/S3_AU_19_bxa_Step-6.wav","49","","","","","AU","resources/audio/wordStim/S3_AU_19_bxa_Step-6.wav","S3","19","bxa","6","MI","1","1","true"
"null","","fixation","html-keyboard-response","129","405122","0.0-8.0-0.51","5f13786da54419389fc40b64","condA","","<div class=""vertical-center"" style='width:60%;'><p style='font-weight:bold;'>Does the middle word sound more like the first word (A) or the last word (B)?</p> <br> <div class=""container""> <div id=""a-box""> <p class=""title-text"">A</h3></p> </div> <div id=""x-box""> <p class=""title-text"">X<p> </div> <div id=""b-box""> <p class=""title-text"">B</p></div> <br> <div style='float: left;padding-left:30px;'><p>Press '1' for A</p></div><div style='float: right;padding-right:30px;'><p>Press '0' for B</p> </div> </div></div>","null","","","","","","","","","","","","","",""
"2871","","test","audio-keyboard-response","130","408001","0.0-8.0-1.51","5f13786da54419389fc40b64","condA","","resources/audio/wordStim/S9_AU_13_axb_Step-9.wav","48","","","","","AU","resources/audio/wordStim/S9_AU_13_axb_Step-9.wav","S9","13","axb","9","CN","0","0","true"
"null","","fixation","html-keyboard-response","131","409007","0.0-8.0-0.52","5f13786da54419389fc40b64","condA","","<div class=""vertical-center"" style='width:60%;'><p style='font-weight:bold;'>Does the middle word sound more like the first word (A) or the last word (B)?</p> <br> <div class=""container""> <div id=""a-box""> <p class=""title-text"">A</h3></p> </div> <div id=""x-box""> <p class=""title-text"">X<p> </div> <div id=""b-box""> <p class=""title-text"">B</p></div> <br> <div style='float: left;padding-left:30px;'><p>Press '1' for A</p></div><div style='float: right;padding-right:30px;'><p>Press '0' for B</p> </div> </div></div>","null","","","","","","","","","","","","","",""
"2630","","test","audio-keyboard-response","132","411645","0.0-8.0-1.52","5f13786da54419389fc40b64","condA","","resources/audio/wordStim/S3_AI_25_bxa_Step-6.wav","48","","","","","AI","resources/audio/wordStim/S3_AI_25_bxa_Step-6.wav","S3","25","bxa","6","MI","1","0","false"
"null","","fixation","html-keyboard-response","133","412651","0.0-8.0-0.53","5f13786da54419389fc40b64","condA","","<div class=""vertical-center"" style='width:60%;'><p style='font-weight:bold;'>Does the middle word sound more like the first word (A) or the last word (B)?</p> <br> <div class=""container""> <div id=""a-box""> <p class=""title-text"">A</h3></p> </div> <div id=""x-box""> <p class=""title-text"">X<p> </div> <div id=""b-box""> <p class=""title-text"">B</p></div> <br> <div style='float: left;padding-left:30px;'><p>Press '1' for A</p></div><div style='float: right;padding-right:30px;'><p>Press '0' for B</p> </div> </div></div>","null","","","","","","","","","","","","","",""
"4020","","test","audio-keyboard-response","134","416670","0.0-8.0-1.53","5f13786da54419389fc40b64","condA","","resources/audio/wordStim/S3_AU_20_bxa_Step-4.wav","48","","","","","AU","resources/audio/wordStim/S3_AU_20_bxa_Step-4.wav","S3","20","bxa","4","MI","1","0","false"
"1352.004999993369","","break","html-keyboard-response","135","418524","0.0-8.0-2.53-0.53","5f13786da54419389fc40b64","condA","","<div class=""vertical-center""><p>Feel free to take a break!</p><i>When you're ready to continue, press SPACE to begin the next trial.</i></p></div>","32","","","","","","","","","","","","","",""
"null","","fixation","html-keyboard-response","136","419031","0.0-8.0-0.54","5f13786da54419389fc40b64","condA","","<div class=""vertical-center"" style='width:60%;'><p style='font-weight:bold;'>Does the middle word sound more like the first word (A) or the last word (B)?</p> <br> <div class=""container""> <div id=""a-box""> <p class=""title-text"">A</h3></p> </div> <div id=""x-box""> <p class=""title-text"">X<p> </div> <div id=""b-box""> <p class=""title-text"">B</p></div> <br> <div style='float: left;padding-left:30px;'><p>Press '1' for A</p></div><div style='float: right;padding-right:30px;'><p>Press '0' for B</p> </div> </div></div>","null","","","","","","","","","","","","","",""
"3828","","test","audio-keyboard-response","137","422871","0.0-8.0-1.54","5f13786da54419389fc40b64","condA","","resources/audio/wordStim/S3_AU_17_axb_Step-7.wav","49","","","","","AU","resources/audio/wordStim/S3_AU_17_axb_Step-7.wav","S3","17","axb","7","MI","0","1","false"
"null","","fixation","html-keyboard-response","138","423877","0.0-8.0-0.55","5f13786da54419389fc40b64","condA","","<div class=""vertical-center"" style='width:60%;'><p style='font-weight:bold;'>Does the middle word sound more like the first word (A) or the last word (B)?</p> <br> <div class=""container""> <div id=""a-box""> <p class=""title-text"">A</h3></p> </div> <div id=""x-box""> <p class=""title-text"">X<p> </div> <div id=""b-box""> <p class=""title-text"">B</p></div> <br> <div style='float: left;padding-left:30px;'><p>Press '1' for A</p></div><div style='float: right;padding-right:30px;'><p>Press '0' for B</p> </div> </div></div>","null","","","","","","","","","","","","","",""
"3239","","test","audio-keyboard-response","139","427115","0.0-8.0-1.55","5f13786da54419389fc40b64","condA","","resources/audio/wordStim/S3_AI_22_bxa_Step-8.wav","49","","","","","AI","resources/audio/wordStim/S3_AI_22_bxa_Step-8.wav","S3","22","bxa","8","MI","1","1","true"
"null","","fixation","html-keyboard-response","140","428124","0.0-8.0-0.56","5f13786da54419389fc40b64","condA","","<div class=""vertical-center"" style='width:60%;'><p style='font-weight:bold;'>Does the middle word sound more like the first word (A) or the last word (B)?</p> <br> <div class=""container""> <div id=""a-box""> <p class=""title-text"">A</h3></p> </div> <div id=""x-box""> <p class=""title-text"">X<p> </div> <div id=""b-box""> <p class=""title-text"">B</p></div> <br> <div style='float: left;padding-left:30px;'><p>Press '1' for A</p></div><div style='float: right;padding-right:30px;'><p>Press '0' for B</p> </div> </div></div>","null","","","","","","","","","","","","","",""
"2821","","test","audio-keyboard-response","141","430948","0.0-8.0-1.56","5f13786da54419389fc40b64","condA","","resources/audio/wordStim/S3_AI_30_bxa_Step-6.wav","49","","","","","AI","resources/audio/wordStim/S3_AI_30_bxa_Step-6.wav","S3","30","bxa","6","MI","1","1","true"
"null","","fixation","html-keyboard-response","142","431953","0.0-8.0-0.57","5f13786da54419389fc40b64","condA","","<div class=""vertical-center"" style='width:60%;'><p style='font-weight:bold;'>Does the middle word sound more like the first word (A) or the last word (B)?</p> <br> <div class=""container""> <div id=""a-box""> <p class=""title-text"">A</h3></p> </div> <div id=""x-box""> <p class=""title-text"">X<p> </div> <div id=""b-box""> <p class=""title-text"">B</p></div> <br> <div style='float: left;padding-left:30px;'><p>Press '1' for A</p></div><div style='float: right;padding-right:30px;'><p>Press '0' for B</p> </div> </div></div>","null","","","","","","","","","","","","","",""
"3541","","test","audio-keyboard-response","143","435502","0.0-8.0-1.57","5f13786da54419389fc40b64","condA","","resources/audio/wordStim/S9_AI_25_axb_Step-7.wav","49","","","","","AI","resources/audio/wordStim/S9_AI_25_axb_Step-7.wav","S9","25","axb","7","CN","0","1","false"
"null","","fixation","html-keyboard-response","144","436512","0.0-8.0-0.58","5f13786da54419389fc40b64","condA","","<div class=""vertical-center"" style='width:60%;'><p style='font-weight:bold;'>Does the middle word sound more like the first word (A) or the last word (B)?</p> <br> <div class=""container""> <div id=""a-box""> <p class=""title-text"">A</h3></p> </div> <div id=""x-box""> <p class=""title-text"">X<p> </div> <div id=""b-box""> <p class=""title-text"">B</p></div> <br> <div style='float: left;padding-left:30px;'><p>Press '1' for A</p></div><div style='float: right;padding-right:30px;'><p>Press '0' for B</p> </div> </div></div>","null","","","","","","","","","","","","","",""
"2920","","test","audio-keyboard-response","145","439443","0.0-8.0-1.58","5f13786da54419389fc40b64","condA","","resources/audio/wordStim/S3_AU_15_axb_Step-3.wav","48","","","","","AU","resources/audio/wordStim/S3_AU_15_axb_Step-3.wav","S3","15","axb","3","MI","0","0","true"
"null","","fixation","html-keyboard-response","146","440452","0.0-8.0-0.59","5f13786da54419389fc40b64","condA","","<div class=""vertical-center"" style='width:60%;'><p style='font-weight:bold;'>Does the middle word sound more like the first word (A) or the last word (B)?</p> <br> <div class=""container""> <div id=""a-box""> <p class=""title-text"">A</h3></p> </div> <div id=""x-box""> <p class=""title-text"">X<p> </div> <div id=""b-box""> <p class=""title-text"">B</p></div> <br> <div style='float: left;padding-left:30px;'><p>Press '1' for A</p></div><div style='float: right;padding-right:30px;'><p>Press '0' for B</p> </div> </div></div>","null","","","","","","","","","","","","","",""
"2940","","test","audio-keyboard-response","147","443396","0.0-8.0-1.59","5f13786da54419389fc40b64","condA","","resources/audio/wordStim/S3_AI_29_bxa_Step-4.wav","48","","","","","AI","resources/audio/wordStim/S3_AI_29_bxa_Step-4.wav","S3","29","bxa","4","MI","1","0","false"
"null","","fixation","html-keyboard-response","148","444402","0.0-8.0-0.60","5f13786da54419389fc40b64","condA","","<div class=""vertical-center"" style='width:60%;'><p style='font-weight:bold;'>Does the middle word sound more like the first word (A) or the last word (B)?</p> <br> <div class=""container""> <div id=""a-box""> <p class=""title-text"">A</h3></p> </div> <div id=""x-box""> <p class=""title-text"">X<p> </div> <div id=""b-box""> <p class=""title-text"">B</p></div> <br> <div style='float: left;padding-left:30px;'><p>Press '1' for A</p></div><div style='float: right;padding-right:30px;'><p>Press '0' for B</p> </div> </div></div>","null","","","","","","","","","","","","","",""
"752","","test","audio-keyboard-response","149","445159","0.0-8.0-1.60","5f13786da54419389fc40b64","condA","","resources/audio/wordStim/S3_AI_23_axb_Step-7.wav","49","","","","","AI","resources/audio/wordStim/S3_AI_23_axb_Step-7.wav","S3","23","axb","7","MI","0","1","false"
"null","","fixation","html-keyboard-response","150","446165","0.0-8.0-0.61","5f13786da54419389fc40b64","condA","","<div class=""vertical-center"" style='width:60%;'><p style='font-weight:bold;'>Does the middle word sound more like the first word (A) or the last word (B)?</p> <br> <div class=""container""> <div id=""a-box""> <p class=""title-text"">A</h3></p> </div> <div id=""x-box""> <p class=""title-text"">X<p> </div> <div id=""b-box""> <p class=""title-text"">B</p></div> <br> <div style='float: left;padding-left:30px;'><p>Press '1' for A</p></div><div style='float: right;padding-right:30px;'><p>Press '0' for B</p> </div> </div></div>","null","","","","","","","","","","","","","",""
"2650","","test","audio-keyboard-response","151","448822","0.0-8.0-1.61","5f13786da54419389fc40b64","condA","","resources/audio/wordStim/S3_AU_20_axb_Step-7.wav","48","","","","","AU","resources/audio/wordStim/S3_AU_20_axb_Step-7.wav","S3","20","axb","7","MI","0","0","true"
"null","","fixation","html-keyboard-response","152","449827","0.0-8.0-0.62","5f13786da54419389fc40b64","condA","","<div class=""vertical-center"" style='width:60%;'><p style='font-weight:bold;'>Does the middle word sound more like the first word (A) or the last word (B)?</p> <br> <div class=""container""> <div id=""a-box""> <p class=""title-text"">A</h3></p> </div> <div id=""x-box""> <p class=""title-text"">X<p> </div> <div id=""b-box""> <p class=""title-text"">B</p></div> <br> <div style='float: left;padding-left:30px;'><p>Press '1' for A</p></div><div style='float: right;padding-right:30px;'><p>Press '0' for B</p> </div> </div></div>","null","","","","","","","","","","","","","",""
"3439","","test","audio-keyboard-response","153","453269","0.0-8.0-1.62","5f13786da54419389fc40b64","condA","","resources/audio/wordStim/S9_AI_25_axb_Step-10.wav","48","","","","","AI","resources/audio/wordStim/S9_AI_25_axb_Step-10.wav","S9","25","axb","10","CN","0","0","true"
"null","","fixation","html-keyboard-response","154","454275","0.0-8.0-0.63","5f13786da54419389fc40b64","condA","","<div class=""vertical-center"" style='width:60%;'><p style='font-weight:bold;'>Does the middle word sound more like the first word (A) or the last word (B)?</p> <br> <div class=""container""> <div id=""a-box""> <p class=""title-text"">A</h3></p> </div> <div id=""x-box""> <p class=""title-text"">X<p> </div> <div id=""b-box""> <p class=""title-text"">B</p></div> <br> <div style='float: left;padding-left:30px;'><p>Press '1' for A</p></div><div style='float: right;padding-right:30px;'><p>Press '0' for B</p> </div> </div></div>","null","","","","","","","","","","","","","",""
"2569","","test","audio-keyboard-response","155","456848","0.0-8.0-1.63","5f13786da54419389fc40b64","condA","","resources/audio/wordStim/S3_AU_19_bxa_Step-4.wav","48","","","","","AU","resources/audio/wordStim/S3_AU_19_bxa_Step-4.wav","S3","19","bxa","4","MI","1","0","false"
"null","","fixation","html-keyboard-response","156","457854","0.0-8.0-0.64","5f13786da54419389fc40b64","condA","","<div class=""vertical-center"" style='width:60%;'><p style='font-weight:bold;'>Does the middle word sound more like the first word (A) or the last word (B)?</p> <br> <div class=""container""> <div id=""a-box""> <p class=""title-text"">A</h3></p> </div> <div id=""x-box""> <p class=""title-text"">X<p> </div> <div id=""b-box""> <p class=""title-text"">B</p></div> <br> <div style='float: left;padding-left:30px;'><p>Press '1' for A</p></div><div style='float: right;padding-right:30px;'><p>Press '0' for B</p> </div> </div></div>","null","","","","","","","","","","","","","",""
"2792","","test","audio-keyboard-response","157","460648","0.0-8.0-1.64","5f13786da54419389fc40b64","condA","","resources/audio/wordStim/S9_AU_14_axb_Step-10.wav","49","","","","","AU","resources/audio/wordStim/S9_AU_14_axb_Step-10.wav","S9","14","axb","10","CN","0","1","false"
"null","","fixation","html-keyboard-response","158","461656","0.0-8.0-0.65","5f13786da54419389fc40b64","condA","","<div class=""vertical-center"" style='width:60%;'><p style='font-weight:bold;'>Does the middle word sound more like the first word (A) or the last word (B)?</p> <br> <div class=""container""> <div id=""a-box""> <p class=""title-text"">A</h3></p> </div> <div id=""x-box""> <p class=""title-text"">X<p> </div> <div id=""b-box""> <p class=""title-text"">B</p></div> <br> <div style='float: left;padding-left:30px;'><p>Press '1' for A</p></div><div style='float: right;padding-right:30px;'><p>Press '0' for B</p> </div> </div></div>","null","","","","","","","","","","","","","",""
"2731","","test","audio-keyboard-response","159","464385","0.0-8.0-1.65","5f13786da54419389fc40b64","condA","","resources/audio/wordStim/S3_AI_25_axb_Step-10.wav","48","","","","","AI","resources/audio/wordStim/S3_AI_25_axb_Step-10.wav","S3","25","axb","10","MI","0","0","true"
"null","","fixation","html-keyboard-response","160","465395","0.0-8.0-0.66","5f13786da54419389fc40b64","condA","","<div class=""vertical-center"" style='width:60%;'><p style='font-weight:bold;'>Does the middle word sound more like the first word (A) or the last word (B)?</p> <br> <div class=""container""> <div id=""a-box""> <p class=""title-text"">A</h3></p> </div> <div id=""x-box""> <p class=""title-text"">X<p> </div> <div id=""b-box""> <p class=""title-text"">B</p></div> <br> <div style='float: left;padding-left:30px;'><p>Press '1' for A</p></div><div style='float: right;padding-right:30px;'><p>Press '0' for B</p> </div> </div></div>","null","","","","","","","","","","","","","",""
"2821","","test","audio-keyboard-response","161","468222","0.0-8.0-1.66","5f13786da54419389fc40b64","condA","","resources/audio/wordStim/S9_AI_30_bxa_Step-6.wav","49","","","","","AI","resources/audio/wordStim/S9_AI_30_bxa_Step-6.wav","S9","30","bxa","6","CN","1","1","true"
"null","","fixation","html-keyboard-response","162","469231","0.0-8.0-0.67","5f13786da54419389fc40b64","condA","","<div class=""vertical-center"" style='width:60%;'><p style='font-weight:bold;'>Does the middle word sound more like the first word (A) or the last word (B)?</p> <br> <div class=""container""> <div id=""a-box""> <p class=""title-text"">A</h3></p> </div> <div id=""x-box""> <p class=""title-text"">X<p> </div> <div id=""b-box""> <p class=""title-text"">B</p></div> <br> <div style='float: left;padding-left:30px;'><p>Press '1' for A</p></div><div style='float: right;padding-right:30px;'><p>Press '0' for B</p> </div> </div></div>","null","","","","","","","","","","","","","",""
"3329","","test","audio-keyboard-response","163","472554","0.0-8.0-1.67","5f13786da54419389fc40b64","condA","","resources/audio/wordStim/S3_AU_11_bxa_Step-6.wav","48","","","","","AU","resources/audio/wordStim/S3_AU_11_bxa_Step-6.wav","S3","11","bxa","6","MI","1","0","false"
"null","","fixation","html-keyboard-response","164","473564","0.0-8.0-0.68","5f13786da54419389fc40b64","condA","","<div class=""vertical-center"" style='width:60%;'><p style='font-weight:bold;'>Does the middle word sound more like the first word (A) or the last word (B)?</p> <br> <div class=""container""> <div id=""a-box""> <p class=""title-text"">A</h3></p> </div> <div id=""x-box""> <p class=""title-text"">X<p> </div> <div id=""b-box""> <p class=""title-text"">B</p></div> <br> <div style='float: left;padding-left:30px;'><p>Press '1' for A</p></div><div style='float: right;padding-right:30px;'><p>Press '0' for B</p> </div> </div></div>","null","","","","","","","","","","","","","",""
"2940","","test","audio-keyboard-response","165","476505","0.0-8.0-1.68","5f13786da54419389fc40b64","condA","","resources/audio/wordStim/S9_AU_19_axb_Step-10.wav","48","","","","","AU","resources/audio/wordStim/S9_AU_19_axb_Step-10.wav","S9","19","axb","10","CN","0","0","true"
"null","","fixation","html-keyboard-response","166","477519","0.0-8.0-0.69","5f13786da54419389fc40b64","condA","","<div class=""vertical-center"" style='width:60%;'><p style='font-weight:bold;'>Does the middle word sound more like the first word (A) or the last word (B)?</p> <br> <div class=""container""> <div id=""a-box""> <p class=""title-text"">A</h3></p> </div> <div id=""x-box""> <p class=""title-text"">X<p> </div> <div id=""b-box""> <p class=""title-text"">B</p></div> <br> <div style='float: left;padding-left:30px;'><p>Press '1' for A</p></div><div style='float: right;padding-right:30px;'><p>Press '0' for B</p> </div> </div></div>","null","","","","","","","","","","","","","",""
"3199","","test","audio-keyboard-response","167","480720","0.0-8.0-1.69","5f13786da54419389fc40b64","condA","","resources/audio/wordStim/S9_AI_23_axb_Step-10.wav","48","","","","","AI","resources/audio/wordStim/S9_AI_23_axb_Step-10.wav","S9","23","axb","10","CN","0","0","true"
"null","","fixation","html-keyboard-response","168","481729","0.0-8.0-0.70","5f13786da54419389fc40b64","condA","","<div class=""vertical-center"" style='width:60%;'><p style='font-weight:bold;'>Does the middle word sound more like the first word (A) or the last word (B)?</p> <br> <div class=""container""> <div id=""a-box""> <p class=""title-text"">A</h3></p> </div> <div id=""x-box""> <p class=""title-text"">X<p> </div> <div id=""b-box""> <p class=""title-text"">B</p></div> <br> <div style='float: left;padding-left:30px;'><p>Press '1' for A</p></div><div style='float: right;padding-right:30px;'><p>Press '0' for B</p> </div> </div></div>","null","","","","","","","","","","","","","",""
"3251","","test","audio-keyboard-response","169","484983","0.0-8.0-1.70","5f13786da54419389fc40b64","condA","","resources/audio/wordStim/S9_AI_22_axb_Step-3.wav","49","","","","","AI","resources/audio/wordStim/S9_AI_22_axb_Step-3.wav","S9","22","axb","3","CN","0","1","false"
"null","","fixation","html-keyboard-response","170","485993","0.0-8.0-0.71","5f13786da54419389fc40b64","condA","","<div class=""vertical-center"" style='width:60%;'><p style='font-weight:bold;'>Does the middle word sound more like the first word (A) or the last word (B)?</p> <br> <div class=""container""> <div id=""a-box""> <p class=""title-text"">A</h3></p> </div> <div id=""x-box""> <p class=""title-text"">X<p> </div> <div id=""b-box""> <p class=""title-text"">B</p></div> <br> <div style='float: left;padding-left:30px;'><p>Press '1' for A</p></div><div style='float: right;padding-right:30px;'><p>Press '0' for B</p> </div> </div></div>","null","","","","","","","","","","","","","",""
"2630","","test","audio-keyboard-response","171","488632","0.0-8.0-1.71","5f13786da54419389fc40b64","condA","","resources/audio/wordStim/S3_AI_25_axb_Step-7.wav","49","","","","","AI","resources/audio/wordStim/S3_AI_25_axb_Step-7.wav","S3","25","axb","7","MI","0","1","false"
"null","","fixation","html-keyboard-response","172","489639","0.0-8.0-0.72","5f13786da54419389fc40b64","condA","","<div class=""vertical-center"" style='width:60%;'><p style='font-weight:bold;'>Does the middle word sound more like the first word (A) or the last word (B)?</p> <br> <div class=""container""> <div id=""a-box""> <p class=""title-text"">A</h3></p> </div> <div id=""x-box""> <p class=""title-text"">X<p> </div> <div id=""b-box""> <p class=""title-text"">B</p></div> <br> <div style='float: left;padding-left:30px;'><p>Press '1' for A</p></div><div style='float: right;padding-right:30px;'><p>Press '0' for B</p> </div> </div></div>","null","","","","","","","","","","","","","",""
"3422","","test","audio-keyboard-response","173","493063","0.0-8.0-1.72","5f13786da54419389fc40b64","condA","","resources/audio/wordStim/S9_AI_22_bxa_Step-2.wav","49","","","","","AI","resources/audio/wordStim/S9_AI_22_bxa_Step-2.wav","S9","22","bxa","2","CN","1","1","true"
"null","","fixation","html-keyboard-response","174","494074","0.0-8.0-0.73","5f13786da54419389fc40b64","condA","","<div class=""vertical-center"" style='width:60%;'><p style='font-weight:bold;'>Does the middle word sound more like the first word (A) or the last word (B)?</p> <br> <div class=""container""> <div id=""a-box""> <p class=""title-text"">A</h3></p> </div> <div id=""x-box""> <p class=""title-text"">X<p> </div> <div id=""b-box""> <p class=""title-text"">B</p></div> <br> <div style='float: left;padding-left:30px;'><p>Press '1' for A</p></div><div style='float: right;padding-right:30px;'><p>Press '0' for B</p> </div> </div></div>","null","","","","","","","","","","","","","",""
"2772","","test","audio-keyboard-response","175","496849","0.0-8.0-1.73","5f13786da54419389fc40b64","condA","","resources/audio/wordStim/S9_AI_27_bxa_Step-2.wav","48","","","","","AI","resources/audio/wordStim/S9_AI_27_bxa_Step-2.wav","S9","27","bxa","2","CN","1","0","false"
"null","","fixation","html-keyboard-response","176","497855","0.0-8.0-0.74","5f13786da54419389fc40b64","condA","","<div class=""vertical-center"" style='width:60%;'><p style='font-weight:bold;'>Does the middle word sound more like the first word (A) or the last word (B)?</p> <br> <div class=""container""> <div id=""a-box""> <p class=""title-text"">A</h3></p> </div> <div id=""x-box""> <p class=""title-text"">X<p> </div> <div id=""b-box""> <p class=""title-text"">B</p></div> <br> <div style='float: left;padding-left:30px;'><p>Press '1' for A</p></div><div style='float: right;padding-right:30px;'><p>Press '0' for B</p> </div> </div></div>","null","","","","","","","","","","","","","",""
"3199","","test","audio-keyboard-response","177","501065","0.0-8.0-1.74","5f13786da54419389fc40b64","condA","","resources/audio/wordStim/S9_AU_18_axb_Step-7.wav","49","","","","","AU","resources/audio/wordStim/S9_AU_18_axb_Step-7.wav","S9","18","axb","7","CN","0","1","false"
"null","","fixation","html-keyboard-response","178","502072","0.0-8.0-0.75","5f13786da54419389fc40b64","condA","","<div class=""vertical-center"" style='width:60%;'><p style='font-weight:bold;'>Does the middle word sound more like the first word (A) or the last word (B)?</p> <br> <div class=""container""> <div id=""a-box""> <p class=""title-text"">A</h3></p> </div> <div id=""x-box""> <p class=""title-text"">X<p> </div> <div id=""b-box""> <p class=""title-text"">B</p></div> <br> <div style='float: left;padding-left:30px;'><p>Press '1' for A</p></div><div style='float: right;padding-right:30px;'><p>Press '0' for B</p> </div> </div></div>","null","","","","","","","","","","","","","",""
"3779","","test","audio-keyboard-response","179","505853","0.0-8.0-1.75","5f13786da54419389fc40b64","condA","","resources/audio/wordStim/S9_AU_20_axb_Step-5.wav","48","","","","","AU","resources/audio/wordStim/S9_AU_20_axb_Step-5.wav","S9","20","axb","5","CN","0","0","true"
"null","","fixation","html-keyboard-response","180","506859","0.0-8.0-0.76","5f13786da54419389fc40b64","condA","","<div class=""vertical-center"" style='width:60%;'><p style='font-weight:bold;'>Does the middle word sound more like the first word (A) or the last word (B)?</p> <br> <div class=""container""> <div id=""a-box""> <p class=""title-text"">A</h3></p> </div> <div id=""x-box""> <p class=""title-text"">X<p> </div> <div id=""b-box""> <p class=""title-text"">B</p></div> <br> <div style='float: left;padding-left:30px;'><p>Press '1' for A</p></div><div style='float: right;padding-right:30px;'><p>Press '0' for B</p> </div> </div></div>","null","","","","","","","","","","","","","",""
"3230","","test","audio-keyboard-response","181","510093","0.0-8.0-1.76","5f13786da54419389fc40b64","condA","","resources/audio/wordStim/S3_AU_17_axb_Step-3.wav","49","","","","","AU","resources/audio/wordStim/S3_AU_17_axb_Step-3.wav","S3","17","axb","3","MI","0","1","false"
"null","","fixation","html-keyboard-response","182","511098","0.0-8.0-0.77","5f13786da54419389fc40b64","condA","","<div class=""vertical-center"" style='width:60%;'><p style='font-weight:bold;'>Does the middle word sound more like the first word (A) or the last word (B)?</p> <br> <div class=""container""> <div id=""a-box""> <p class=""title-text"">A</h3></p> </div> <div id=""x-box""> <p class=""title-text"">X<p> </div> <div id=""b-box""> <p class=""title-text"">B</p></div> <br> <div style='float: left;padding-left:30px;'><p>Press '1' for A</p></div><div style='float: right;padding-right:30px;'><p>Press '0' for B</p> </div> </div></div>","null","","","","","","","","","","","","","",""
"3091","","test","audio-keyboard-response","183","514190","0.0-8.0-1.77","5f13786da54419389fc40b64","condA","","resources/audio/wordStim/S3_AI_23_axb_Step-10.wav","49","","","","","AI","resources/audio/wordStim/S3_AI_23_axb_Step-10.wav","S3","23","axb","10","MI","0","1","false"
"null","","fixation","html-keyboard-response","184","515197","0.0-8.0-0.78","5f13786da54419389fc40b64","condA","","<div class=""vertical-center"" style='width:60%;'><p style='font-weight:bold;'>Does the middle word sound more like the first word (A) or the last word (B)?</p> <br> <div class=""container""> <div id=""a-box""> <p class=""title-text"">A</h3></p> </div> <div id=""x-box""> <p class=""title-text"">X<p> </div> <div id=""b-box""> <p class=""title-text"">B</p></div> <br> <div style='float: left;padding-left:30px;'><p>Press '1' for A</p></div><div style='float: right;padding-right:30px;'><p>Press '0' for B</p> </div> </div></div>","null","","","","","","","","","","","","","",""
"58","","test","audio-keyboard-response","185","515259","0.0-8.0-1.78","5f13786da54419389fc40b64","condA","","resources/audio/wordStim/S9_AU_14_bxa_Step-4.wav","48","","","","","AU","resources/audio/wordStim/S9_AU_14_bxa_Step-4.wav","S9","14","bxa","4","CN","1","0","false"
"null","","fixation","html-keyboard-response","186","516265","0.0-8.0-0.79","5f13786da54419389fc40b64","condA","","<div class=""vertical-center"" style='width:60%;'><p style='font-weight:bold;'>Does the middle word sound more like the first word (A) or the last word (B)?</p> <br> <div class=""container""> <div id=""a-box""> <p class=""title-text"">A</h3></p> </div> <div id=""x-box""> <p class=""title-text"">X<p> </div> <div id=""b-box""> <p class=""title-text"">B</p></div> <br> <div style='float: left;padding-left:30px;'><p>Press '1' for A</p></div><div style='float: right;padding-right:30px;'><p>Press '0' for B</p> </div> </div></div>","null","","","","","","","","","","","","","",""
"0","","test","audio-keyboard-response","187","516272","0.0-8.0-1.79","5f13786da54419389fc40b64","condA","","resources/audio/wordStim/S9_AI_25_bxa_Step-4.wav","49","","","","","AI","resources/audio/wordStim/S9_AI_25_bxa_Step-4.wav","S9","25","bxa","4","CN","1","1","true"
"null","","fixation","html-keyboard-response","188","517282","0.0-8.0-0.80","5f13786da54419389fc40b64","condA","","<div class=""vertical-center"" style='width:60%;'><p style='font-weight:bold;'>Does the middle word sound more like the first word (A) or the last word (B)?</p> <br> <div class=""container""> <div id=""a-box""> <p class=""title-text"">A</h3></p> </div> <div id=""x-box""> <p class=""title-text"">X<p> </div> <div id=""b-box""> <p class=""title-text"">B</p></div> <br> <div style='float: left;padding-left:30px;'><p>Press '1' for A</p></div><div style='float: right;padding-right:30px;'><p>Press '0' for B</p> </div> </div></div>","null","","","","","","","","","","","","","",""
"282","","test","audio-keyboard-response","189","517559","0.0-8.0-1.80","5f13786da54419389fc40b64","condA","","resources/audio/wordStim/S3_AU_15_axb_Step-10.wav","48","","","","","AU","resources/audio/wordStim/S3_AU_15_axb_Step-10.wav","S3","15","axb","10","MI","0","0","true"
"1074.6449999860488","","break","html-keyboard-response","190","519136","0.0-8.0-2.80-0.80","5f13786da54419389fc40b64","condA","","<div class=""vertical-center""><p>Feel free to take a break!</p><i>When you're ready to continue, press SPACE to begin the next trial.</i></p></div>","32","","","","","","","","","","","","","",""
"null","","fixation","html-keyboard-response","191","519644","0.0-8.0-0.81","5f13786da54419389fc40b64","condA","","<div class=""vertical-center"" style='width:60%;'><p style='font-weight:bold;'>Does the middle word sound more like the first word (A) or the last word (B)?</p> <br> <div class=""container""> <div id=""a-box""> <p class=""title-text"">A</h3></p> </div> <div id=""x-box""> <p class=""title-text"">X<p> </div> <div id=""b-box""> <p class=""title-text"">B</p></div> <br> <div style='float: left;padding-left:30px;'><p>Press '1' for A</p></div><div style='float: right;padding-right:30px;'><p>Press '0' for B</p> </div> </div></div>","null","","","","","","","","","","","","","",""
"2421","","test","audio-keyboard-response","192","522071","0.0-8.0-1.81","5f13786da54419389fc40b64","condA","","resources/audio/wordStim/S3_AU_16_bxa_Step-6.wav","49","","","","","AU","resources/audio/wordStim/S3_AU_16_bxa_Step-6.wav","S3","16","bxa","6","MI","1","1","true"
"null","","fixation","html-keyboard-response","193","523079","0.0-8.0-0.82","5f13786da54419389fc40b64","condA","","<div class=""vertical-center"" style='width:60%;'><p style='font-weight:bold;'>Does the middle word sound more like the first word (A) or the last word (B)?</p> <br> <div class=""container""> <div id=""a-box""> <p class=""title-text"">A</h3></p> </div> <div id=""x-box""> <p class=""title-text"">X<p> </div> <div id=""b-box""> <p class=""title-text"">B</p></div> <br> <div style='float: left;padding-left:30px;'><p>Press '1' for A</p></div><div style='float: right;padding-right:30px;'><p>Press '0' for B</p> </div> </div></div>","null","","","","","","","","","","","","","",""
"520","","test","audio-keyboard-response","194","523599","0.0-8.0-1.82","5f13786da54419389fc40b64","condA","","resources/audio/wordStim/S9_AU_11_axb_Step-3.wav","48","","","","","AU","resources/audio/wordStim/S9_AU_11_axb_Step-3.wav","S9","11","axb","3","CN","0","0","true"
"null","","fixation","html-keyboard-response","195","524605","0.0-8.0-0.83","5f13786da54419389fc40b64","condA","","<div class=""vertical-center"" style='width:60%;'><p style='font-weight:bold;'>Does the middle word sound more like the first word (A) or the last word (B)?</p> <br> <div class=""container""> <div id=""a-box""> <p class=""title-text"">A</h3></p> </div> <div id=""x-box""> <p class=""title-text"">X<p> </div> <div id=""b-box""> <p class=""title-text"">B</p></div> <br> <div style='float: left;padding-left:30px;'><p>Press '1' for A</p></div><div style='float: right;padding-right:30px;'><p>Press '0' for B</p> </div> </div></div>","null","","","","","","","","","","","","","",""
"459","","test","audio-keyboard-response","196","525070","0.0-8.0-1.83","5f13786da54419389fc40b64","condA","","resources/audio/wordStim/S9_AI_29_axb_Step-3.wav","49","","","","","AI","resources/audio/wordStim/S9_AI_29_axb_Step-3.wav","S9","29","axb","3","CN","0","1","false"
"null","","fixation","html-keyboard-response","197","526077","0.0-8.0-0.84","5f13786da54419389fc40b64","condA","","<div class=""vertical-center"" style='width:60%;'><p style='font-weight:bold;'>Does the middle word sound more like the first word (A) or the last word (B)?</p> <br> <div class=""container""> <div id=""a-box""> <p class=""title-text"">A</h3></p> </div> <div id=""x-box""> <p class=""title-text"">X<p> </div> <div id=""b-box""> <p class=""title-text"">B</p></div> <br> <div style='float: left;padding-left:30px;'><p>Press '1' for A</p></div><div style='float: right;padding-right:30px;'><p>Press '0' for B</p> </div> </div></div>","null","","","","","","","","","","","","","",""
"2711","","test","audio-keyboard-response","198","528795","0.0-8.0-1.84","5f13786da54419389fc40b64","condA","","resources/audio/wordStim/S3_AI_28_bxa_Step-8.wav","49","","","","","AI","resources/audio/wordStim/S3_AI_28_bxa_Step-8.wav","S3","28","bxa","8","MI","1","1","true"
"null","","fixation","html-keyboard-response","199","529806","0.0-8.0-0.85","5f13786da54419389fc40b64","condA","","<div class=""vertical-center"" style='width:60%;'><p style='font-weight:bold;'>Does the middle word sound more like the first word (A) or the last word (B)?</p> <br> <div class=""container""> <div id=""a-box""> <p class=""title-text"">A</h3></p> </div> <div id=""x-box""> <p class=""title-text"">X<p> </div> <div id=""b-box""> <p class=""title-text"">B</p></div> <br> <div style='float: left;padding-left:30px;'><p>Press '1' for A</p></div><div style='float: right;padding-right:30px;'><p>Press '0' for B</p> </div> </div></div>","null","","","","","","","","","","","","","",""
"3030","","test","audio-keyboard-response","200","532844","0.0-8.0-1.85","5f13786da54419389fc40b64","condA","","resources/audio/wordStim/S9_AU_11_bxa_Step-6.wav","49","","","","","AU","resources/audio/wordStim/S9_AU_11_bxa_Step-6.wav","S9","11","bxa","6","CN","1","1","true"
"null","","fixation","html-keyboard-response","201","533853","0.0-8.0-0.86","5f13786da54419389fc40b64","condA","","<div class=""vertical-center"" style='width:60%;'><p style='font-weight:bold;'>Does the middle word sound more like the first word (A) or the last word (B)?</p> <br> <div class=""container""> <div id=""a-box""> <p class=""title-text"">A</h3></p> </div> <div id=""x-box""> <p class=""title-text"">X<p> </div> <div id=""b-box""> <p class=""title-text"">B</p></div> <br> <div style='float: left;padding-left:30px;'><p>Press '1' for A</p></div><div style='float: right;padding-right:30px;'><p>Press '0' for B</p> </div> </div></div>","null","","","","","","","","","","","","","",""
"2679","","test","audio-keyboard-response","202","536542","0.0-8.0-1.86","5f13786da54419389fc40b64","condA","","resources/audio/wordStim/S3_AU_20_axb_Step-10.wav","48","","","","","AU","resources/audio/wordStim/S3_AU_20_axb_Step-10.wav","S3","20","axb","10","MI","0","0","true"
"null","","fixation","html-keyboard-response","203","537548","0.0-8.0-0.87","5f13786da54419389fc40b64","condA","","<div class=""vertical-center"" style='width:60%;'><p style='font-weight:bold;'>Does the middle word sound more like the first word (A) or the last word (B)?</p> <br> <div class=""container""> <div id=""a-box""> <p class=""title-text"">A</h3></p> </div> <div id=""x-box""> <p class=""title-text"">X<p> </div> <div id=""b-box""> <p class=""title-text"">B</p></div> <br> <div style='float: left;padding-left:30px;'><p>Press '1' for A</p></div><div style='float: right;padding-right:30px;'><p>Press '0' for B</p> </div> </div></div>","null","","","","","","","","","","","","","",""
"3289","","test","audio-keyboard-response","204","540842","0.0-8.0-1.87","5f13786da54419389fc40b64","condA","","resources/audio/wordStim/S3_AU_17_axb_Step-5.wav","49","","","","","AU","resources/audio/wordStim/S3_AU_17_axb_Step-5.wav","S3","17","axb","5","MI","0","1","false"
"null","","fixation","html-keyboard-response","205","541850","0.0-8.0-0.88","5f13786da54419389fc40b64","condA","","<div class=""vertical-center"" style='width:60%;'><p style='font-weight:bold;'>Does the middle word sound more like the first word (A) or the last word (B)?</p> <br> <div class=""container""> <div id=""a-box""> <p class=""title-text"">A</h3></p> </div> <div id=""x-box""> <p class=""title-text"">X<p> </div> <div id=""b-box""> <p class=""title-text"">B</p></div> <br> <div style='float: left;padding-left:30px;'><p>Press '1' for A</p></div><div style='float: right;padding-right:30px;'><p>Press '0' for B</p> </div> </div></div>","null","","","","","","","","","","","","","",""
"3051","","test","audio-keyboard-response","206","544897","0.0-8.0-1.88","5f13786da54419389fc40b64","condA","","resources/audio/wordStim/S3_AI_29_axb_Step-10.wav","48","","","","","AI","resources/audio/wordStim/S3_AI_29_axb_Step-10.wav","S3","29","axb","10","MI","0","0","true"
"null","","fixation","html-keyboard-response","207","545904","0.0-8.0-0.89","5f13786da54419389fc40b64","condA","","<div class=""vertical-center"" style='width:60%;'><p style='font-weight:bold;'>Does the middle word sound more like the first word (A) or the last word (B)?</p> <br> <div class=""container""> <div id=""a-box""> <p class=""title-text"">A</h3></p> </div> <div id=""x-box""> <p class=""title-text"">X<p> </div> <div id=""b-box""> <p class=""title-text"">B</p></div> <br> <div style='float: left;padding-left:30px;'><p>Press '1' for A</p></div><div style='float: right;padding-right:30px;'><p>Press '0' for B</p> </div> </div></div>","null","","","","","","","","","","","","","",""
"2650","","test","audio-keyboard-response","208","548560","0.0-8.0-1.89","5f13786da54419389fc40b64","condA","","resources/audio/wordStim/S9_AU_16_axb_Step-5.wav","49","","","","","AU","resources/audio/wordStim/S9_AU_16_axb_Step-5.wav","S9","16","axb","5","CN","0","1","false"
"null","","fixation","html-keyboard-response","209","549564","0.0-8.0-0.90","5f13786da54419389fc40b64","condA","","<div class=""vertical-center"" style='width:60%;'><p style='font-weight:bold;'>Does the middle word sound more like the first word (A) or the last word (B)?</p> <br> <div class=""container""> <div id=""a-box""> <p class=""title-text"">A</h3></p> </div> <div id=""x-box""> <p class=""title-text"">X<p> </div> <div id=""b-box""> <p class=""title-text"">B</p></div> <br> <div style='float: left;padding-left:30px;'><p>Press '1' for A</p></div><div style='float: right;padding-right:30px;'><p>Press '0' for B</p> </div> </div></div>","null","","","","","","","","","","","","","",""
"2961","","test","audio-keyboard-response","210","552529","0.0-8.0-1.90","5f13786da54419389fc40b64","condA","","resources/audio/wordStim/S9_AU_18_axb_Step-10.wav","48","","","","","AU","resources/audio/wordStim/S9_AU_18_axb_Step-10.wav","S9","18","axb","10","CN","0","0","true"
"null","","fixation","html-keyboard-response","211","553534","0.0-8.0-0.91","5f13786da54419389fc40b64","condA","","<div class=""vertical-center"" style='width:60%;'><p style='font-weight:bold;'>Does the middle word sound more like the first word (A) or the last word (B)?</p> <br> <div class=""container""> <div id=""a-box""> <p class=""title-text"">A</h3></p> </div> <div id=""x-box""> <p class=""title-text"">X<p> </div> <div id=""b-box""> <p class=""title-text"">B</p></div> <br> <div style='float: left;padding-left:30px;'><p>Press '1' for A</p></div><div style='float: right;padding-right:30px;'><p>Press '0' for B</p> </div> </div></div>","null","","","","","","","","","","","","","",""
"2731","","test","audio-keyboard-response","212","556265","0.0-8.0-1.91","5f13786da54419389fc40b64","condA","","resources/audio/wordStim/S9_AU_16_bxa_Step-6.wav","49","","","","","AU","resources/audio/wordStim/S9_AU_16_bxa_Step-6.wav","S9","16","bxa","6","CN","1","1","true"
"null","","fixation","html-keyboard-response","213","557274","0.0-8.0-0.92","5f13786da54419389fc40b64","condA","","<div class=""vertical-center"" style='width:60%;'><p style='font-weight:bold;'>Does the middle word sound more like the first word (A) or the last word (B)?</p> <br> <div class=""container""> <div id=""a-box""> <p class=""title-text"">A</h3></p> </div> <div id=""x-box""> <p class=""title-text"">X<p> </div> <div id=""b-box""> <p class=""title-text"">B</p></div> <br> <div style='float: left;padding-left:30px;'><p>Press '1' for A</p></div><div style='float: right;padding-right:30px;'><p>Press '0' for B</p> </div> </div></div>","null","","","","","","","","","","","","","",""
"2638","","test","audio-keyboard-response","214","559920","0.0-8.0-1.92","5f13786da54419389fc40b64","condA","","resources/audio/wordStim/S9_AU_20_axb_Step-9.wav","48","","","","","AU","resources/audio/wordStim/S9_AU_20_axb_Step-9.wav","S9","20","axb","9","CN","0","0","true"
