"rt","url","trial_role","trial_type","trial_index","time_elapsed","internal_node_id","participantId","condition","view_history","stimulus","key_press","button_pressed","correct_answer","correct_response","success","vowel","wordStim","speaker","sentNum","order","step","speakerIdentity","raised_answer","key_response","raised_response"
"19609.935000014957","micr.con.consent.html","consent","external-html","0","19790","0.0-0.0","5f1db15b22c07d01e51960ad","condA","","","","","","","","","","","","","","","","",""
"11279.144999978598","","instructions","instructions","1","31072","0.0-1.0","5f1db15b22c07d01e51960ad","condA","[{""page_index"":0,""viewing_time"":4041.780000028666},{""page_index"":1,""viewing_time"":5915.574999991804},{""page_index"":2,""viewing_time"":1320.3449999564327}]","","","","","","","","","","","","","","","",""
"null","","fixation","html-keyboard-response","2","31575","0.0-2.0-0.0","5f1db15b22c07d01e51960ad","condA","","<div class=""vertical-center"" style=""font-size:60px;"">+</div>","null","","","","","","","","","","","","","",""
"4135.474999959115","","tonetest","audio-button-response","3","35715","0.0-2.0-1.0","5f1db15b22c07d01e51960ad","condA","","../../src/audio/toneTest_1.wav","","2","2","true","","","","","","","","","","",""
"null","","fixation","html-keyboard-response","4","36222","0.0-2.0-0.1","5f1db15b22c07d01e51960ad","condA","","<div class=""vertical-center"" style=""font-size:60px;"">+</div>","null","","","","","","","","","","","","","",""
"4274.5299999951385","","tonetest","audio-button-response","5","40500","0.0-2.0-1.1","5f1db15b22c07d01e51960ad","condA","","../../src/audio/toneTest_2.wav","","1","1","true","","","","","","","","","","",""
"null","","fixation","html-keyboard-response","6","41012","0.0-2.0-0.2","5f1db15b22c07d01e51960ad","condA","","<div class=""vertical-center"" style=""font-size:60px;"">+</div>","null","","","","","","","","","","","","","",""
"4323.950000049081","","tonetest","audio-button-response","7","45340","0.0-2.0-1.2","5f1db15b22c07d01e51960ad","condA","","../../src/audio/toneTest_6.wav","","0","0","true","","","","","","","","","","",""
"null","","fixation","html-keyboard-response","8","45852","0.0-2.0-0.3","5f1db15b22c07d01e51960ad","condA","","<div class=""vertical-center"" style=""font-size:60px;"">+</div>","null","","","","","","","","","","","","","",""
"4159.699999960139","","tonetest","audio-button-response","9","50015","0.0-2.0-1.3","5f1db15b22c07d01e51960ad","condA","","../../src/audio/toneTest_2.wav","","1","1","true","","","","","","","","","","",""
"null","","fixation","html-keyboard-response","10","50533","0.0-2.0-0.4","5f1db15b22c07d01e51960ad","condA","","<div class=""vertical-center"" style=""font-size:60px;"">+</div>","null","","","","","","","","","","","","","",""
"4176.100000040606","","tonetest","audio-button-response","11","54712","0.0-2.0-1.4","5f1db15b22c07d01e51960ad","condA","","../../src/audio/toneTest_3.wav","","2","2","true","","","","","","","","","","",""
"null","","fixation","html-keyboard-response","12","55223","0.0-2.0-0.5","5f1db15b22c07d01e51960ad","condA","","<div class=""vertical-center"" style=""font-size:60px;"">+</div>","null","","","","","","","","","","","","","",""
"4282.630000030622","","tonetest","audio-button-response","13","59508","0.0-2.0-1.5","5f1db15b22c07d01e51960ad","condA","","../../src/audio/toneTest_1.wav","","2","2","true","","","","","","","","","","",""
"1542.1999999671243","","instructions","html-keyboard-response","14","61053","0.0-3.0","5f1db15b22c07d01e51960ad","condA","","<div class=""vertical-center""><p><b>Your score was 6/6.</b></p><p>If you scored below 6, please ensure that you are wearing headphones and in a quiet location free of distractions.</p><p><i>To continue to the main experiment, press SPACE.</i></p></div>","32","","","","","","","","","","","","","",""
"","","","fullscreen","15","64063","0.0-4.0","5f1db15b22c07d01e51960ad","condA","","","","","","","true","","","","","","","","","",""
"33605.27000000002","","instructions","instructions","16","97670","0.0-5.0","5f1db15b22c07d01e51960ad","condA","[{""page_index"":0,""viewing_time"":33604.99999998137}]","","","","","","","","","","","","","","","",""
"null","","fixation","html-keyboard-response","17","98173","0.0-6.0-0.0","5f1db15b22c07d01e51960ad","condA","","<div class=""vertical-center"" style='width:60%;'><p style='font-weight:bold;'>Does the middle word sound more like the first word (A) or the last word (B)?</p> <br> <div class=""container""> <div id=""a-box""> <p class=""title-text"">A</h3></p> </div> <div id=""x-box""> <p class=""title-text"">X<p> </div> <div id=""b-box""> <p class=""title-text"">B</p></div> <br> <div style='float: left;padding-left:30px;'><p>Press '1' for A</p></div><div style='float: right;padding-right:30px;'><p>Press '0' for B</p> </div> </div></div>","null","","","","","","","","","","","","","",""
"8992","","practice","audio-keyboard-response","18","107439","0.0-6.0-1.0","5f1db15b22c07d01e51960ad","condA","","resources/audio/practiceStim/S1_AI_21_bxa_Step-6.wav","48","","","","","","","","","","","","","",""
"null","","fixation","html-keyboard-response","19","108460","0.0-6.0-0.1","5f1db15b22c07d01e51960ad","condA","","<div class=""vertical-center"" style='width:60%;'><p style='font-weight:bold;'>Does the middle word sound more like the first word (A) or the last word (B)?</p> <br> <div class=""container""> <div id=""a-box""> <p class=""title-text"">A</h3></p> </div> <div id=""x-box""> <p class=""title-text"">X<p> </div> <div id=""b-box""> <p class=""title-text"">B</p></div> <br> <div style='float: left;padding-left:30px;'><p>Press '1' for A</p></div><div style='float: right;padding-right:30px;'><p>Press '0' for B</p> </div> </div></div>","null","","","","","","","","","","","","","",""
"4120","","practice","audio-keyboard-response","20","112587","0.0-6.0-1.1","5f1db15b22c07d01e51960ad","condA","","resources/audio/practiceStim/S1_AI_21_axb_Step-6.wav","48","","","","","","","","","","","","","",""
"null","","fixation","html-keyboard-response","21","113600","0.0-6.0-0.2","5f1db15b22c07d01e51960ad","condA","","<div class=""vertical-center"" style='width:60%;'><p style='font-weight:bold;'>Does the middle word sound more like the first word (A) or the last word (B)?</p> <br> <div class=""container""> <div id=""a-box""> <p class=""title-text"">A</h3></p> </div> <div id=""x-box""> <p class=""title-text"">X<p> </div> <div id=""b-box""> <p class=""title-text"">B</p></div> <br> <div style='float: left;padding-left:30px;'><p>Press '1' for A</p></div><div style='float: right;padding-right:30px;'><p>Press '0' for B</p> </div> </div></div>","null","","","","","","","","","","","","","",""
"5072","","practice","audio-keyboard-response","22","118674","0.0-6.0-1.2","5f1db15b22c07d01e51960ad","condA","","resources/audio/practiceStim/S1_AU_14_bxa_Step-6.wav","48","","","","","","","","","","","","","",""
"null","","fixation","html-keyboard-response","23","119699","0.0-6.0-0.3","5f1db15b22c07d01e51960ad","condA","","<div class=""vertical-center"" style='width:60%;'><p style='font-weight:bold;'>Does the middle word sound more like the first word (A) or the last word (B)?</p> <br> <div class=""container""> <div id=""a-box""> <p class=""title-text"">A</h3></p> </div> <div id=""x-box""> <p class=""title-text"">X<p> </div> <div id=""b-box""> <p class=""title-text"">B</p></div> <br> <div style='float: left;padding-left:30px;'><p>Press '1' for A</p></div><div style='float: right;padding-right:30px;'><p>Press '0' for B</p> </div> </div></div>","null","","","","","","","","","","","","","",""
"3080","","practice","audio-keyboard-response","24","122787","0.0-6.0-1.3","5f1db15b22c07d01e51960ad","condA","","resources/audio/practiceStim/S1_AU_14_axb_Step-6.wav","49","","","","","","","","","","","","","",""
"2272.449999989476","","instructions","instructions","25","125563","0.0-7.0","5f1db15b22c07d01e51960ad","condA","[{""page_index"":0,""viewing_time"":2272.164999973029}]","","","","","","","","","","","","","","","",""
"null","","fixation","html-keyboard-response","26","126070","0.0-8.0-0.0","5f1db15b22c07d01e51960ad","condA","","<div class=""vertical-center"" style='width:60%;'><p style='font-weight:bold;'>Does the middle word sound more like the first word (A) or the last word (B)?</p> <br> <div class=""container""> <div id=""a-box""> <p class=""title-text"">A</h3></p> </div> <div id=""x-box""> <p class=""title-text"">X<p> </div> <div id=""b-box""> <p class=""title-text"">B</p></div> <br> <div style='float: left;padding-left:30px;'><p>Press '1' for A</p></div><div style='float: right;padding-right:30px;'><p>Press '0' for B</p> </div> </div></div>","null","","","","","","","","","","","","","",""
"5659","","test","audio-keyboard-response","27","131734","0.0-8.0-1.0","5f1db15b22c07d01e51960ad","condA","","resources/audio/wordStim/S9_AU_11_axb_Step-7.wav","49","","","","","AU","resources/audio/wordStim/S9_AU_11_axb_Step-7.wav","S9","11","axb","7","CN","0","1","false"
"null","","fixation","html-keyboard-response","28","132750","0.0-8.0-0.1","5f1db15b22c07d01e51960ad","condA","","<div class=""vertical-center"" style='width:60%;'><p style='font-weight:bold;'>Does the middle word sound more like the first word (A) or the last word (B)?</p> <br> <div class=""container""> <div id=""a-box""> <p class=""title-text"">A</h3></p> </div> <div id=""x-box""> <p class=""title-text"">X<p> </div> <div id=""b-box""> <p class=""title-text"">B</p></div> <br> <div style='float: left;padding-left:30px;'><p>Press '1' for A</p></div><div style='float: right;padding-right:30px;'><p>Press '0' for B</p> </div> </div></div>","null","","","","","","","","","","","","","",""
"4208","","test","audio-keyboard-response","29","136962","0.0-8.0-1.1","5f1db15b22c07d01e51960ad","condA","","resources/audio/wordStim/S9_AU_20_bxa_Step-2.wav","49","","","","","AU","resources/audio/wordStim/S9_AU_20_bxa_Step-2.wav","S9","20","bxa","2","CN","1","1","true"
"null","","fixation","html-keyboard-response","30","137991","0.0-8.0-0.2","5f1db15b22c07d01e51960ad","condA","","<div class=""vertical-center"" style='width:60%;'><p style='font-weight:bold;'>Does the middle word sound more like the first word (A) or the last word (B)?</p> <br> <div class=""container""> <div id=""a-box""> <p class=""title-text"">A</h3></p> </div> <div id=""x-box""> <p class=""title-text"">X<p> </div> <div id=""b-box""> <p class=""title-text"">B</p></div> <br> <div style='float: left;padding-left:30px;'><p>Press '1' for A</p></div><div style='float: right;padding-right:30px;'><p>Press '0' for B</p> </div> </div></div>","null","","","","","","","","","","","","","",""
"5160","","test","audio-keyboard-response","31","143152","0.0-8.0-1.2","5f1db15b22c07d01e51960ad","condA","","resources/audio/wordStim/S3_AI_25_bxa_Step-8.wav","49","","","","","AI","resources/audio/wordStim/S3_AI_25_bxa_Step-8.wav","S3","25","bxa","8","MI","1","1","true"
"null","","fixation","html-keyboard-response","32","144170","0.0-8.0-0.3","5f1db15b22c07d01e51960ad","condA","","<div class=""vertical-center"" style='width:60%;'><p style='font-weight:bold;'>Does the middle word sound more like the first word (A) or the last word (B)?</p> <br> <div class=""container""> <div id=""a-box""> <p class=""title-text"">A</h3></p> </div> <div id=""x-box""> <p class=""title-text"">X<p> </div> <div id=""b-box""> <p class=""title-text"">B</p></div> <br> <div style='float: left;padding-left:30px;'><p>Press '1' for A</p></div><div style='float: right;padding-right:30px;'><p>Press '0' for B</p> </div> </div></div>","null","","","","","","","","","","","","","",""
"3829","","test","audio-keyboard-response","33","148010","0.0-8.0-1.3","5f1db15b22c07d01e51960ad","condA","","resources/audio/wordStim/S9_AU_19_axb_Step-10.wav","48","","","","","AU","resources/audio/wordStim/S9_AU_19_axb_Step-10.wav","S9","19","axb","10","CN","0","0","true"
"null","","fixation","html-keyboard-response","34","149039","0.0-8.0-0.4","5f1db15b22c07d01e51960ad","condA","","<div class=""vertical-center"" style='width:60%;'><p style='font-weight:bold;'>Does the middle word sound more like the first word (A) or the last word (B)?</p> <br> <div class=""container""> <div id=""a-box""> <p class=""title-text"">A</h3></p> </div> <div id=""x-box""> <p class=""title-text"">X<p> </div> <div id=""b-box""> <p class=""title-text"">B</p></div> <br> <div style='float: left;padding-left:30px;'><p>Press '1' for A</p></div><div style='float: right;padding-right:30px;'><p>Press '0' for B</p> </div> </div></div>","null","","","","","","","","","","","","","",""
"8152","","test","audio-keyboard-response","35","157193","0.0-8.0-1.4","5f1db15b22c07d01e51960ad","condA","","resources/audio/wordStim/S9_AU_13_axb_Step-7.wav","48","","","","","AU","resources/audio/wordStim/S9_AU_13_axb_Step-7.wav","S9","13","axb","7","CN","0","0","true"
"null","","fixation","html-keyboard-response","36","158213","0.0-8.0-0.5","5f1db15b22c07d01e51960ad","condA","","<div class=""vertical-center"" style='width:60%;'><p style='font-weight:bold;'>Does the middle word sound more like the first word (A) or the last word (B)?</p> <br> <div class=""container""> <div id=""a-box""> <p class=""title-text"">A</h3></p> </div> <div id=""x-box""> <p class=""title-text"">X<p> </div> <div id=""b-box""> <p class=""title-text"">B</p></div> <br> <div style='float: left;padding-left:30px;'><p>Press '1' for A</p></div><div style='float: right;padding-right:30px;'><p>Press '0' for B</p> </div> </div></div>","null","","","","","","","","","","","","","",""
"3741","","test","audio-keyboard-response","37","161951","0.0-8.0-1.5","5f1db15b22c07d01e51960ad","condA","","resources/audio/wordStim/S3_AU_17_axb_Step-5.wav","48","","","","","AU","resources/audio/wordStim/S3_AU_17_axb_Step-5.wav","S3","17","axb","5","MI","0","0","true"
"null","","fixation","html-keyboard-response","38","162970","0.0-8.0-0.6","5f1db15b22c07d01e51960ad","condA","","<div class=""vertical-center"" style='width:60%;'><p style='font-weight:bold;'>Does the middle word sound more like the first word (A) or the last word (B)?</p> <br> <div class=""container""> <div id=""a-box""> <p class=""title-text"">A</h3></p> </div> <div id=""x-box""> <p class=""title-text"">X<p> </div> <div id=""b-box""> <p class=""title-text"">B</p></div> <br> <div style='float: left;padding-left:30px;'><p>Press '1' for A</p></div><div style='float: right;padding-right:30px;'><p>Press '0' for B</p> </div> </div></div>","null","","","","","","","","","","","","","",""
"4421","","test","audio-keyboard-response","39","167401","0.0-8.0-1.6","5f1db15b22c07d01e51960ad","condA","","resources/audio/wordStim/S3_AI_22_axb_Step-10.wav","49","","","","","AI","resources/audio/wordStim/S3_AI_22_axb_Step-10.wav","S3","22","axb","10","MI","0","1","false"
"null","","fixation","html-keyboard-response","40","168425","0.0-8.0-0.7","5f1db15b22c07d01e51960ad","condA","","<div class=""vertical-center"" style='width:60%;'><p style='font-weight:bold;'>Does the middle word sound more like the first word (A) or the last word (B)?</p> <br> <div class=""container""> <div id=""a-box""> <p class=""title-text"">A</h3></p> </div> <div id=""x-box""> <p class=""title-text"">X<p> </div> <div id=""b-box""> <p class=""title-text"">B</p></div> <br> <div style='float: left;padding-left:30px;'><p>Press '1' for A</p></div><div style='float: right;padding-right:30px;'><p>Press '0' for B</p> </div> </div></div>","null","","","","","","","","","","","","","",""
"3720","","test","audio-keyboard-response","41","172149","0.0-8.0-1.7","5f1db15b22c07d01e51960ad","condA","","resources/audio/wordStim/S3_AU_20_bxa_Step-2.wav","49","","","","","AU","resources/audio/wordStim/S3_AU_20_bxa_Step-2.wav","S3","20","bxa","2","MI","1","1","true"
"null","","fixation","html-keyboard-response","42","173161","0.0-8.0-0.8","5f1db15b22c07d01e51960ad","condA","","<div class=""vertical-center"" style='width:60%;'><p style='font-weight:bold;'>Does the middle word sound more like the first word (A) or the last word (B)?</p> <br> <div class=""container""> <div id=""a-box""> <p class=""title-text"">A</h3></p> </div> <div id=""x-box""> <p class=""title-text"">X<p> </div> <div id=""b-box""> <p class=""title-text"">B</p></div> <br> <div style='float: left;padding-left:30px;'><p>Press '1' for A</p></div><div style='float: right;padding-right:30px;'><p>Press '0' for B</p> </div> </div></div>","null","","","","","","","","","","","","","",""
"4232","","test","audio-keyboard-response","43","177401","0.0-8.0-1.8","5f1db15b22c07d01e51960ad","condA","","resources/audio/wordStim/S3_AI_22_axb_Step-7.wav","49","","","","","AI","resources/audio/wordStim/S3_AI_22_axb_Step-7.wav","S3","22","axb","7","MI","0","1","false"
"null","","fixation","html-keyboard-response","44","178429","0.0-8.0-0.9","5f1db15b22c07d01e51960ad","condA","","<div class=""vertical-center"" style='width:60%;'><p style='font-weight:bold;'>Does the middle word sound more like the first word (A) or the last word (B)?</p> <br> <div class=""container""> <div id=""a-box""> <p class=""title-text"">A</h3></p> </div> <div id=""x-box""> <p class=""title-text"">X<p> </div> <div id=""b-box""> <p class=""title-text"">B</p></div> <br> <div style='float: left;padding-left:30px;'><p>Press '1' for A</p></div><div style='float: right;padding-right:30px;'><p>Press '0' for B</p> </div> </div></div>","null","","","","","","","","","","","","","",""
"7659","","test","audio-keyboard-response","45","186094","0.0-8.0-1.9","5f1db15b22c07d01e51960ad","condA","","resources/audio/wordStim/S9_AI_24_axb_Step-9.wav","48","","","","","AI","resources/audio/wordStim/S9_AI_24_axb_Step-9.wav","S9","24","axb","9","CN","0","0","true"
"null","","fixation","html-keyboard-response","46","187119","0.0-8.0-0.10","5f1db15b22c07d01e51960ad","condA","","<div class=""vertical-center"" style='width:60%;'><p style='font-weight:bold;'>Does the middle word sound more like the first word (A) or the last word (B)?</p> <br> <div class=""container""> <div id=""a-box""> <p class=""title-text"">A</h3></p> </div> <div id=""x-box""> <p class=""title-text"">X<p> </div> <div id=""b-box""> <p class=""title-text"">B</p></div> <br> <div style='float: left;padding-left:30px;'><p>Press '1' for A</p></div><div style='float: right;padding-right:30px;'><p>Press '0' for B</p> </div> </div></div>","null","","","","","","","","","","","","","",""
"3891","","test","audio-keyboard-response","47","191017","0.0-8.0-1.10","5f1db15b22c07d01e51960ad","condA","","resources/audio/wordStim/S3_AI_21_bxa_Step-2.wav","49","","","","","AI","resources/audio/wordStim/S3_AI_21_bxa_Step-2.wav","S3","21","bxa","2","MI","1","1","true"
"null","","fixation","html-keyboard-response","48","192039","0.0-8.0-0.11","5f1db15b22c07d01e51960ad","condA","","<div class=""vertical-center"" style='width:60%;'><p style='font-weight:bold;'>Does the middle word sound more like the first word (A) or the last word (B)?</p> <br> <div class=""container""> <div id=""a-box""> <p class=""title-text"">A</h3></p> </div> <div id=""x-box""> <p class=""title-text"">X<p> </div> <div id=""b-box""> <p class=""title-text"">B</p></div> <br> <div style='float: left;padding-left:30px;'><p>Press '1' for A</p></div><div style='float: right;padding-right:30px;'><p>Press '0' for B</p> </div> </div></div>","null","","","","","","","","","","","","","",""
"3040","","test","audio-keyboard-response","49","195090","0.0-8.0-1.11","5f1db15b22c07d01e51960ad","condA","","resources/audio/wordStim/S9_AU_16_bxa_Step-8.wav","49","","","","","AU","resources/audio/wordStim/S9_AU_16_bxa_Step-8.wav","S9","16","bxa","8","CN","1","1","true"
"null","","fixation","html-keyboard-response","50","196110","0.0-8.0-0.12","5f1db15b22c07d01e51960ad","condA","","<div class=""vertical-center"" style='width:60%;'><p style='font-weight:bold;'>Does the middle word sound more like the first word (A) or the last word (B)?</p> <br> <div class=""container""> <div id=""a-box""> <p class=""title-text"">A</h3></p> </div> <div id=""x-box""> <p class=""title-text"">X<p> </div> <div id=""b-box""> <p class=""title-text"">B</p></div> <br> <div style='float: left;padding-left:30px;'><p>Press '1' for A</p></div><div style='float: right;padding-right:30px;'><p>Press '0' for B</p> </div> </div></div>","null","","","","","","","","","","","","","",""
"3669","","test","audio-keyboard-response","51","199785","0.0-8.0-1.12","5f1db15b22c07d01e51960ad","condA","","resources/audio/wordStim/S9_AI_24_axb_Step-3.wav","49","","","","","AI","resources/audio/wordStim/S9_AI_24_axb_Step-3.wav","S9","24","axb","3","CN","0","1","false"
"null","","fixation","html-keyboard-response","52","200820","0.0-8.0-0.13","5f1db15b22c07d01e51960ad","condA","","<div class=""vertical-center"" style='width:60%;'><p style='font-weight:bold;'>Does the middle word sound more like the first word (A) or the last word (B)?</p> <br> <div class=""container""> <div id=""a-box""> <p class=""title-text"">A</h3></p> </div> <div id=""x-box""> <p class=""title-text"">X<p> </div> <div id=""b-box""> <p class=""title-text"">B</p></div> <br> <div style='float: left;padding-left:30px;'><p>Press '1' for A</p></div><div style='float: right;padding-right:30px;'><p>Press '0' for B</p> </div> </div></div>","null","","","","","","","","","","","","","",""
"3339","","test","audio-keyboard-response","53","204164","0.0-8.0-1.13","5f1db15b22c07d01e51960ad","condA","","resources/audio/wordStim/S9_AI_23_axb_Step-9.wav","49","","","","","AI","resources/audio/wordStim/S9_AI_23_axb_Step-9.wav","S9","23","axb","9","CN","0","1","false"
"null","","fixation","html-keyboard-response","54","205189","0.0-8.0-0.14","5f1db15b22c07d01e51960ad","condA","","<div class=""vertical-center"" style='width:60%;'><p style='font-weight:bold;'>Does the middle word sound more like the first word (A) or the last word (B)?</p> <br> <div class=""container""> <div id=""a-box""> <p class=""title-text"">A</h3></p> </div> <div id=""x-box""> <p class=""title-text"">X<p> </div> <div id=""b-box""> <p class=""title-text"">B</p></div> <br> <div style='float: left;padding-left:30px;'><p>Press '1' for A</p></div><div style='float: right;padding-right:30px;'><p>Press '0' for B</p> </div> </div></div>","null","","","","","","","","","","","","","",""
"4168","","test","audio-keyboard-response","55","209364","0.0-8.0-1.14","5f1db15b22c07d01e51960ad","condA","","resources/audio/wordStim/S3_AI_23_axb_Step-3.wav","48","","","","","AI","resources/audio/wordStim/S3_AI_23_axb_Step-3.wav","S3","23","axb","3","MI","0","0","true"
"null","","fixation","html-keyboard-response","56","210389","0.0-8.0-0.15","5f1db15b22c07d01e51960ad","condA","","<div class=""vertical-center"" style='width:60%;'><p style='font-weight:bold;'>Does the middle word sound more like the first word (A) or the last word (B)?</p> <br> <div class=""container""> <div id=""a-box""> <p class=""title-text"">A</h3></p> </div> <div id=""x-box""> <p class=""title-text"">X<p> </div> <div id=""b-box""> <p class=""title-text"">B</p></div> <br> <div style='float: left;padding-left:30px;'><p>Press '1' for A</p></div><div style='float: right;padding-right:30px;'><p>Press '0' for B</p> </div> </div></div>","null","","","","","","","","","","","","","",""
"3979","","test","audio-keyboard-response","57","214373","0.0-8.0-1.15","5f1db15b22c07d01e51960ad","condA","","resources/audio/wordStim/S3_AU_11_bxa_Step-6.wav","48","","","","","AU","resources/audio/wordStim/S3_AU_11_bxa_Step-6.wav","S3","11","bxa","6","MI","1","0","false"
"null","","fixation","html-keyboard-response","58","215409","0.0-8.0-0.16","5f1db15b22c07d01e51960ad","condA","","<div class=""vertical-center"" style='width:60%;'><p style='font-weight:bold;'>Does the middle word sound more like the first word (A) or the last word (B)?</p> <br> <div class=""container""> <div id=""a-box""> <p class=""title-text"">A</h3></p> </div> <div id=""x-box""> <p class=""title-text"">X<p> </div> <div id=""b-box""> <p class=""title-text"">B</p></div> <br> <div style='float: left;padding-left:30px;'><p>Press '1' for A</p></div><div style='float: right;padding-right:30px;'><p>Press '0' for B</p> </div> </div></div>","null","","","","","","","","","","","","","",""
"5491","","test","audio-keyboard-response","59","220904","0.0-8.0-1.16","5f1db15b22c07d01e51960ad","condA","","resources/audio/wordStim/S3_AU_20_axb_Step-9.wav","49","","","","","AU","resources/audio/wordStim/S3_AU_20_axb_Step-9.wav","S3","20","axb","9","MI","0","1","false"
"null","","fixation","html-keyboard-response","60","221920","0.0-8.0-0.17","5f1db15b22c07d01e51960ad","condA","","<div class=""vertical-center"" style='width:60%;'><p style='font-weight:bold;'>Does the middle word sound more like the first word (A) or the last word (B)?</p> <br> <div class=""container""> <div id=""a-box""> <p class=""title-text"">A</h3></p> </div> <div id=""x-box""> <p class=""title-text"">X<p> </div> <div id=""b-box""> <p class=""title-text"">B</p></div> <br> <div style='float: left;padding-left:30px;'><p>Press '1' for A</p></div><div style='float: right;padding-right:30px;'><p>Press '0' for B</p> </div> </div></div>","null","","","","","","","","","","","","","",""
"3971","","test","audio-keyboard-response","61","225891","0.0-8.0-1.17","5f1db15b22c07d01e51960ad","condA","","resources/audio/wordStim/S3_AI_30_bxa_Step-2.wav","49","","","","","AI","resources/audio/wordStim/S3_AI_30_bxa_Step-2.wav","S3","30","bxa","2","MI","1","1","true"
"null","","fixation","html-keyboard-response","62","226920","0.0-8.0-0.18","5f1db15b22c07d01e51960ad","condA","","<div class=""vertical-center"" style='width:60%;'><p style='font-weight:bold;'>Does the middle word sound more like the first word (A) or the last word (B)?</p> <br> <div class=""container""> <div id=""a-box""> <p class=""title-text"">A</h3></p> </div> <div id=""x-box""> <p class=""title-text"">X<p> </div> <div id=""b-box""> <p class=""title-text"">B</p></div> <br> <div style='float: left;padding-left:30px;'><p>Press '1' for A</p></div><div style='float: right;padding-right:30px;'><p>Press '0' for B</p> </div> </div></div>","null","","","","","","","","","","","","","",""
"3461","","test","audio-keyboard-response","63","230380","0.0-8.0-1.18","5f1db15b22c07d01e51960ad","condA","","resources/audio/wordStim/S9_AU_16_bxa_Step-4.wav","49","","","","","AU","resources/audio/wordStim/S9_AU_16_bxa_Step-4.wav","S9","16","bxa","4","CN","1","1","true"
"null","","fixation","html-keyboard-response","64","231406","0.0-8.0-0.19","5f1db15b22c07d01e51960ad","condA","","<div class=""vertical-center"" style='width:60%;'><p style='font-weight:bold;'>Does the middle word sound more like the first word (A) or the last word (B)?</p> <br> <div class=""container""> <div id=""a-box""> <p class=""title-text"">A</h3></p> </div> <div id=""x-box""> <p class=""title-text"">X<p> </div> <div id=""b-box""> <p class=""title-text"">B</p></div> <br> <div style='float: left;padding-left:30px;'><p>Press '1' for A</p></div><div style='float: right;padding-right:30px;'><p>Press '0' for B</p> </div> </div></div>","null","","","","","","","","","","","","","",""
"3629","","test","audio-keyboard-response","65","235038","0.0-8.0-1.19","5f1db15b22c07d01e51960ad","condA","","resources/audio/wordStim/S3_AI_22_axb_Step-5.wav","49","","","","","AI","resources/audio/wordStim/S3_AI_22_axb_Step-5.wav","S3","22","axb","5","MI","0","1","false"
"null","","fixation","html-keyboard-response","66","236061","0.0-8.0-0.20","5f1db15b22c07d01e51960ad","condA","","<div class=""vertical-center"" style='width:60%;'><p style='font-weight:bold;'>Does the middle word sound more like the first word (A) or the last word (B)?</p> <br> <div class=""container""> <div id=""a-box""> <p class=""title-text"">A</h3></p> </div> <div id=""x-box""> <p class=""title-text"">X<p> </div> <div id=""b-box""> <p class=""title-text"">B</p></div> <br> <div style='float: left;padding-left:30px;'><p>Press '1' for A</p></div><div style='float: right;padding-right:30px;'><p>Press '0' for B</p> </div> </div></div>","null","","","","","","","","","","","","","",""
"3619","","test","audio-keyboard-response","67","239678","0.0-8.0-1.20","5f1db15b22c07d01e51960ad","condA","","resources/audio/wordStim/S3_AU_18_bxa_Step-6.wav","49","","","","","AU","resources/audio/wordStim/S3_AU_18_bxa_Step-6.wav","S3","18","bxa","6","MI","1","1","true"
"null","","fixation","html-keyboard-response","68","240706","0.0-8.0-0.21","5f1db15b22c07d01e51960ad","condA","","<div class=""vertical-center"" style='width:60%;'><p style='font-weight:bold;'>Does the middle word sound more like the first word (A) or the last word (B)?</p> <br> <div class=""container""> <div id=""a-box""> <p class=""title-text"">A</h3></p> </div> <div id=""x-box""> <p class=""title-text"">X<p> </div> <div id=""b-box""> <p class=""title-text"">B</p></div> <br> <div style='float: left;padding-left:30px;'><p>Press '1' for A</p></div><div style='float: right;padding-right:30px;'><p>Press '0' for B</p> </div> </div></div>","null","","","","","","","","","","","","","",""
"4259","","test","audio-keyboard-response","69","244976","0.0-8.0-1.21","5f1db15b22c07d01e51960ad","condA","","resources/audio/wordStim/S9_AI_25_axb_Step-7.wav","49","","","","","AI","resources/audio/wordStim/S9_AI_25_axb_Step-7.wav","S9","25","axb","7","CN","0","1","false"
"null","","fixation","html-keyboard-response","70","245983","0.0-8.0-0.22","5f1db15b22c07d01e51960ad","condA","","<div class=""vertical-center"" style='width:60%;'><p style='font-weight:bold;'>Does the middle word sound more like the first word (A) or the last word (B)?</p> <br> <div class=""container""> <div id=""a-box""> <p class=""title-text"">A</h3></p> </div> <div id=""x-box""> <p class=""title-text"">X<p> </div> <div id=""b-box""> <p class=""title-text"">B</p></div> <br> <div style='float: left;padding-left:30px;'><p>Press '1' for A</p></div><div style='float: right;padding-right:30px;'><p>Press '0' for B</p> </div> </div></div>","null","","","","","","","","","","","","","",""
"4971","","test","audio-keyboard-response","71","250954","0.0-8.0-1.22","5f1db15b22c07d01e51960ad","condA","","resources/audio/wordStim/S3_AU_14_axb_Step-10.wav","49","","","","","AU","resources/audio/wordStim/S3_AU_14_axb_Step-10.wav","S3","14","axb","10","MI","0","1","false"
"null","","fixation","html-keyboard-response","72","251966","0.0-8.0-0.23","5f1db15b22c07d01e51960ad","condA","","<div class=""vertical-center"" style='width:60%;'><p style='font-weight:bold;'>Does the middle word sound more like the first word (A) or the last word (B)?</p> <br> <div class=""container""> <div id=""a-box""> <p class=""title-text"">A</h3></p> </div> <div id=""x-box""> <p class=""title-text"">X<p> </div> <div id=""b-box""> <p class=""title-text"">B</p></div> <br> <div style='float: left;padding-left:30px;'><p>Press '1' for A</p></div><div style='float: right;padding-right:30px;'><p>Press '0' for B</p> </div> </div></div>","null","","","","","","","","","","","","","",""
"4101","","test","audio-keyboard-response","73","256074","0.0-8.0-1.23","5f1db15b22c07d01e51960ad","condA","","resources/audio/wordStim/S3_AU_16_axb_Step-9.wav","48","","","","","AU","resources/audio/wordStim/S3_AU_16_axb_Step-9.wav","S3","16","axb","9","MI","0","0","true"
"null","","fixation","html-keyboard-response","74","257106","0.0-8.0-0.24","5f1db15b22c07d01e51960ad","condA","","<div class=""vertical-center"" style='width:60%;'><p style='font-weight:bold;'>Does the middle word sound more like the first word (A) or the last word (B)?</p> <br> <div class=""container""> <div id=""a-box""> <p class=""title-text"">A</h3></p> </div> <div id=""x-box""> <p class=""title-text"">X<p> </div> <div id=""b-box""> <p class=""title-text"">B</p></div> <br> <div style='float: left;padding-left:30px;'><p>Press '1' for A</p></div><div style='float: right;padding-right:30px;'><p>Press '0' for B</p> </div> </div></div>","null","","","","","","","","","","","","","",""
"3659","","test","audio-keyboard-response","75","260775","0.0-8.0-1.24","5f1db15b22c07d01e51960ad","condA","","resources/audio/wordStim/S3_AU_15_bxa_Step-8.wav","49","","","","","AU","resources/audio/wordStim/S3_AU_15_bxa_Step-8.wav","S3","15","bxa","8","MI","1","1","true"
"null","","fixation","html-keyboard-response","76","261805","0.0-8.0-0.25","5f1db15b22c07d01e51960ad","condA","","<div class=""vertical-center"" style='width:60%;'><p style='font-weight:bold;'>Does the middle word sound more like the first word (A) or the last word (B)?</p> <br> <div class=""container""> <div id=""a-box""> <p class=""title-text"">A</h3></p> </div> <div id=""x-box""> <p class=""title-text"">X<p> </div> <div id=""b-box""> <p class=""title-text"">B</p></div> <br> <div style='float: left;padding-left:30px;'><p>Press '1' for A</p></div><div style='float: right;padding-right:30px;'><p>Press '0' for B</p> </div> </div></div>","null","","","","","","","","","","","","","",""
"4109","","test","audio-keyboard-response","77","265923","0.0-8.0-1.25","5f1db15b22c07d01e51960ad","condA","","resources/audio/wordStim/S9_AI_29_axb_Step-7.wav","48","","","","","AI","resources/audio/wordStim/S9_AI_29_axb_Step-7.wav","S9","29","axb","7","CN","0","0","true"
"null","","fixation","html-keyboard-response","78","266956","0.0-8.0-0.26","5f1db15b22c07d01e51960ad","condA","","<div class=""vertical-center"" style='width:60%;'><p style='font-weight:bold;'>Does the middle word sound more like the first word (A) or the last word (B)?</p> <br> <div class=""container""> <div id=""a-box""> <p class=""title-text"">A</h3></p> </div> <div id=""x-box""> <p class=""title-text"">X<p> </div> <div id=""b-box""> <p class=""title-text"">B</p></div> <br> <div style='float: left;padding-left:30px;'><p>Press '1' for A</p></div><div style='float: right;padding-right:30px;'><p>Press '0' for B</p> </div> </div></div>","null","","","","","","","","","","","","","",""
"4880","","test","audio-keyboard-response","79","271843","0.0-8.0-1.26","5f1db15b22c07d01e51960ad","condA","","resources/audio/wordStim/S3_AU_17_bxa_Step-6.wav","48","","","","","AU","resources/audio/wordStim/S3_AU_17_bxa_Step-6.wav","S3","17","bxa","6","MI","1","0","false"
"35743.555000051856","","break","html-keyboard-response","80","308104","0.0-8.0-2.26-0.26","5f1db15b22c07d01e51960ad","condA","","<div class=""vertical-center""><p>Feel free to take a break!</p><i>When you're ready to continue, press SPACE to begin the next trial.</i></p></div>","32","","","","","","","","","","","","","",""
"null","","fixation","html-keyboard-response","81","308606","0.0-8.0-0.27","5f1db15b22c07d01e51960ad","condA","","<div class=""vertical-center"" style='width:60%;'><p style='font-weight:bold;'>Does the middle word sound more like the first word (A) or the last word (B)?</p> <br> <div class=""container""> <div id=""a-box""> <p class=""title-text"">A</h3></p> </div> <div id=""x-box""> <p class=""title-text"">X<p> </div> <div id=""b-box""> <p class=""title-text"">B</p></div> <br> <div style='float: left;padding-left:30px;'><p>Press '1' for A</p></div><div style='float: right;padding-right:30px;'><p>Press '0' for B</p> </div> </div></div>","null","","","","","","","","","","","","","",""
"3011","","test","audio-keyboard-response","82","311895","0.0-8.0-1.27","5f1db15b22c07d01e51960ad","condA","","resources/audio/wordStim/S3_AU_20_bxa_Step-8.wav","48","","","","","AU","resources/audio/wordStim/S3_AU_20_bxa_Step-8.wav","S3","20","bxa","8","MI","1","0","false"
"null","","fixation","html-keyboard-response","83","312930","0.0-8.0-0.28","5f1db15b22c07d01e51960ad","condA","","<div class=""vertical-center"" style='width:60%;'><p style='font-weight:bold;'>Does the middle word sound more like the first word (A) or the last word (B)?</p> <br> <div class=""container""> <div id=""a-box""> <p class=""title-text"">A</h3></p> </div> <div id=""x-box""> <p class=""title-text"">X<p> </div> <div id=""b-box""> <p class=""title-text"">B</p></div> <br> <div style='float: left;padding-left:30px;'><p>Press '1' for A</p></div><div style='float: right;padding-right:30px;'><p>Press '0' for B</p> </div> </div></div>","null","","","","","","","","","","","","","",""
"3600","","test","audio-keyboard-response","84","316543","0.0-8.0-1.28","5f1db15b22c07d01e51960ad","condA","","resources/audio/wordStim/S3_AI_22_bxa_Step-6.wav","48","","","","","AI","resources/audio/wordStim/S3_AI_22_bxa_Step-6.wav","S3","22","bxa","6","MI","1","0","false"
"null","","fixation","html-keyboard-response","85","317582","0.0-8.0-0.29","5f1db15b22c07d01e51960ad","condA","","<div class=""vertical-center"" style='width:60%;'><p style='font-weight:bold;'>Does the middle word sound more like the first word (A) or the last word (B)?</p> <br> <div class=""container""> <div id=""a-box""> <p class=""title-text"">A</h3></p> </div> <div id=""x-box""> <p class=""title-text"">X<p> </div> <div id=""b-box""> <p class=""title-text"">B</p></div> <br> <div style='float: left;padding-left:30px;'><p>Press '1' for A</p></div><div style='float: right;padding-right:30px;'><p>Press '0' for B</p> </div> </div></div>","null","","","","","","","","","","","","","",""
"4208","","test","audio-keyboard-response","86","321794","0.0-8.0-1.29","5f1db15b22c07d01e51960ad","condA","","resources/audio/wordStim/S3_AI_30_axb_Step-3.wav","49","","","","","AI","resources/audio/wordStim/S3_AI_30_axb_Step-3.wav","S3","30","axb","3","MI","0","1","false"
"null","","fixation","html-keyboard-response","87","322832","0.0-8.0-0.30","5f1db15b22c07d01e51960ad","condA","","<div class=""vertical-center"" style='width:60%;'><p style='font-weight:bold;'>Does the middle word sound more like the first word (A) or the last word (B)?</p> <br> <div class=""container""> <div id=""a-box""> <p class=""title-text"">A</h3></p> </div> <div id=""x-box""> <p class=""title-text"">X<p> </div> <div id=""b-box""> <p class=""title-text"">B</p></div> <br> <div style='float: left;padding-left:30px;'><p>Press '1' for A</p></div><div style='float: right;padding-right:30px;'><p>Press '0' for B</p> </div> </div></div>","null","","","","","","","","","","","","","",""
"6971","","test","audio-keyboard-response","88","329806","0.0-8.0-1.30","5f1db15b22c07d01e51960ad","condA","","resources/audio/wordStim/S9_AI_29_bxa_Step-2.wav","49","","","","","AI","resources/audio/wordStim/S9_AI_29_bxa_Step-2.wav","S9","29","bxa","2","CN","1","1","true"
"null","","fixation","html-keyboard-response","89","330832","0.0-8.0-0.31","5f1db15b22c07d01e51960ad","condA","","<div class=""vertical-center"" style='width:60%;'><p style='font-weight:bold;'>Does the middle word sound more like the first word (A) or the last word (B)?</p> <br> <div class=""container""> <div id=""a-box""> <p class=""title-text"">A</h3></p> </div> <div id=""x-box""> <p class=""title-text"">X<p> </div> <div id=""b-box""> <p class=""title-text"">B</p></div> <br> <div style='float: left;padding-left:30px;'><p>Press '1' for A</p></div><div style='float: right;padding-right:30px;'><p>Press '0' for B</p> </div> </div></div>","null","","","","","","","","","","","","","",""
"3621","","test","audio-keyboard-response","90","334455","0.0-8.0-1.31","5f1db15b22c07d01e51960ad","condA","","resources/audio/wordStim/S3_AU_16_bxa_Step-6.wav","48","","","","","AU","resources/audio/wordStim/S3_AU_16_bxa_Step-6.wav","S3","16","bxa","6","MI","1","0","false"
"null","","fixation","html-keyboard-response","91","335472","0.0-8.0-0.32","5f1db15b22c07d01e51960ad","condA","","<div class=""vertical-center"" style='width:60%;'><p style='font-weight:bold;'>Does the middle word sound more like the first word (A) or the last word (B)?</p> <br> <div class=""container""> <div id=""a-box""> <p class=""title-text"">A</h3></p> </div> <div id=""x-box""> <p class=""title-text"">X<p> </div> <div id=""b-box""> <p class=""title-text"">B</p></div> <br> <div style='float: left;padding-left:30px;'><p>Press '1' for A</p></div><div style='float: right;padding-right:30px;'><p>Press '0' for B</p> </div> </div></div>","null","","","","","","","","","","","","","",""
"3701","","test","audio-keyboard-response","92","339176","0.0-8.0-1.32","5f1db15b22c07d01e51960ad","condA","","resources/audio/wordStim/S9_AI_22_axb_Step-7.wav","49","","","","","AI","resources/audio/wordStim/S9_AI_22_axb_Step-7.wav","S9","22","axb","7","CN","0","1","false"
"null","","fixation","html-keyboard-response","93","340192","0.0-8.0-0.33","5f1db15b22c07d01e51960ad","condA","","<div class=""vertical-center"" style='width:60%;'><p style='font-weight:bold;'>Does the middle word sound more like the first word (A) or the last word (B)?</p> <br> <div class=""container""> <div id=""a-box""> <p class=""title-text"">A</h3></p> </div> <div id=""x-box""> <p class=""title-text"">X<p> </div> <div id=""b-box""> <p class=""title-text"">B</p></div> <br> <div style='float: left;padding-left:30px;'><p>Press '1' for A</p></div><div style='float: right;padding-right:30px;'><p>Press '0' for B</p> </div> </div></div>","null","","","","","","","","","","","","","",""
"3141","","test","audio-keyboard-response","94","343337","0.0-8.0-1.33","5f1db15b22c07d01e51960ad","condA","","resources/audio/wordStim/S9_AU_19_axb_Step-7.wav","48","","","","","AU","resources/audio/wordStim/S9_AU_19_axb_Step-7.wav","S9","19","axb","7","CN","0","0","true"
"null","","fixation","html-keyboard-response","95","344361","0.0-8.0-0.34","5f1db15b22c07d01e51960ad","condA","","<div class=""vertical-center"" style='width:60%;'><p style='font-weight:bold;'>Does the middle word sound more like the first word (A) or the last word (B)?</p> <br> <div class=""container""> <div id=""a-box""> <p class=""title-text"">A</h3></p> </div> <div id=""x-box""> <p class=""title-text"">X<p> </div> <div id=""b-box""> <p class=""title-text"">B</p></div> <br> <div style='float: left;padding-left:30px;'><p>Press '1' for A</p></div><div style='float: right;padding-right:30px;'><p>Press '0' for B</p> </div> </div></div>","null","","","","","","","","","","","","","",""
"3320","","test","audio-keyboard-response","96","347689","0.0-8.0-1.34","5f1db15b22c07d01e51960ad","condA","","resources/audio/wordStim/S9_AU_18_axb_Step-3.wav","48","","","","","AU","resources/audio/wordStim/S9_AU_18_axb_Step-3.wav","S9","18","axb","3","CN","0","0","true"
"null","","fixation","html-keyboard-response","97","348710","0.0-8.0-0.35","5f1db15b22c07d01e51960ad","condA","","<div class=""vertical-center"" style='width:60%;'><p style='font-weight:bold;'>Does the middle word sound more like the first word (A) or the last word (B)?</p> <br> <div class=""container""> <div id=""a-box""> <p class=""title-text"">A</h3></p> </div> <div id=""x-box""> <p class=""title-text"">X<p> </div> <div id=""b-box""> <p class=""title-text"">B</p></div> <br> <div style='float: left;padding-left:30px;'><p>Press '1' for A</p></div><div style='float: right;padding-right:30px;'><p>Press '0' for B</p> </div> </div></div>","null","","","","","","","","","","","","","",""
"4480","","test","audio-keyboard-response","98","353183","0.0-8.0-1.35","5f1db15b22c07d01e51960ad","condA","","resources/audio/wordStim/S3_AI_25_axb_Step-5.wav","49","","","","","AI","resources/audio/wordStim/S3_AI_25_axb_Step-5.wav","S3","25","axb","5","MI","0","1","false"
"null","","fixation","html-keyboard-response","99","354212","0.0-8.0-0.36","5f1db15b22c07d01e51960ad","condA","","<div class=""vertical-center"" style='width:60%;'><p style='font-weight:bold;'>Does the middle word sound more like the first word (A) or the last word (B)?</p> <br> <div class=""container""> <div id=""a-box""> <p class=""title-text"">A</h3></p> </div> <div id=""x-box""> <p class=""title-text"">X<p> </div> <div id=""b-box""> <p class=""title-text"">B</p></div> <br> <div style='float: left;padding-left:30px;'><p>Press '1' for A</p></div><div style='float: right;padding-right:30px;'><p>Press '0' for B</p> </div> </div></div>","null","","","","","","","","","","","","","",""
"3829","","test","audio-keyboard-response","100","358044","0.0-8.0-1.36","5f1db15b22c07d01e51960ad","condA","","resources/audio/wordStim/S3_AU_17_axb_Step-10.wav","48","","","","","AU","resources/audio/wordStim/S3_AU_17_axb_Step-10.wav","S3","17","axb","10","MI","0","0","true"
"null","","fixation","html-keyboard-response","101","359062","0.0-8.0-0.37","5f1db15b22c07d01e51960ad","condA","","<div class=""vertical-center"" style='width:60%;'><p style='font-weight:bold;'>Does the middle word sound more like the first word (A) or the last word (B)?</p> <br> <div class=""container""> <div id=""a-box""> <p class=""title-text"">A</h3></p> </div> <div id=""x-box""> <p class=""title-text"">X<p> </div> <div id=""b-box""> <p class=""title-text"">B</p></div> <br> <div style='float: left;padding-left:30px;'><p>Press '1' for A</p></div><div style='float: right;padding-right:30px;'><p>Press '0' for B</p> </div> </div></div>","null","","","","","","","","","","","","","",""
"3368","","test","audio-keyboard-response","102","362437","0.0-8.0-1.37","5f1db15b22c07d01e51960ad","condA","","resources/audio/wordStim/S9_AU_19_bxa_Step-8.wav","49","","","","","AU","resources/audio/wordStim/S9_AU_19_bxa_Step-8.wav","S9","19","bxa","8","CN","1","1","true"
"null","","fixation","html-keyboard-response","103","363454","0.0-8.0-0.38","5f1db15b22c07d01e51960ad","condA","","<div class=""vertical-center"" style='width:60%;'><p style='font-weight:bold;'>Does the middle word sound more like the first word (A) or the last word (B)?</p> <br> <div class=""container""> <div id=""a-box""> <p class=""title-text"">A</h3></p> </div> <div id=""x-box""> <p class=""title-text"">X<p> </div> <div id=""b-box""> <p class=""title-text"">B</p></div> <br> <div style='float: left;padding-left:30px;'><p>Press '1' for A</p></div><div style='float: right;padding-right:30px;'><p>Press '0' for B</p> </div> </div></div>","null","","","","","","","","","","","","","",""
"4709","","test","audio-keyboard-response","104","368161","0.0-8.0-1.38","5f1db15b22c07d01e51960ad","condA","","resources/audio/wordStim/S3_AI_23_bxa_Step-4.wav","49","","","","","AI","resources/audio/wordStim/S3_AI_23_bxa_Step-4.wav","S3","23","bxa","4","MI","1","1","true"
"null","","fixation","html-keyboard-response","105","369179","0.0-8.0-0.39","5f1db15b22c07d01e51960ad","condA","","<div class=""vertical-center"" style='width:60%;'><p style='font-weight:bold;'>Does the middle word sound more like the first word (A) or the last word (B)?</p> <br> <div class=""container""> <div id=""a-box""> <p class=""title-text"">A</h3></p> </div> <div id=""x-box""> <p class=""title-text"">X<p> </div> <div id=""b-box""> <p class=""title-text"">B</p></div> <br> <div style='float: left;padding-left:30px;'><p>Press '1' for A</p></div><div style='float: right;padding-right:30px;'><p>Press '0' for B</p> </div> </div></div>","null","","","","","","","","","","","","","",""
"3808","","test","audio-keyboard-response","106","372992","0.0-8.0-1.39","5f1db15b22c07d01e51960ad","condA","","resources/audio/wordStim/S9_AI_27_axb_Step-10.wav","48","","","","","AI","resources/audio/wordStim/S9_AI_27_axb_Step-10.wav","S9","27","axb","10","CN","0","0","true"
"null","","fixation","html-keyboard-response","107","374008","0.0-8.0-0.40","5f1db15b22c07d01e51960ad","condA","","<div class=""vertical-center"" style='width:60%;'><p style='font-weight:bold;'>Does the middle word sound more like the first word (A) or the last word (B)?</p> <br> <div class=""container""> <div id=""a-box""> <p class=""title-text"">A</h3></p> </div> <div id=""x-box""> <p class=""title-text"">X<p> </div> <div id=""b-box""> <p class=""title-text"">B</p></div> <br> <div style='float: left;padding-left:30px;'><p>Press '1' for A</p></div><div style='float: right;padding-right:30px;'><p>Press '0' for B</p> </div> </div></div>","null","","","","","","","","","","","","","",""
"6299","","test","audio-keyboard-response","108","380310","0.0-8.0-1.40","5f1db15b22c07d01e51960ad","condA","","resources/audio/wordStim/S3_AI_28_bxa_Step-2.wav","49","","","","","AI","resources/audio/wordStim/S3_AI_28_bxa_Step-2.wav","S3","28","bxa","2","MI","1","1","true"
"null","","fixation","html-keyboard-response","109","381348","0.0-8.0-0.41","5f1db15b22c07d01e51960ad","condA","","<div class=""vertical-center"" style='width:60%;'><p style='font-weight:bold;'>Does the middle word sound more like the first word (A) or the last word (B)?</p> <br> <div class=""container""> <div id=""a-box""> <p class=""title-text"">A</h3></p> </div> <div id=""x-box""> <p class=""title-text"">X<p> </div> <div id=""b-box""> <p class=""title-text"">B</p></div> <br> <div style='float: left;padding-left:30px;'><p>Press '1' for A</p></div><div style='float: right;padding-right:30px;'><p>Press '0' for B</p> </div> </div></div>","null","","","","","","","","","","","","","",""
"3040","","test","audio-keyboard-response","110","384392","0.0-8.0-1.41","5f1db15b22c07d01e51960ad","condA","","resources/audio/wordStim/S3_AU_11_axb_Step-7.wav","48","","","","","AU","resources/audio/wordStim/S3_AU_11_axb_Step-7.wav","S3","11","axb","7","MI","0","0","true"
"null","","fixation","html-keyboard-response","111","385418","0.0-8.0-0.42","5f1db15b22c07d01e51960ad","condA","","<div class=""vertical-center"" style='width:60%;'><p style='font-weight:bold;'>Does the middle word sound more like the first word (A) or the last word (B)?</p> <br> <div class=""container""> <div id=""a-box""> <p class=""title-text"">A</h3></p> </div> <div id=""x-box""> <p class=""title-text"">X<p> </div> <div id=""b-box""> <p class=""title-text"">B</p></div> <br> <div style='float: left;padding-left:30px;'><p>Press '1' for A</p></div><div style='float: right;padding-right:30px;'><p>Press '0' for B</p> </div> </div></div>","null","","","","","","","","","","","","","",""
"4480","","test","audio-keyboard-response","112","389907","0.0-8.0-1.42","5f1db15b22c07d01e51960ad","condA","","resources/audio/wordStim/S9_AU_14_axb_Step-3.wav","49","","","","","AU","resources/audio/wordStim/S9_AU_14_axb_Step-3.wav","S9","14","axb","3","CN","0","1","false"
"null","","fixation","html-keyboard-response","113","390928","0.0-8.0-0.43","5f1db15b22c07d01e51960ad","condA","","<div class=""vertical-center"" style='width:60%;'><p style='font-weight:bold;'>Does the middle word sound more like the first word (A) or the last word (B)?</p> <br> <div class=""container""> <div id=""a-box""> <p class=""title-text"">A</h3></p> </div> <div id=""x-box""> <p class=""title-text"">X<p> </div> <div id=""b-box""> <p class=""title-text"">B</p></div> <br> <div style='float: left;padding-left:30px;'><p>Press '1' for A</p></div><div style='float: right;padding-right:30px;'><p>Press '0' for B</p> </div> </div></div>","null","","","","","","","","","","","","","",""
"3269","","test","audio-keyboard-response","114","394202","0.0-8.0-1.43","5f1db15b22c07d01e51960ad","condA","","resources/audio/wordStim/S9_AU_17_axb_Step-5.wav","49","","","","","AU","resources/audio/wordStim/S9_AU_17_axb_Step-5.wav","S9","17","axb","5","CN","0","1","false"
"null","","fixation","html-keyboard-response","115","395228","0.0-8.0-0.44","5f1db15b22c07d01e51960ad","condA","","<div class=""vertical-center"" style='width:60%;'><p style='font-weight:bold;'>Does the middle word sound more like the first word (A) or the last word (B)?</p> <br> <div class=""container""> <div id=""a-box""> <p class=""title-text"">A</h3></p> </div> <div id=""x-box""> <p class=""title-text"">X<p> </div> <div id=""b-box""> <p class=""title-text"">B</p></div> <br> <div style='float: left;padding-left:30px;'><p>Press '1' for A</p></div><div style='float: right;padding-right:30px;'><p>Press '0' for B</p> </div> </div></div>","null","","","","","","","","","","","","","",""
"3541","","test","audio-keyboard-response","116","398773","0.0-8.0-1.44","5f1db15b22c07d01e51960ad","condA","","resources/audio/wordStim/S3_AI_22_bxa_Step-8.wav","48","","","","","AI","resources/audio/wordStim/S3_AI_22_bxa_Step-8.wav","S3","22","bxa","8","MI","1","0","false"
"null","","fixation","html-keyboard-response","117","399799","0.0-8.0-0.45","5f1db15b22c07d01e51960ad","condA","","<div class=""vertical-center"" style='width:60%;'><p style='font-weight:bold;'>Does the middle word sound more like the first word (A) or the last word (B)?</p> <br> <div class=""container""> <div id=""a-box""> <p class=""title-text"">A</h3></p> </div> <div id=""x-box""> <p class=""title-text"">X<p> </div> <div id=""b-box""> <p class=""title-text"">B</p></div> <br> <div style='float: left;padding-left:30px;'><p>Press '1' for A</p></div><div style='float: right;padding-right:30px;'><p>Press '0' for B</p> </div> </div></div>","null","","","","","","","","","","","","","",""
"5691","","test","audio-keyboard-response","118","405492","0.0-8.0-1.45","5f1db15b22c07d01e51960ad","condA","","resources/audio/wordStim/S9_AU_18_bxa_Step-2.wav","48","","","","","AU","resources/audio/wordStim/S9_AU_18_bxa_Step-2.wav","S9","18","bxa","2","CN","1","0","false"
"null","","fixation","html-keyboard-response","119","406526","0.0-8.0-0.46","5f1db15b22c07d01e51960ad","condA","","<div class=""vertical-center"" style='width:60%;'><p style='font-weight:bold;'>Does the middle word sound more like the first word (A) or the last word (B)?</p> <br> <div class=""container""> <div id=""a-box""> <p class=""title-text"">A</h3></p> </div> <div id=""x-box""> <p class=""title-text"">X<p> </div> <div id=""b-box""> <p class=""title-text"">B</p></div> <br> <div style='float: left;padding-left:30px;'><p>Press '1' for A</p></div><div style='float: right;padding-right:30px;'><p>Press '0' for B</p> </div> </div></div>","null","","","","","","","","","","","","","",""
"4549","","test","audio-keyboard-response","120","411075","0.0-8.0-1.46","5f1db15b22c07d01e51960ad","condA","","resources/audio/wordStim/S3_AI_29_axb_Step-5.wav","48","","","","","AI","resources/audio/wordStim/S3_AI_29_axb_Step-5.wav","S3","29","axb","5","MI","0","0","true"
"null","","fixation","html-keyboard-response","121","412098","0.0-8.0-0.47","5f1db15b22c07d01e51960ad","condA","","<div class=""vertical-center"" style='width:60%;'><p style='font-weight:bold;'>Does the middle word sound more like the first word (A) or the last word (B)?</p> <br> <div class=""container""> <div id=""a-box""> <p class=""title-text"">A</h3></p> </div> <div id=""x-box""> <p class=""title-text"">X<p> </div> <div id=""b-box""> <p class=""title-text"">B</p></div> <br> <div style='float: left;padding-left:30px;'><p>Press '1' for A</p></div><div style='float: right;padding-right:30px;'><p>Press '0' for B</p> </div> </div></div>","null","","","","","","","","","","","","","",""
"3419","","test","audio-keyboard-response","122","415529","0.0-8.0-1.47","5f1db15b22c07d01e51960ad","condA","","resources/audio/wordStim/S9_AI_30_bxa_Step-8.wav","49","","","","","AI","resources/audio/wordStim/S9_AI_30_bxa_Step-8.wav","S9","30","bxa","8","CN","1","1","true"
"null","","fixation","html-keyboard-response","123","416547","0.0-8.0-0.48","5f1db15b22c07d01e51960ad","condA","","<div class=""vertical-center"" style='width:60%;'><p style='font-weight:bold;'>Does the middle word sound more like the first word (A) or the last word (B)?</p> <br> <div class=""container""> <div id=""a-box""> <p class=""title-text"">A</h3></p> </div> <div id=""x-box""> <p class=""title-text"">X<p> </div> <div id=""b-box""> <p class=""title-text"">B</p></div> <br> <div style='float: left;padding-left:30px;'><p>Press '1' for A</p></div><div style='float: right;padding-right:30px;'><p>Press '0' for B</p> </div> </div></div>","null","","","","","","","","","","","","","",""
"3939","","test","audio-keyboard-response","124","420480","0.0-8.0-1.48","5f1db15b22c07d01e51960ad","condA","","resources/audio/wordStim/S3_AU_14_bxa_Step-8.wav","48","","","","","AU","resources/audio/wordStim/S3_AU_14_bxa_Step-8.wav","S3","14","bxa","8","MI","1","0","false"
"null","","fixation","html-keyboard-response","125","421499","0.0-8.0-0.49","5f1db15b22c07d01e51960ad","condA","","<div class=""vertical-center"" style='width:60%;'><p style='font-weight:bold;'>Does the middle word sound more like the first word (A) or the last word (B)?</p> <br> <div class=""container""> <div id=""a-box""> <p class=""title-text"">A</h3></p> </div> <div id=""x-box""> <p class=""title-text"">X<p> </div> <div id=""b-box""> <p class=""title-text"">B</p></div> <br> <div style='float: left;padding-left:30px;'><p>Press '1' for A</p></div><div style='float: right;padding-right:30px;'><p>Press '0' for B</p> </div> </div></div>","null","","","","","","","","","","","","","",""
"4269","","test","audio-keyboard-response","126","425777","0.0-8.0-1.49","5f1db15b22c07d01e51960ad","condA","","resources/audio/wordStim/S3_AU_18_axb_Step-10.wav","49","","","","","AU","resources/audio/wordStim/S3_AU_18_axb_Step-10.wav","S3","18","axb","10","MI","0","1","false"
"null","","fixation","html-keyboard-response","127","426818","0.0-8.0-0.50","5f1db15b22c07d01e51960ad","condA","","<div class=""vertical-center"" style='width:60%;'><p style='font-weight:bold;'>Does the middle word sound more like the first word (A) or the last word (B)?</p> <br> <div class=""container""> <div id=""a-box""> <p class=""title-text"">A</h3></p> </div> <div id=""x-box""> <p class=""title-text"">X<p> </div> <div id=""b-box""> <p class=""title-text"">B</p></div> <br> <div style='float: left;padding-left:30px;'><p>Press '1' for A</p></div><div style='float: right;padding-right:30px;'><p>Press '0' for B</p> </div> </div></div>","null","","","","","","","","","","","","","",""
"2928","","test","audio-keyboard-response","128","429751","0.0-8.0-1.50","5f1db15b22c07d01e51960ad","condA","","resources/audio/wordStim/S3_AI_25_axb_Step-9.wav","49","","","","","AI","resources/audio/wordStim/S3_AI_25_axb_Step-9.wav","S3","25","axb","9","MI","0","1","false"
"null","","fixation","html-keyboard-response","129","430773","0.0-8.0-0.51","5f1db15b22c07d01e51960ad","condA","","<div class=""vertical-center"" style='width:60%;'><p style='font-weight:bold;'>Does the middle word sound more like the first word (A) or the last word (B)?</p> <br> <div class=""container""> <div id=""a-box""> <p class=""title-text"">A</h3></p> </div> <div id=""x-box""> <p class=""title-text"">X<p> </div> <div id=""b-box""> <p class=""title-text"">B</p></div> <br> <div style='float: left;padding-left:30px;'><p>Press '1' for A</p></div><div style='float: right;padding-right:30px;'><p>Press '0' for B</p> </div> </div></div>","null","","","","","","","","","","","","","",""
"2789","","test","audio-keyboard-response","130","433567","0.0-8.0-1.51","5f1db15b22c07d01e51960ad","condA","","resources/audio/wordStim/S3_AU_14_bxa_Step-4.wav","49","","","","","AU","resources/audio/wordStim/S3_AU_14_bxa_Step-4.wav","S3","14","bxa","4","MI","1","1","true"
"null","","fixation","html-keyboard-response","131","434593","0.0-8.0-0.52","5f1db15b22c07d01e51960ad","condA","","<div class=""vertical-center"" style='width:60%;'><p style='font-weight:bold;'>Does the middle word sound more like the first word (A) or the last word (B)?</p> <br> <div class=""container""> <div id=""a-box""> <p class=""title-text"">A</h3></p> </div> <div id=""x-box""> <p class=""title-text"">X<p> </div> <div id=""b-box""> <p class=""title-text"">B</p></div> <br> <div style='float: left;padding-left:30px;'><p>Press '1' for A</p></div><div style='float: right;padding-right:30px;'><p>Press '0' for B</p> </div> </div></div>","null","","","","","","","","","","","","","",""
"2909","","test","audio-keyboard-response","132","437511","0.0-8.0-1.52","5f1db15b22c07d01e51960ad","condA","","resources/audio/wordStim/S9_AU_19_bxa_Step-2.wav","48","","","","","AU","resources/audio/wordStim/S9_AU_19_bxa_Step-2.wav","S9","19","bxa","2","CN","1","0","false"
"null","","fixation","html-keyboard-response","133","438525","0.0-8.0-0.53","5f1db15b22c07d01e51960ad","condA","","<div class=""vertical-center"" style='width:60%;'><p style='font-weight:bold;'>Does the middle word sound more like the first word (A) or the last word (B)?</p> <br> <div class=""container""> <div id=""a-box""> <p class=""title-text"">A</h3></p> </div> <div id=""x-box""> <p class=""title-text"">X<p> </div> <div id=""b-box""> <p class=""title-text"">B</p></div> <br> <div style='float: left;padding-left:30px;'><p>Press '1' for A</p></div><div style='float: right;padding-right:30px;'><p>Press '0' for B</p> </div> </div></div>","null","","","","","","","","","","","","","",""
"3179","","test","audio-keyboard-response","134","441713","0.0-8.0-1.53","5f1db15b22c07d01e51960ad","condA","","resources/audio/wordStim/S9_AU_16_axb_Step-7.wav","49","","","","","AU","resources/audio/wordStim/S9_AU_16_axb_Step-7.wav","S9","16","axb","7","CN","0","1","false"
"105297.45499999262","","break","html-keyboard-response","135","547529","0.0-8.0-2.53-0.53","5f1db15b22c07d01e51960ad","condA","","<div class=""vertical-center""><p>Feel free to take a break!</p><i>When you're ready to continue, press SPACE to begin the next trial.</i></p></div>","32","","","","","","","","","","","","","",""
"null","","fixation","html-keyboard-response","136","548031","0.0-8.0-0.54","5f1db15b22c07d01e51960ad","condA","","<div class=""vertical-center"" style='width:60%;'><p style='font-weight:bold;'>Does the middle word sound more like the first word (A) or the last word (B)?</p> <br> <div class=""container""> <div id=""a-box""> <p class=""title-text"">A</h3></p> </div> <div id=""x-box""> <p class=""title-text"">X<p> </div> <div id=""b-box""> <p class=""title-text"">B</p></div> <br> <div style='float: left;padding-left:30px;'><p>Press '1' for A</p></div><div style='float: right;padding-right:30px;'><p>Press '0' for B</p> </div> </div></div>","null","","","","","","","","","","","","","",""
"3440","","test","audio-keyboard-response","137","551757","0.0-8.0-1.54","5f1db15b22c07d01e51960ad","condA","","resources/audio/wordStim/S9_AU_13_axb_Step-3.wav","49","","","","","AU","resources/audio/wordStim/S9_AU_13_axb_Step-3.wav","S9","13","axb","3","CN","0","1","false"
"null","","fixation","html-keyboard-response","138","552789","0.0-8.0-0.55","5f1db15b22c07d01e51960ad","condA","","<div class=""vertical-center"" style='width:60%;'><p style='font-weight:bold;'>Does the middle word sound more like the first word (A) or the last word (B)?</p> <br> <div class=""container""> <div id=""a-box""> <p class=""title-text"">A</h3></p> </div> <div id=""x-box""> <p class=""title-text"">X<p> </div> <div id=""b-box""> <p class=""title-text"">B</p></div> <br> <div style='float: left;padding-left:30px;'><p>Press '1' for A</p></div><div style='float: right;padding-right:30px;'><p>Press '0' for B</p> </div> </div></div>","null","","","","","","","","","","","","","",""
"3421","","test","audio-keyboard-response","139","556219","0.0-8.0-1.55","5f1db15b22c07d01e51960ad","condA","","resources/audio/wordStim/S9_AU_18_axb_Step-9.wav","48","","","","","AU","resources/audio/wordStim/S9_AU_18_axb_Step-9.wav","S9","18","axb","9","CN","0","0","true"
"null","","fixation","html-keyboard-response","140","557249","0.0-8.0-0.56","5f1db15b22c07d01e51960ad","condA","","<div class=""vertical-center"" style='width:60%;'><p style='font-weight:bold;'>Does the middle word sound more like the first word (A) or the last word (B)?</p> <br> <div class=""container""> <div id=""a-box""> <p class=""title-text"">A</h3></p> </div> <div id=""x-box""> <p class=""title-text"">X<p> </div> <div id=""b-box""> <p class=""title-text"">B</p></div> <br> <div style='float: left;padding-left:30px;'><p>Press '1' for A</p></div><div style='float: right;padding-right:30px;'><p>Press '0' for B</p> </div> </div></div>","null","","","","","","","","","","","","","",""
"3539","","test","audio-keyboard-response","141","560796","0.0-8.0-1.56","5f1db15b22c07d01e51960ad","condA","","resources/audio/wordStim/S9_AU_18_bxa_Step-8.wav","49","","","","","AU","resources/audio/wordStim/S9_AU_18_bxa_Step-8.wav","S9","18","bxa","8","CN","1","1","true"
"null","","fixation","html-keyboard-response","142","561819","0.0-8.0-0.57","5f1db15b22c07d01e51960ad","condA","","<div class=""vertical-center"" style='width:60%;'><p style='font-weight:bold;'>Does the middle word sound more like the first word (A) or the last word (B)?</p> <br> <div class=""container""> <div id=""a-box""> <p class=""title-text"">A</h3></p> </div> <div id=""x-box""> <p class=""title-text"">X<p> </div> <div id=""b-box""> <p class=""title-text"">B</p></div> <br> <div style='float: left;padding-left:30px;'><p>Press '1' for A</p></div><div style='float: right;padding-right:30px;'><p>Press '0' for B</p> </div> </div></div>","null","","","","","","","","","","","","","",""
"4752","","test","audio-keyboard-response","143","566578","0.0-8.0-1.57","5f1db15b22c07d01e51960ad","condA","","resources/audio/wordStim/S9_AU_14_bxa_Step-4.wav","49","","","","","AU","resources/audio/wordStim/S9_AU_14_bxa_Step-4.wav","S9","14","bxa","4","CN","1","1","true"
"null","","fixation","html-keyboard-response","144","567599","0.0-8.0-0.58","5f1db15b22c07d01e51960ad","condA","","<div class=""vertical-center"" style='width:60%;'><p style='font-weight:bold;'>Does the middle word sound more like the first word (A) or the last word (B)?</p> <br> <div class=""container""> <div id=""a-box""> <p class=""title-text"">A</h3></p> </div> <div id=""x-box""> <p class=""title-text"">X<p> </div> <div id=""b-box""> <p class=""title-text"">B</p></div> <br> <div style='float: left;padding-left:30px;'><p>Press '1' for A</p></div><div style='float: right;padding-right:30px;'><p>Press '0' for B</p> </div> </div></div>","null","","","","","","","","","","","","","",""
"3859","","test","audio-keyboard-response","145","571464","0.0-8.0-1.58","5f1db15b22c07d01e51960ad","condA","","resources/audio/wordStim/S3_AU_18_bxa_Step-4.wav","49","","","","","AU","resources/audio/wordStim/S3_AU_18_bxa_Step-4.wav","S3","18","bxa","4","MI","1","1","true"
"null","","fixation","html-keyboard-response","146","572489","0.0-8.0-0.59","5f1db15b22c07d01e51960ad","condA","","<div class=""vertical-center"" style='width:60%;'><p style='font-weight:bold;'>Does the middle word sound more like the first word (A) or the last word (B)?</p> <br> <div class=""container""> <div id=""a-box""> <p class=""title-text"">A</h3></p> </div> <div id=""x-box""> <p class=""title-text"">X<p> </div> <div id=""b-box""> <p class=""title-text"">B</p></div> <br> <div style='float: left;padding-left:30px;'><p>Press '1' for A</p></div><div style='float: right;padding-right:30px;'><p>Press '0' for B</p> </div> </div></div>","null","","","","","","","","","","","","","",""
"3819","","test","audio-keyboard-response","147","576312","0.0-8.0-1.59","5f1db15b22c07d01e51960ad","condA","","resources/audio/wordStim/S9_AU_14_axb_Step-9.wav","48","","","","","AU","resources/audio/wordStim/S9_AU_14_axb_Step-9.wav","S9","14","axb","9","CN","0","0","true"
"null","","fixation","html-keyboard-response","148","577339","0.0-8.0-0.60","5f1db15b22c07d01e51960ad","condA","","<div class=""vertical-center"" style='width:60%;'><p style='font-weight:bold;'>Does the middle word sound more like the first word (A) or the last word (B)?</p> <br> <div class=""container""> <div id=""a-box""> <p class=""title-text"">A</h3></p> </div> <div id=""x-box""> <p class=""title-text"">X<p> </div> <div id=""b-box""> <p class=""title-text"">B</p></div> <br> <div style='float: left;padding-left:30px;'><p>Press '1' for A</p></div><div style='float: right;padding-right:30px;'><p>Press '0' for B</p> </div> </div></div>","null","","","","","","","","","","","","","",""
"2701","","test","audio-keyboard-response","149","580046","0.0-8.0-1.60","5f1db15b22c07d01e51960ad","condA","","resources/audio/wordStim/S3_AU_14_bxa_Step-6.wav","48","","","","","AU","resources/audio/wordStim/S3_AU_14_bxa_Step-6.wav","S3","14","bxa","6","MI","1","0","false"
"null","","fixation","html-keyboard-response","150","581069","0.0-8.0-0.61","5f1db15b22c07d01e51960ad","condA","","<div class=""vertical-center"" style='width:60%;'><p style='font-weight:bold;'>Does the middle word sound more like the first word (A) or the last word (B)?</p> <br> <div class=""container""> <div id=""a-box""> <p class=""title-text"">A</h3></p> </div> <div id=""x-box""> <p class=""title-text"">X<p> </div> <div id=""b-box""> <p class=""title-text"">B</p></div> <br> <div style='float: left;padding-left:30px;'><p>Press '1' for A</p></div><div style='float: right;padding-right:30px;'><p>Press '0' for B</p> </div> </div></div>","null","","","","","","","","","","","","","",""
"3749","","test","audio-keyboard-response","151","584828","0.0-8.0-1.61","5f1db15b22c07d01e51960ad","condA","","resources/audio/wordStim/S9_AU_18_bxa_Step-6.wav","49","","","","","AU","resources/audio/wordStim/S9_AU_18_bxa_Step-6.wav","S9","18","bxa","6","CN","1","1","true"
"null","","fixation","html-keyboard-response","152","585849","0.0-8.0-0.62","5f1db15b22c07d01e51960ad","condA","","<div class=""vertical-center"" style='width:60%;'><p style='font-weight:bold;'>Does the middle word sound more like the first word (A) or the last word (B)?</p> <br> <div class=""container""> <div id=""a-box""> <p class=""title-text"">A</h3></p> </div> <div id=""x-box""> <p class=""title-text"">X<p> </div> <div id=""b-box""> <p class=""title-text"">B</p></div> <br> <div style='float: left;padding-left:30px;'><p>Press '1' for A</p></div><div style='float: right;padding-right:30px;'><p>Press '0' for B</p> </div> </div></div>","null","","","","","","","","","","","","","",""
"3819","","test","audio-keyboard-response","153","589676","0.0-8.0-1.62","5f1db15b22c07d01e51960ad","condA","","resources/audio/wordStim/S9_AU_11_bxa_Step-8.wav","49","","","","","AU","resources/audio/wordStim/S9_AU_11_bxa_Step-8.wav","S9","11","bxa","8","CN","1","1","true"
"null","","fixation","html-keyboard-response","154","590709","0.0-8.0-0.63","5f1db15b22c07d01e51960ad","condA","","<div class=""vertical-center"" style='width:60%;'><p style='font-weight:bold;'>Does the middle word sound more like the first word (A) or the last word (B)?</p> <br> <div class=""container""> <div id=""a-box""> <p class=""title-text"">A</h3></p> </div> <div id=""x-box""> <p class=""title-text"">X<p> </div> <div id=""b-box""> <p class=""title-text"">B</p></div> <br> <div style='float: left;padding-left:30px;'><p>Press '1' for A</p></div><div style='float: right;padding-right:30px;'><p>Press '0' for B</p> </div> </div></div>","null","","","","","","","","","","","","","",""
"3661","","test","audio-keyboard-response","155","594379","0.0-8.0-1.63","5f1db15b22c07d01e51960ad","condA","","resources/audio/wordStim/S9_AU_20_axb_Step-5.wav","48","","","","","AU","resources/audio/wordStim/S9_AU_20_axb_Step-5.wav","S9","20","axb","5","CN","0","0","true"
"null","","fixation","html-keyboard-response","156","595409","0.0-8.0-0.64","5f1db15b22c07d01e51960ad","condA","","<div class=""vertical-center"" style='width:60%;'><p style='font-weight:bold;'>Does the middle word sound more like the first word (A) or the last word (B)?</p> <br> <div class=""container""> <div id=""a-box""> <p class=""title-text"">A</h3></p> </div> <div id=""x-box""> <p class=""title-text"">X<p> </div> <div id=""b-box""> <p class=""title-text"">B</p></div> <br> <div style='float: left;padding-left:30px;'><p>Press '1' for A</p></div><div style='float: right;padding-right:30px;'><p>Press '0' for B</p> </div> </div></div>","null","","","","","","","","","","","","","",""
"4349","","test","audio-keyboard-response","157","599765","0.0-8.0-1.64","5f1db15b22c07d01e51960ad","condA","","resources/audio/wordStim/S3_AI_25_bxa_Step-2.wav","49","","","","","AI","resources/audio/wordStim/S3_AI_25_bxa_Step-2.wav","S3","25","bxa","2","MI","1","1","true"
"null","","fixation","html-keyboard-response","158","600789","0.0-8.0-0.65","5f1db15b22c07d01e51960ad","condA","","<div class=""vertical-center"" style='width:60%;'><p style='font-weight:bold;'>Does the middle word sound more like the first word (A) or the last word (B)?</p> <br> <div class=""container""> <div id=""a-box""> <p class=""title-text"">A</h3></p> </div> <div id=""x-box""> <p class=""title-text"">X<p> </div> <div id=""b-box""> <p class=""title-text"">B</p></div> <br> <div style='float: left;padding-left:30px;'><p>Press '1' for A</p></div><div style='float: right;padding-right:30px;'><p>Press '0' for B</p> </div> </div></div>","null","","","","","","","","","","","","","",""
"6701","","test","audio-keyboard-response","159","607495","0.0-8.0-1.65","5f1db15b22c07d01e51960ad","condA","","resources/audio/wordStim/S3_AI_28_axb_Step-9.wav","48","","","","","AI","resources/audio/wordStim/S3_AI_28_axb_Step-9.wav","S3","28","axb","9","MI","0","0","true"
"null","","fixation","html-keyboard-response","160","608502","0.0-8.0-0.66","5f1db15b22c07d01e51960ad","condA","","<div class=""vertical-center"" style='width:60%;'><p style='font-weight:bold;'>Does the middle word sound more like the first word (A) or the last word (B)?</p> <br> <div class=""container""> <div id=""a-box""> <p class=""title-text"">A</h3></p> </div> <div id=""x-box""> <p class=""title-text"">X<p> </div> <div id=""b-box""> <p class=""title-text"">B</p></div> <br> <div style='float: left;padding-left:30px;'><p>Press '1' for A</p></div><div style='float: right;padding-right:30px;'><p>Press '0' for B</p> </div> </div></div>","null","","","","","","","","","","","","","",""
"2880","","test","audio-keyboard-response","161","611389","0.0-8.0-1.66","5f1db15b22c07d01e51960ad","condA","","resources/audio/wordStim/S3_AU_20_axb_Step-10.wav","48","","","","","AU","resources/audio/wordStim/S3_AU_20_axb_Step-10.wav","S3","20","axb","10","MI","0","0","true"
"null","","fixation","html-keyboard-response","162","612419","0.0-8.0-0.67","5f1db15b22c07d01e51960ad","condA","","<div class=""vertical-center"" style='width:60%;'><p style='font-weight:bold;'>Does the middle word sound more like the first word (A) or the last word (B)?</p> <br> <div class=""container""> <div id=""a-box""> <p class=""title-text"">A</h3></p> </div> <div id=""x-box""> <p class=""title-text"">X<p> </div> <div id=""b-box""> <p class=""title-text"">B</p></div> <br> <div style='float: left;padding-left:30px;'><p>Press '1' for A</p></div><div style='float: right;padding-right:30px;'><p>Press '0' for B</p> </div> </div></div>","null","","","","","","","","","","","","","",""
"3472","","test","audio-keyboard-response","163","615895","0.0-8.0-1.67","5f1db15b22c07d01e51960ad","condA","","resources/audio/wordStim/S9_AI_24_bxa_Step-8.wav","49","","","","","AI","resources/audio/wordStim/S9_AI_24_bxa_Step-8.wav","S9","24","bxa","8","CN","1","1","true"
"null","","fixation","html-keyboard-response","164","616919","0.0-8.0-0.68","5f1db15b22c07d01e51960ad","condA","","<div class=""vertical-center"" style='width:60%;'><p style='font-weight:bold;'>Does the middle word sound more like the first word (A) or the last word (B)?</p> <br> <div class=""container""> <div id=""a-box""> <p class=""title-text"">A</h3></p> </div> <div id=""x-box""> <p class=""title-text"">X<p> </div> <div id=""b-box""> <p class=""title-text"">B</p></div> <br> <div style='float: left;padding-left:30px;'><p>Press '1' for A</p></div><div style='float: right;padding-right:30px;'><p>Press '0' for B</p> </div> </div></div>","null","","","","","","","","","","","","","",""
"3891","","test","audio-keyboard-response","165","620815","0.0-8.0-1.68","5f1db15b22c07d01e51960ad","condA","","resources/audio/wordStim/S3_AU_17_bxa_Step-4.wav","48","","","","","AU","resources/audio/wordStim/S3_AU_17_bxa_Step-4.wav","S3","17","bxa","4","MI","1","0","false"
"null","","fixation","html-keyboard-response","166","621839","0.0-8.0-0.69","5f1db15b22c07d01e51960ad","condA","","<div class=""vertical-center"" style='width:60%;'><p style='font-weight:bold;'>Does the middle word sound more like the first word (A) or the last word (B)?</p> <br> <div class=""container""> <div id=""a-box""> <p class=""title-text"">A</h3></p> </div> <div id=""x-box""> <p class=""title-text"">X<p> </div> <div id=""b-box""> <p class=""title-text"">B</p></div> <br> <div style='float: left;padding-left:30px;'><p>Press '1' for A</p></div><div style='float: right;padding-right:30px;'><p>Press '0' for B</p> </div> </div></div>","null","","","","","","","","","","","","","",""
"3120","","test","audio-keyboard-response","167","624967","0.0-8.0-1.69","5f1db15b22c07d01e51960ad","condA","","resources/audio/wordStim/S3_AU_19_axb_Step-3.wav","49","","","","","AU","resources/audio/wordStim/S3_AU_19_axb_Step-3.wav","S3","19","axb","3","MI","0","1","false"
"null","","fixation","html-keyboard-response","168","625989","0.0-8.0-0.70","5f1db15b22c07d01e51960ad","condA","","<div class=""vertical-center"" style='width:60%;'><p style='font-weight:bold;'>Does the middle word sound more like the first word (A) or the last word (B)?</p> <br> <div class=""container""> <div id=""a-box""> <p class=""title-text"">A</h3></p> </div> <div id=""x-box""> <p class=""title-text"">X<p> </div> <div id=""b-box""> <p class=""title-text"">B</p></div> <br> <div style='float: left;padding-left:30px;'><p>Press '1' for A</p></div><div style='float: right;padding-right:30px;'><p>Press '0' for B</p> </div> </div></div>","null","","","","","","","","","","","","","",""
"3840","","test","audio-keyboard-response","169","629837","0.0-8.0-1.70","5f1db15b22c07d01e51960ad","condA","","resources/audio/wordStim/S9_AI_23_axb_Step-3.wav","49","","","","","AI","resources/audio/wordStim/S9_AI_23_axb_Step-3.wav","S9","23","axb","3","CN","0","1","false"
"null","","fixation","html-keyboard-response","170","630849","0.0-8.0-0.71","5f1db15b22c07d01e51960ad","condA","","<div class=""vertical-center"" style='width:60%;'><p style='font-weight:bold;'>Does the middle word sound more like the first word (A) or the last word (B)?</p> <br> <div class=""container""> <div id=""a-box""> <p class=""title-text"">A</h3></p> </div> <div id=""x-box""> <p class=""title-text"">X<p> </div> <div id=""b-box""> <p class=""title-text"">B</p></div> <br> <div style='float: left;padding-left:30px;'><p>Press '1' for A</p></div><div style='float: right;padding-right:30px;'><p>Press '0' for B</p> </div> </div></div>","null","","","","","","","","","","","","","",""
"3339","","test","audio-keyboard-response","171","634199","0.0-8.0-1.71","5f1db15b22c07d01e51960ad","condA","","resources/audio/wordStim/S9_AI_29_axb_Step-10.wav","49","","","","","AI","resources/audio/wordStim/S9_AI_29_axb_Step-10.wav","S9","29","axb","10","CN","0","1","false"
"null","","fixation","html-keyboard-response","172","635219","0.0-8.0-0.72","5f1db15b22c07d01e51960ad","condA","","<div class=""vertical-center"" style='width:60%;'><p style='font-weight:bold;'>Does the middle word sound more like the first word (A) or the last word (B)?</p> <br> <div class=""container""> <div id=""a-box""> <p class=""title-text"">A</h3></p> </div> <div id=""x-box""> <p class=""title-text"">X<p> </div> <div id=""b-box""> <p class=""title-text"">B</p></div> <br> <div style='float: left;padding-left:30px;'><p>Press '1' for A</p></div><div style='float: right;padding-right:30px;'><p>Press '0' for B</p> </div> </div></div>","null","","","","","","","","","","","","","",""
"2832","","test","audio-keyboard-response","173","638052","0.0-8.0-1.72","5f1db15b22c07d01e51960ad","condA","","resources/audio/wordStim/S3_AU_15_bxa_Step-6.wav","49","","","","","AU","resources/audio/wordStim/S3_AU_15_bxa_Step-6.wav","S3","15","bxa","6","MI","1","1","true"
"null","","fixation","html-keyboard-response","174","639069","0.0-8.0-0.73","5f1db15b22c07d01e51960ad","condA","","<div class=""vertical-center"" style='width:60%;'><p style='font-weight:bold;'>Does the middle word sound more like the first word (A) or the last word (B)?</p> <br> <div class=""container""> <div id=""a-box""> <p class=""title-text"">A</h3></p> </div> <div id=""x-box""> <p class=""title-text"">X<p> </div> <div id=""b-box""> <p class=""title-text"">B</p></div> <br> <div style='float: left;padding-left:30px;'><p>Press '1' for A</p></div><div style='float: right;padding-right:30px;'><p>Press '0' for B</p> </div> </div></div>","null","","","","","","","","","","","","","",""
"2909","","test","audio-keyboard-response","175","641980","0.0-8.0-1.73","5f1db15b22c07d01e51960ad","condA","","resources/audio/wordStim/S3_AU_15_bxa_Step-4.wav","49","","","","","AU","resources/audio/wordStim/S3_AU_15_bxa_Step-4.wav","S3","15","bxa","4","MI","1","1","true"
"null","","fixation","html-keyboard-response","176","643009","0.0-8.0-0.74","5f1db15b22c07d01e51960ad","condA","","<div class=""vertical-center"" style='width:60%;'><p style='font-weight:bold;'>Does the middle word sound more like the first word (A) or the last word (B)?</p> <br> <div class=""container""> <div id=""a-box""> <p class=""title-text"">A</h3></p> </div> <div id=""x-box""> <p class=""title-text"">X<p> </div> <div id=""b-box""> <p class=""title-text"">B</p></div> <br> <div style='float: left;padding-left:30px;'><p>Press '1' for A</p></div><div style='float: right;padding-right:30px;'><p>Press '0' for B</p> </div> </div></div>","null","","","","","","","","","","","","","",""
"3360","","test","audio-keyboard-response","177","646378","0.0-8.0-1.74","5f1db15b22c07d01e51960ad","condA","","resources/audio/wordStim/S3_AI_28_axb_Step-5.wav","49","","","","","AI","resources/audio/wordStim/S3_AI_28_axb_Step-5.wav","S3","28","axb","5","MI","0","1","false"
"null","","fixation","html-keyboard-response","178","647409","0.0-8.0-0.75","5f1db15b22c07d01e51960ad","condA","","<div class=""vertical-center"" style='width:60%;'><p style='font-weight:bold;'>Does the middle word sound more like the first word (A) or the last word (B)?</p> <br> <div class=""container""> <div id=""a-box""> <p class=""title-text"">A</h3></p> </div> <div id=""x-box""> <p class=""title-text"">X<p> </div> <div id=""b-box""> <p class=""title-text"">B</p></div> <br> <div style='float: left;padding-left:30px;'><p>Press '1' for A</p></div><div style='float: right;padding-right:30px;'><p>Press '0' for B</p> </div> </div></div>","null","","","","","","","","","","","","","",""
"5099","","test","audio-keyboard-response","179","652512","0.0-8.0-1.75","5f1db15b22c07d01e51960ad","condA","","resources/audio/wordStim/S9_AI_22_bxa_Step-4.wav","48","","","","","AI","resources/audio/wordStim/S9_AI_22_bxa_Step-4.wav","S9","22","bxa","4","CN","1","0","false"
"null","","fixation","html-keyboard-response","180","653516","0.0-8.0-0.76","5f1db15b22c07d01e51960ad","condA","","<div class=""vertical-center"" style='width:60%;'><p style='font-weight:bold;'>Does the middle word sound more like the first word (A) or the last word (B)?</p> <br> <div class=""container""> <div id=""a-box""> <p class=""title-text"">A</h3></p> </div> <div id=""x-box""> <p class=""title-text"">X<p> </div> <div id=""b-box""> <p class=""title-text"">B</p></div> <br> <div style='float: left;padding-left:30px;'><p>Press '1' for A</p></div><div style='float: right;padding-right:30px;'><p>Press '0' for B</p> </div> </div></div>","null","","","","","","","","","","","","","",""
"4909","","test","audio-keyboard-response","181","658425","0.0-8.0-1.76","5f1db15b22c07d01e51960ad","condA","","resources/audio/wordStim/S3_AI_30_bxa_Step-8.wav","49","","","","","AI","resources/audio/wordStim/S3_AI_30_bxa_Step-8.wav","S3","30","bxa","8","MI","1","1","true"
"null","","fixation","html-keyboard-response","182","659431","0.0-8.0-0.77","5f1db15b22c07d01e51960ad","condA","","<div class=""vertical-center"" style='width:60%;'><p style='font-weight:bold;'>Does the middle word sound more like the first word (A) or the last word (B)?</p> <br> <div class=""container""> <div id=""a-box""> <p class=""title-text"">A</h3></p> </div> <div id=""x-box""> <p class=""title-text"">X<p> </div> <div id=""b-box""> <p class=""title-text"">B</p></div> <br> <div style='float: left;padding-left:30px;'><p>Press '1' for A</p></div><div style='float: right;padding-right:30px;'><p>Press '0' for B</p> </div> </div></div>","null","","","","","","","","","","","","","",""
"3381","","test","audio-keyboard-response","183","662819","0.0-8.0-1.77","5f1db15b22c07d01e51960ad","condA","","resources/audio/wordStim/S9_AU_17_axb_Step-9.wav","49","","","","","AU","resources/audio/wordStim/S9_AU_17_axb_Step-9.wav","S9","17","axb","9","CN","0","1","false"
"null","","fixation","html-keyboard-response","184","663849","0.0-8.0-0.78","5f1db15b22c07d01e51960ad","condA","","<div class=""vertical-center"" style='width:60%;'><p style='font-weight:bold;'>Does the middle word sound more like the first word (A) or the last word (B)?</p> <br> <div class=""container""> <div id=""a-box""> <p class=""title-text"">A</h3></p> </div> <div id=""x-box""> <p class=""title-text"">X<p> </div> <div id=""b-box""> <p class=""title-text"">B</p></div> <br> <div style='float: left;padding-left:30px;'><p>Press '1' for A</p></div><div style='float: right;padding-right:30px;'><p>Press '0' for B</p> </div> </div></div>","null","","","","","","","","","","","","","",""
"3200","","test","audio-keyboard-response","185","667057","0.0-8.0-1.78","5f1db15b22c07d01e51960ad","condA","","resources/audio/wordStim/S3_AU_19_bxa_Step-6.wav","49","","","","","AU","resources/audio/wordStim/S3_AU_19_bxa_Step-6.wav","S3","19","bxa","6","MI","1","1","true"
"null","","fixation","html-keyboard-response","186","668069","0.0-8.0-0.79","5f1db15b22c07d01e51960ad","condA","","<div class=""vertical-center"" style='width:60%;'><p style='font-weight:bold;'>Does the middle word sound more like the first word (A) or the last word (B)?</p> <br> <div class=""container""> <div id=""a-box""> <p class=""title-text"">A</h3></p> </div> <div id=""x-box""> <p class=""title-text"">X<p> </div> <div id=""b-box""> <p class=""title-text"">B</p></div> <br> <div style='float: left;padding-left:30px;'><p>Press '1' for A</p></div><div style='float: right;padding-right:30px;'><p>Press '0' for B</p> </div> </div></div>","null","","","","","","","","","","","","","",""
"2989","","test","audio-keyboard-response","187","671070","0.0-8.0-1.79","5f1db15b22c07d01e51960ad","condA","","resources/audio/wordStim/S9_AU_16_axb_Step-9.wav","48","","","","","AU","resources/audio/wordStim/S9_AU_16_axb_Step-9.wav","S9","16","axb","9","CN","0","0","true"
"null","","fixation","html-keyboard-response","188","672090","0.0-8.0-0.80","5f1db15b22c07d01e51960ad","condA","","<div class=""vertical-center"" style='width:60%;'><p style='font-weight:bold;'>Does the middle word sound more like the first word (A) or the last word (B)?</p> <br> <div class=""container""> <div id=""a-box""> <p class=""title-text"">A</h3></p> </div> <div id=""x-box""> <p class=""title-text"">X<p> </div> <div id=""b-box""> <p class=""title-text"">B</p></div> <br> <div style='float: left;padding-left:30px;'><p>Press '1' for A</p></div><div style='float: right;padding-right:30px;'><p>Press '0' for B</p> </div> </div></div>","null","","","","","","","","","","","","","",""
"3149","","test","audio-keyboard-response","189","675245","0.0-8.0-1.80","5f1db15b22c07d01e51960ad","condA","","resources/audio/wordStim/S9_AI_29_axb_Step-5.wav","49","","","","","AI","resources/audio/wordStim/S9_AI_29_axb_Step-5.wav","S9","29","axb","5","CN","0","1","false"
"101983.94999996526","","break","html-keyboard-response","190","777744","0.0-8.0-2.80-0.80","5f1db15b22c07d01e51960ad","condA","","<div class=""vertical-center""><p>Feel free to take a break!</p><i>When you're ready to continue, press SPACE to begin the next trial.</i></p></div>","32","","","","","","","","","","","","","",""
"null","","fixation","html-keyboard-response","191","778247","0.0-8.0-0.81","5f1db15b22c07d01e51960ad","condA","","<div class=""vertical-center"" style='width:60%;'><p style='font-weight:bold;'>Does the middle word sound more like the first word (A) or the last word (B)?</p> <br> <div class=""container""> <div id=""a-box""> <p class=""title-text"">A</h3></p> </div> <div id=""x-box""> <p class=""title-text"">X<p> </div> <div id=""b-box""> <p class=""title-text"">B</p></div> <br> <div style='float: left;padding-left:30px;'><p>Press '1' for A</p></div><div style='float: right;padding-right:30px;'><p>Press '0' for B</p> </div> </div></div>","null","","","","","","","","","","","","","",""
"3659","","test","audio-keyboard-response","192","782183","0.0-8.0-1.81","5f1db15b22c07d01e51960ad","condA","","resources/audio/wordStim/S9_AI_24_bxa_Step-4.wav","49","","","","","AI","resources/audio/wordStim/S9_AI_24_bxa_Step-4.wav","S9","24","bxa","4","CN","1","1","true"
"null","","fixation","html-keyboard-response","193","783215","0.0-8.0-0.82","5f1db15b22c07d01e51960ad","condA","","<div class=""vertical-center"" style='width:60%;'><p style='font-weight:bold;'>Does the middle word sound more like the first word (A) or the last word (B)?</p> <br> <div class=""container""> <div id=""a-box""> <p class=""title-text"">A</h3></p> </div> <div id=""x-box""> <p class=""title-text"">X<p> </div> <div id=""b-box""> <p class=""title-text"">B</p></div> <br> <div style='float: left;padding-left:30px;'><p>Press '1' for A</p></div><div style='float: right;padding-right:30px;'><p>Press '0' for B</p> </div> </div></div>","null","","","","","","","","","","","","","",""
"3520","","test","audio-keyboard-response","194","786741","0.0-8.0-1.82","5f1db15b22c07d01e51960ad","condA","","resources/audio/wordStim/S3_AI_25_bxa_Step-4.wav","49","","","","","AI","resources/audio/wordStim/S3_AI_25_bxa_Step-4.wav","S3","25","bxa","4","MI","1","1","true"
"null","","fixation","html-keyboard-response","195","787755","0.0-8.0-0.83","5f1db15b22c07d01e51960ad","condA","","<div class=""vertical-center"" style='width:60%;'><p style='font-weight:bold;'>Does the middle word sound more like the first word (A) or the last word (B)?</p> <br> <div class=""container""> <div id=""a-box""> <p class=""title-text"">A</h3></p> </div> <div id=""x-box""> <p class=""title-text"">X<p> </div> <div id=""b-box""> <p class=""title-text"">B</p></div> <br> <div style='float: left;padding-left:30px;'><p>Press '1' for A</p></div><div style='float: right;padding-right:30px;'><p>Press '0' for B</p> </div> </div></div>","null","","","","","","","","","","","","","",""
"7728","","test","audio-keyboard-response","196","795487","0.0-8.0-1.83","5f1db15b22c07d01e51960ad","condA","","resources/audio/wordStim/S9_AI_23_axb_Step-10.wav","48","","","","","AI","resources/audio/wordStim/S9_AI_23_axb_Step-10.wav","S9","23","axb","10","CN","0","0","true"
"null","","fixation","html-keyboard-response","197","796515","0.0-8.0-0.84","5f1db15b22c07d01e51960ad","condA","","<div class=""vertical-center"" style='width:60%;'><p style='font-weight:bold;'>Does the middle word sound more like the first word (A) or the last word (B)?</p> <br> <div class=""container""> <div id=""a-box""> <p class=""title-text"">A</h3></p> </div> <div id=""x-box""> <p class=""title-text"">X<p> </div> <div id=""b-box""> <p class=""title-text"">B</p></div> <br> <div style='float: left;padding-left:30px;'><p>Press '1' for A</p></div><div style='float: right;padding-right:30px;'><p>Press '0' for B</p> </div> </div></div>","null","","","","","","","","","","","","","",""
"3160","","test","audio-keyboard-response","198","799679","0.0-8.0-1.84","5f1db15b22c07d01e51960ad","condA","","resources/audio/wordStim/S9_AI_29_bxa_Step-6.wav","48","","","","","AI","resources/audio/wordStim/S9_AI_29_bxa_Step-6.wav","S9","29","bxa","6","CN","1","0","false"
"null","","fixation","html-keyboard-response","199","800690","0.0-8.0-0.85","5f1db15b22c07d01e51960ad","condA","","<div class=""vertical-center"" style='width:60%;'><p style='font-weight:bold;'>Does the middle word sound more like the first word (A) or the last word (B)?</p> <br> <div class=""container""> <div id=""a-box""> <p class=""title-text"">A</h3></p> </div> <div id=""x-box""> <p class=""title-text"">X<p> </div> <div id=""b-box""> <p class=""title-text"">B</p></div> <br> <div style='float: left;padding-left:30px;'><p>Press '1' for A</p></div><div style='float: right;padding-right:30px;'><p>Press '0' for B</p> </div> </div></div>","null","","","","","","","","","","","","","",""
"4680","","test","audio-keyboard-response","200","805374","0.0-8.0-1.85","5f1db15b22c07d01e51960ad","condA","","resources/audio/wordStim/S9_AI_25_axb_Step-10.wav","48","","","","","AI","resources/audio/wordStim/S9_AI_25_axb_Step-10.wav","S9","25","axb","10","CN","0","0","true"
"null","","fixation","html-keyboard-response","201","806395","0.0-8.0-0.86","5f1db15b22c07d01e51960ad","condA","","<div class=""vertical-center"" style='width:60%;'><p style='font-weight:bold;'>Does the middle word sound more like the first word (A) or the last word (B)?</p> <br> <div class=""container""> <div id=""a-box""> <p class=""title-text"">A</h3></p> </div> <div id=""x-box""> <p class=""title-text"">X<p> </div> <div id=""b-box""> <p class=""title-text"">B</p></div> <br> <div style='float: left;padding-left:30px;'><p>Press '1' for A</p></div><div style='float: right;padding-right:30px;'><p>Press '0' for B</p> </div> </div></div>","null","","","","","","","","","","","","","",""
"3360","","test","audio-keyboard-response","202","809762","0.0-8.0-1.86","5f1db15b22c07d01e51960ad","condA","","resources/audio/wordStim/S3_AU_18_axb_Step-3.wav","49","","","","","AU","resources/audio/wordStim/S3_AU_18_axb_Step-3.wav","S3","18","axb","3","MI","0","1","false"
"null","","fixation","html-keyboard-response","203","810785","0.0-8.0-0.87","5f1db15b22c07d01e51960ad","condA","","<div class=""vertical-center"" style='width:60%;'><p style='font-weight:bold;'>Does the middle word sound more like the first word (A) or the last word (B)?</p> <br> <div class=""container""> <div id=""a-box""> <p class=""title-text"">A</h3></p> </div> <div id=""x-box""> <p class=""title-text"">X<p> </div> <div id=""b-box""> <p class=""title-text"">B</p></div> <br> <div style='float: left;padding-left:30px;'><p>Press '1' for A</p></div><div style='float: right;padding-right:30px;'><p>Press '0' for B</p> </div> </div></div>","null","","","","","","","","","","","","","",""
"2989","","test","audio-keyboard-response","204","813786","0.0-8.0-1.87","5f1db15b22c07d01e51960ad","condA","","resources/audio/wordStim/S9_AU_14_bxa_Step-6.wav","48","","","","","AU","resources/audio/wordStim/S9_AU_14_bxa_Step-6.wav","S9","14","bxa","6","CN","1","0","false"
"null","","fixation","html-keyboard-response","205","814815","0.0-8.0-0.88","5f1db15b22c07d01e51960ad","condA","","<div class=""vertical-center"" style='width:60%;'><p style='font-weight:bold;'>Does the middle word sound more like the first word (A) or the last word (B)?</p> <br> <div class=""container""> <div id=""a-box""> <p class=""title-text"">A</h3></p> </div> <div id=""x-box""> <p class=""title-text"">X<p> </div> <div id=""b-box""> <p class=""title-text"">B</p></div> <br> <div style='float: left;padding-left:30px;'><p>Press '1' for A</p></div><div style='float: right;padding-right:30px;'><p>Press '0' for B</p> </div> </div></div>","null","","","","","","","","","","","","","",""
"2829","","test","audio-keyboard-response","206","817655","0.0-8.0-1.88","5f1db15b22c07d01e51960ad","condA","","resources/audio/wordStim/S3_AI_23_axb_Step-9.wav","48","","","","","AI","resources/audio/wordStim/S3_AI_23_axb_Step-9.wav","S3","23","axb","9","MI","0","0","true"
"null","","fixation","html-keyboard-response","207","818667","0.0-8.0-0.89","5f1db15b22c07d01e51960ad","condA","","<div class=""vertical-center"" style='width:60%;'><p style='font-weight:bold;'>Does the middle word sound more like the first word (A) or the last word (B)?</p> <br> <div class=""container""> <div id=""a-box""> <p class=""title-text"">A</h3></p> </div> <div id=""x-box""> <p class=""title-text"">X<p> </div> <div id=""b-box""> <p class=""title-text"">B</p></div> <br> <div style='float: left;padding-left:30px;'><p>Press '1' for A</p></div><div style='float: right;padding-right:30px;'><p>Press '0' for B</p> </div> </div></div>","null","","","","","","","","","","","","","",""
"3629","","test","audio-keyboard-response","208","822303","0.0-8.0-1.89","5f1db15b22c07d01e51960ad","condA","","resources/audio/wordStim/S9_AI_30_bxa_Step-4.wav","49","","","","","AI","resources/audio/wordStim/S9_AI_30_bxa_Step-4.wav","S9","30","bxa","4","CN","1","1","true"
"null","","fixation","html-keyboard-response","209","823335","0.0-8.0-0.90","5f1db15b22c07d01e51960ad","condA","","<div class=""vertical-center"" style='width:60%;'><p style='font-weight:bold;'>Does the middle word sound more like the first word (A) or the last word (B)?</p> <br> <div class=""container""> <div id=""a-box""> <p class=""title-text"">A</h3></p> </div> <div id=""x-box""> <p class=""title-text"">X<p> </div> <div id=""b-box""> <p class=""title-text"">B</p></div> <br> <div style='float: left;padding-left:30px;'><p>Press '1' for A</p></div><div style='float: right;padding-right:30px;'><p>Press '0' for B</p> </div> </div></div>","null","","","","","","","","","","","","","",""
"3651","","test","audio-keyboard-response","210","826996","0.0-8.0-1.90","5f1db15b22c07d01e51960ad","condA","","resources/audio/wordStim/S3_AU_18_bxa_Step-8.wav","49","","","","","AU","resources/audio/wordStim/S3_AU_18_bxa_Step-8.wav","S3","18","bxa","8","MI","1","1","true"
"null","","fixation","html-keyboard-response","211","828035","0.0-8.0-0.91","5f1db15b22c07d01e51960ad","condA","","<div class=""vertical-center"" style='width:60%;'><p style='font-weight:bold;'>Does the middle word sound more like the first word (A) or the last word (B)?</p> <br> <div class=""container""> <div id=""a-box""> <p class=""title-text"">A</h3></p> </div> <div id=""x-box""> <p class=""title-text"">X<p> </div> <div id=""b-box""> <p class=""title-text"">B</p></div> <br> <div style='float: left;padding-left:30px;'><p>Press '1' for A</p></div><div style='float: right;padding-right:30px;'><p>Press '0' for B</p> </div> </div></div>","null","","","","","","","","","","","","","",""
"3269","","test","audio-keyboard-response","212","831312","0.0-8.0-1.91","5f1db15b22c07d01e51960ad","condA","","resources/audio/wordStim/S3_AI_21_axb_Step-10.wav","48","","","","","AI","resources/audio/wordStim/S3_AI_21_axb_Step-10.wav","S3","21","axb","10","MI","0","0","true"
"null","","fixation","html-keyboard-response","213","832335","0.0-8.0-0.92","5f1db15b22c07d01e51960ad","condA","","<div class=""vertical-center"" style='width:60%;'><p style='font-weight:bold;'>Does the middle word sound more like the first word (A) or the last word (B)?</p> <br> <div class=""container""> <div id=""a-box""> <p class=""title-text"">A</h3></p> </div> <div id=""x-box""> <p class=""title-text"">X<p> </div> <div id=""b-box""> <p class=""title-text"">B</p></div> <br> <div style='float: left;padding-left:30px;'><p>Press '1' for A</p></div><div style='float: right;padding-right:30px;'><p>Press '0' for B</p> </div> </div></div>","null","","","","","","","","","","","","","",""
"3091","","test","audio-keyboard-response","214","835427","0.0-8.0-1.92","5f1db15b22c07d01e51960ad","condA","","resources/audio/wordStim/S3_AI_21_axb_Step-7.wav","49","","","","","AI","resources/audio/wordStim/S3_AI_21_axb_Step-7.wav","S3","21","axb","7","MI","0","1","false"
