"rt","url","trial_role","trial_type","trial_index","time_elapsed","internal_node_id","participantId","condition","view_history","stimulus","key_press","button_pressed","correct_answer","correct_response","success","vowel","wordStim","speaker","sentNum","order","step","speakerIdentity","raised_answer","key_response","raised_response"
"14714.670000132173","micr.con.consent.html","consent","external-html","0","14957","0.0-0.0","5a6b35d3d5d4cb0001d643d8","condB","","","","","","","","","","","","","","","","",""
"58156.59000002779","","instructions","instructions","1","73121","0.0-1.0","5a6b35d3d5d4cb0001d643d8","condB","[{""page_index"":0,""viewing_time"":17230.52500002086},{""page_index"":1,""viewing_time"":25007.099999813363},{""page_index"":2,""viewing_time"":15915.295000188053}]","","","","","","","","","","","","","","","",""
"null","","fixation","html-keyboard-response","2","73627","0.0-2.0-0.0","5a6b35d3d5d4cb0001d643d8","condB","","<div class=""vertical-center"" style=""font-size:60px;"">+</div>","null","","","","","","","","","","","","","",""
"22230.679999804124","","tonetest","audio-button-response","3","95866","0.0-2.0-1.0","5a6b35d3d5d4cb0001d643d8","condB","","../../src/audio/toneTest_6.wav","","0","0","true","","","","","","","","","","",""
"null","","fixation","html-keyboard-response","4","96372","0.0-2.0-0.1","5a6b35d3d5d4cb0001d643d8","condB","","<div class=""vertical-center"" style=""font-size:60px;"">+</div>","null","","","","","","","","","","","","","",""
"78835.60999995098","","tonetest","audio-button-response","5","175216","0.0-2.0-1.1","5a6b35d3d5d4cb0001d643d8","condB","","../../src/audio/toneTest_1.wav","","0","2","false","","","","","","","","","","",""
"null","","fixation","html-keyboard-response","6","175720","0.0-2.0-0.2","5a6b35d3d5d4cb0001d643d8","condB","","<div class=""vertical-center"" style=""font-size:60px;"">+</div>","null","","","","","","","","","","","","","",""
"4355.96500011161","","tonetest","audio-button-response","7","180083","0.0-2.0-1.2","5a6b35d3d5d4cb0001d643d8","condB","","../../src/audio/toneTest_3.wav","","2","2","true","","","","","","","","","","",""
"null","","fixation","html-keyboard-response","8","180587","0.0-2.0-0.3","5a6b35d3d5d4cb0001d643d8","condB","","<div class=""vertical-center"" style=""font-size:60px;"">+</div>","null","","","","","","","","","","","","","",""
"4296.205000020564","","tonetest","audio-button-response","9","184890","0.0-2.0-1.3","5a6b35d3d5d4cb0001d643d8","condB","","../../src/audio/toneTest_4.wav","","1","1","true","","","","","","","","","","",""
"null","","fixation","html-keyboard-response","10","185394","0.0-2.0-0.4","5a6b35d3d5d4cb0001d643d8","condB","","<div class=""vertical-center"" style=""font-size:60px;"">+</div>","null","","","","","","","","","","","","","",""
"4471.660000039265","","tonetest","audio-button-response","11","189872","0.0-2.0-1.4","5a6b35d3d5d4cb0001d643d8","condB","","../../src/audio/toneTest_6.wav","","0","0","true","","","","","","","","","","",""
"null","","fixation","html-keyboard-response","12","190376","0.0-2.0-0.5","5a6b35d3d5d4cb0001d643d8","condB","","<div class=""vertical-center"" style=""font-size:60px;"">+</div>","null","","","","","","","","","","","","","",""
"4405.19000007771","","tonetest","audio-button-response","13","194787","0.0-2.0-1.5","5a6b35d3d5d4cb0001d643d8","condB","","../../src/audio/toneTest_3.wav","","2","2","true","","","","","","","","","","",""
"8075.064999982715","","instructions","html-keyboard-response","14","202870","0.0-3.0","5a6b35d3d5d4cb0001d643d8","condB","","<div class=""vertical-center""><p><b>Your score was 5/6.</b></p><p>If you scored below 6, please ensure that you are wearing headphones and in a quiet location free of distractions.</p><p><i>To continue to the main experiment, press SPACE.</i></p></div>","32","","","","","","","","","","","","","",""
"","","","fullscreen","15","206504","0.0-4.0","5a6b35d3d5d4cb0001d643d8","condB","","","","","","","true","","","","","","","","","",""
"29547.095000045374","","instructions","instructions","16","236054","0.0-5.0","5a6b35d3d5d4cb0001d643d8","condB","[{""page_index"":0,""viewing_time"":29546.319999964908}]","","","","","","","","","","","","","","","",""
"null","","fixation","html-keyboard-response","17","236558","0.0-6.0-0.0","5a6b35d3d5d4cb0001d643d8","condB","","<div class=""vertical-center"" style='width:60%;'><p style='font-weight:bold;'>Does the middle word sound more like the first word (A) or the last word (B)?</p> <br> <div class=""container""> <div id=""a-box""> <p class=""title-text"">A</h3></p> </div> <div id=""x-box""> <p class=""title-text"">X<p> </div> <div id=""b-box""> <p class=""title-text"">B</p></div> <br> <div style='float: left;padding-left:30px;'><p>Press '1' for A</p></div><div style='float: right;padding-right:30px;'><p>Press '0' for B</p> </div> </div></div>","null","","","","","","","","","","","","","",""
"3204","","practice","audio-keyboard-response","18","239947","0.0-6.0-1.0","5a6b35d3d5d4cb0001d643d8","condB","","resources/audio/practiceStim/S1_AI_21_axb_Step-6.wav","48","","","","","","","","","","","","","",""
"null","","fixation","html-keyboard-response","19","240950","0.0-6.0-0.1","5a6b35d3d5d4cb0001d643d8","condB","","<div class=""vertical-center"" style='width:60%;'><p style='font-weight:bold;'>Does the middle word sound more like the first word (A) or the last word (B)?</p> <br> <div class=""container""> <div id=""a-box""> <p class=""title-text"">A</h3></p> </div> <div id=""x-box""> <p class=""title-text"">X<p> </div> <div id=""b-box""> <p class=""title-text"">B</p></div> <br> <div style='float: left;padding-left:30px;'><p>Press '1' for A</p></div><div style='float: right;padding-right:30px;'><p>Press '0' for B</p> </div> </div></div>","null","","","","","","","","","","","","","",""
"2635","","practice","audio-keyboard-response","20","243582","0.0-6.0-1.1","5a6b35d3d5d4cb0001d643d8","condB","","resources/audio/practiceStim/S1_AU_14_bxa_Step-6.wav","49","","","","","","","","","","","","","",""
"null","","fixation","html-keyboard-response","21","244585","0.0-6.0-0.2","5a6b35d3d5d4cb0001d643d8","condB","","<div class=""vertical-center"" style='width:60%;'><p style='font-weight:bold;'>Does the middle word sound more like the first word (A) or the last word (B)?</p> <br> <div class=""container""> <div id=""a-box""> <p class=""title-text"">A</h3></p> </div> <div id=""x-box""> <p class=""title-text"">X<p> </div> <div id=""b-box""> <p class=""title-text"">B</p></div> <br> <div style='float: left;padding-left:30px;'><p>Press '1' for A</p></div><div style='float: right;padding-right:30px;'><p>Press '0' for B</p> </div> </div></div>","null","","","","","","","","","","","","","",""
"4098","","practice","audio-keyboard-response","22","248686","0.0-6.0-1.2","5a6b35d3d5d4cb0001d643d8","condB","","resources/audio/practiceStim/S1_AI_21_bxa_Step-6.wav","48","","","","","","","","","","","","","",""
"null","","fixation","html-keyboard-response","23","249690","0.0-6.0-0.3","5a6b35d3d5d4cb0001d643d8","condB","","<div class=""vertical-center"" style='width:60%;'><p style='font-weight:bold;'>Does the middle word sound more like the first word (A) or the last word (B)?</p> <br> <div class=""container""> <div id=""a-box""> <p class=""title-text"">A</h3></p> </div> <div id=""x-box""> <p class=""title-text"">X<p> </div> <div id=""b-box""> <p class=""title-text"">B</p></div> <br> <div style='float: left;padding-left:30px;'><p>Press '1' for A</p></div><div style='float: right;padding-right:30px;'><p>Press '0' for B</p> </div> </div></div>","null","","","","","","","","","","","","","",""
"2543","","practice","audio-keyboard-response","24","252234","0.0-6.0-1.3","5a6b35d3d5d4cb0001d643d8","condB","","resources/audio/practiceStim/S1_AU_14_axb_Step-6.wav","49","","","","","","","","","","","","","",""
"2660.39999993518","","instructions","instructions","25","255397","0.0-7.0","5a6b35d3d5d4cb0001d643d8","condB","[{""page_index"":0,""viewing_time"":2659.7949999850243}]","","","","","","","","","","","","","","","",""
"null","","fixation","html-keyboard-response","26","255901","0.0-8.0-0.0","5a6b35d3d5d4cb0001d643d8","condB","","<div class=""vertical-center"" style='width:60%;'><p style='font-weight:bold;'>Does the middle word sound more like the first word (A) or the last word (B)?</p> <br> <div class=""container""> <div id=""a-box""> <p class=""title-text"">A</h3></p> </div> <div id=""x-box""> <p class=""title-text"">X<p> </div> <div id=""b-box""> <p class=""title-text"">B</p></div> <br> <div style='float: left;padding-left:30px;'><p>Press '1' for A</p></div><div style='float: right;padding-right:30px;'><p>Press '0' for B</p> </div> </div></div>","null","","","","","","","","","","","","","",""
"4145","","test","audio-keyboard-response","27","260050","0.0-8.0-1.0","5a6b35d3d5d4cb0001d643d8","condB","","resources/audio/wordStim/S3_AU_16_axb_Step-6.wav","49","","","","","AU","resources/audio/wordStim/S3_AU_16_axb_Step-6.wav","S3","16","axb","6","MI","0","1","false"
"null","","fixation","html-keyboard-response","28","261058","0.0-8.0-0.1","5a6b35d3d5d4cb0001d643d8","condB","","<div class=""vertical-center"" style='width:60%;'><p style='font-weight:bold;'>Does the middle word sound more like the first word (A) or the last word (B)?</p> <br> <div class=""container""> <div id=""a-box""> <p class=""title-text"">A</h3></p> </div> <div id=""x-box""> <p class=""title-text"">X<p> </div> <div id=""b-box""> <p class=""title-text"">B</p></div> <br> <div style='float: left;padding-left:30px;'><p>Press '1' for A</p></div><div style='float: right;padding-right:30px;'><p>Press '0' for B</p> </div> </div></div>","null","","","","","","","","","","","","","",""
"2775","","test","audio-keyboard-response","29","263843","0.0-8.0-1.1","5a6b35d3d5d4cb0001d643d8","condB","","resources/audio/wordStim/S3_AU_11_bxa_Step-9.wav","49","","","","","AU","resources/audio/wordStim/S3_AU_11_bxa_Step-9.wav","S3","11","bxa","9","MI","1","1","true"
"null","","fixation","html-keyboard-response","30","264847","0.0-8.0-0.2","5a6b35d3d5d4cb0001d643d8","condB","","<div class=""vertical-center"" style='width:60%;'><p style='font-weight:bold;'>Does the middle word sound more like the first word (A) or the last word (B)?</p> <br> <div class=""container""> <div id=""a-box""> <p class=""title-text"">A</h3></p> </div> <div id=""x-box""> <p class=""title-text"">X<p> </div> <div id=""b-box""> <p class=""title-text"">B</p></div> <br> <div style='float: left;padding-left:30px;'><p>Press '1' for A</p></div><div style='float: right;padding-right:30px;'><p>Press '0' for B</p> </div> </div></div>","null","","","","","","","","","","","","","",""
"2798","","test","audio-keyboard-response","31","267642","0.0-8.0-1.2","5a6b35d3d5d4cb0001d643d8","condB","","resources/audio/wordStim/S9_AU_16_axb_Step-2.wav","49","","","","","AU","resources/audio/wordStim/S9_AU_16_axb_Step-2.wav","S9","16","axb","2","CN","0","1","false"
"null","","fixation","html-keyboard-response","32","268646","0.0-8.0-0.3","5a6b35d3d5d4cb0001d643d8","condB","","<div class=""vertical-center"" style='width:60%;'><p style='font-weight:bold;'>Does the middle word sound more like the first word (A) or the last word (B)?</p> <br> <div class=""container""> <div id=""a-box""> <p class=""title-text"">A</h3></p> </div> <div id=""x-box""> <p class=""title-text"">X<p> </div> <div id=""b-box""> <p class=""title-text"">B</p></div> <br> <div style='float: left;padding-left:30px;'><p>Press '1' for A</p></div><div style='float: right;padding-right:30px;'><p>Press '0' for B</p> </div> </div></div>","null","","","","","","","","","","","","","",""
"2995","","test","audio-keyboard-response","33","271659","0.0-8.0-1.3","5a6b35d3d5d4cb0001d643d8","condB","","resources/audio/wordStim/S3_AI_28_axb_Step-2.wav","49","","","","","AI","resources/audio/wordStim/S3_AI_28_axb_Step-2.wav","S3","28","axb","2","MI","0","1","false"
"null","","fixation","html-keyboard-response","34","272663","0.0-8.0-0.4","5a6b35d3d5d4cb0001d643d8","condB","","<div class=""vertical-center"" style='width:60%;'><p style='font-weight:bold;'>Does the middle word sound more like the first word (A) or the last word (B)?</p> <br> <div class=""container""> <div id=""a-box""> <p class=""title-text"">A</h3></p> </div> <div id=""x-box""> <p class=""title-text"">X<p> </div> <div id=""b-box""> <p class=""title-text"">B</p></div> <br> <div style='float: left;padding-left:30px;'><p>Press '1' for A</p></div><div style='float: right;padding-right:30px;'><p>Press '0' for B</p> </div> </div></div>","null","","","","","","","","","","","","","",""
"3019","","test","audio-keyboard-response","35","275693","0.0-8.0-1.4","5a6b35d3d5d4cb0001d643d8","condB","","resources/audio/wordStim/S9_AI_23_bxa_Step-3.wav","48","","","","","AI","resources/audio/wordStim/S9_AI_23_bxa_Step-3.wav","S9","23","bxa","3","CN","1","0","false"
"null","","fixation","html-keyboard-response","36","276697","0.0-8.0-0.5","5a6b35d3d5d4cb0001d643d8","condB","","<div class=""vertical-center"" style='width:60%;'><p style='font-weight:bold;'>Does the middle word sound more like the first word (A) or the last word (B)?</p> <br> <div class=""container""> <div id=""a-box""> <p class=""title-text"">A</h3></p> </div> <div id=""x-box""> <p class=""title-text"">X<p> </div> <div id=""b-box""> <p class=""title-text"">B</p></div> <br> <div style='float: left;padding-left:30px;'><p>Press '1' for A</p></div><div style='float: right;padding-right:30px;'><p>Press '0' for B</p> </div> </div></div>","null","","","","","","","","","","","","","",""
"2659","","test","audio-keyboard-response","37","279372","0.0-8.0-1.5","5a6b35d3d5d4cb0001d643d8","condB","","resources/audio/wordStim/S3_AU_19_bxa_Step-3.wav","49","","","","","AU","resources/audio/wordStim/S3_AU_19_bxa_Step-3.wav","S3","19","bxa","3","MI","1","1","true"
"null","","fixation","html-keyboard-response","38","280376","0.0-8.0-0.6","5a6b35d3d5d4cb0001d643d8","condB","","<div class=""vertical-center"" style='width:60%;'><p style='font-weight:bold;'>Does the middle word sound more like the first word (A) or the last word (B)?</p> <br> <div class=""container""> <div id=""a-box""> <p class=""title-text"">A</h3></p> </div> <div id=""x-box""> <p class=""title-text"">X<p> </div> <div id=""b-box""> <p class=""title-text"">B</p></div> <br> <div style='float: left;padding-left:30px;'><p>Press '1' for A</p></div><div style='float: right;padding-right:30px;'><p>Press '0' for B</p> </div> </div></div>","null","","","","","","","","","","","","","",""
"2740","","test","audio-keyboard-response","39","283114","0.0-8.0-1.6","5a6b35d3d5d4cb0001d643d8","condB","","resources/audio/wordStim/S3_AU_15_axb_Step-6.wav","49","","","","","AU","resources/audio/wordStim/S3_AU_15_axb_Step-6.wav","S3","15","axb","6","MI","0","1","false"
"null","","fixation","html-keyboard-response","40","284119","0.0-8.0-0.7","5a6b35d3d5d4cb0001d643d8","condB","","<div class=""vertical-center"" style='width:60%;'><p style='font-weight:bold;'>Does the middle word sound more like the first word (A) or the last word (B)?</p> <br> <div class=""container""> <div id=""a-box""> <p class=""title-text"">A</h3></p> </div> <div id=""x-box""> <p class=""title-text"">X<p> </div> <div id=""b-box""> <p class=""title-text"">B</p></div> <br> <div style='float: left;padding-left:30px;'><p>Press '1' for A</p></div><div style='float: right;padding-right:30px;'><p>Press '0' for B</p> </div> </div></div>","null","","","","","","","","","","","","","",""
"2694","","test","audio-keyboard-response","41","286820","0.0-8.0-1.7","5a6b35d3d5d4cb0001d643d8","condB","","resources/audio/wordStim/S9_AU_17_axb_Step-2.wav","49","","","","","AU","resources/audio/wordStim/S9_AU_17_axb_Step-2.wav","S9","17","axb","2","CN","0","1","false"
"null","","fixation","html-keyboard-response","42","287825","0.0-8.0-0.8","5a6b35d3d5d4cb0001d643d8","condB","","<div class=""vertical-center"" style='width:60%;'><p style='font-weight:bold;'>Does the middle word sound more like the first word (A) or the last word (B)?</p> <br> <div class=""container""> <div id=""a-box""> <p class=""title-text"">A</h3></p> </div> <div id=""x-box""> <p class=""title-text"">X<p> </div> <div id=""b-box""> <p class=""title-text"">B</p></div> <br> <div style='float: left;padding-left:30px;'><p>Press '1' for A</p></div><div style='float: right;padding-right:30px;'><p>Press '0' for B</p> </div> </div></div>","null","","","","","","","","","","","","","",""
"3019","","test","audio-keyboard-response","43","290854","0.0-8.0-1.8","5a6b35d3d5d4cb0001d643d8","condB","","resources/audio/wordStim/S9_AI_30_bxa_Step-3.wav","48","","","","","AI","resources/audio/wordStim/S9_AI_30_bxa_Step-3.wav","S9","30","bxa","3","CN","1","0","false"
"null","","fixation","html-keyboard-response","44","291859","0.0-8.0-0.9","5a6b35d3d5d4cb0001d643d8","condB","","<div class=""vertical-center"" style='width:60%;'><p style='font-weight:bold;'>Does the middle word sound more like the first word (A) or the last word (B)?</p> <br> <div class=""container""> <div id=""a-box""> <p class=""title-text"">A</h3></p> </div> <div id=""x-box""> <p class=""title-text"">X<p> </div> <div id=""b-box""> <p class=""title-text"">B</p></div> <br> <div style='float: left;padding-left:30px;'><p>Press '1' for A</p></div><div style='float: right;padding-right:30px;'><p>Press '0' for B</p> </div> </div></div>","null","","","","","","","","","","","","","",""
"2810","","test","audio-keyboard-response","45","294679","0.0-8.0-1.9","5a6b35d3d5d4cb0001d643d8","condB","","resources/audio/wordStim/S3_AI_25_bxa_Step-5.wav","49","","","","","AI","resources/audio/wordStim/S3_AI_25_bxa_Step-5.wav","S3","25","bxa","5","MI","1","1","true"
"null","","fixation","html-keyboard-response","46","295684","0.0-8.0-0.10","5a6b35d3d5d4cb0001d643d8","condB","","<div class=""vertical-center"" style='width:60%;'><p style='font-weight:bold;'>Does the middle word sound more like the first word (A) or the last word (B)?</p> <br> <div class=""container""> <div id=""a-box""> <p class=""title-text"">A</h3></p> </div> <div id=""x-box""> <p class=""title-text"">X<p> </div> <div id=""b-box""> <p class=""title-text"">B</p></div> <br> <div style='float: left;padding-left:30px;'><p>Press '1' for A</p></div><div style='float: right;padding-right:30px;'><p>Press '0' for B</p> </div> </div></div>","null","","","","","","","","","","","","","",""
"2961","","test","audio-keyboard-response","47","298643","0.0-8.0-1.10","5a6b35d3d5d4cb0001d643d8","condB","","resources/audio/wordStim/S3_AI_22_axb_Step-2.wav","49","","","","","AI","resources/audio/wordStim/S3_AI_22_axb_Step-2.wav","S3","22","axb","2","MI","0","1","false"
"null","","fixation","html-keyboard-response","48","299648","0.0-8.0-0.11","5a6b35d3d5d4cb0001d643d8","condB","","<div class=""vertical-center"" style='width:60%;'><p style='font-weight:bold;'>Does the middle word sound more like the first word (A) or the last word (B)?</p> <br> <div class=""container""> <div id=""a-box""> <p class=""title-text"">A</h3></p> </div> <div id=""x-box""> <p class=""title-text"">X<p> </div> <div id=""b-box""> <p class=""title-text"">B</p></div> <br> <div style='float: left;padding-left:30px;'><p>Press '1' for A</p></div><div style='float: right;padding-right:30px;'><p>Press '0' for B</p> </div> </div></div>","null","","","","","","","","","","","","","",""
"2380","","test","audio-keyboard-response","49","302031","0.0-8.0-1.11","5a6b35d3d5d4cb0001d643d8","condB","","resources/audio/wordStim/S3_AI_25_bxa_Step-3.wav","49","","","","","AI","resources/audio/wordStim/S3_AI_25_bxa_Step-3.wav","S3","25","bxa","3","MI","1","1","true"
"null","","fixation","html-keyboard-response","50","303036","0.0-8.0-0.12","5a6b35d3d5d4cb0001d643d8","condB","","<div class=""vertical-center"" style='width:60%;'><p style='font-weight:bold;'>Does the middle word sound more like the first word (A) or the last word (B)?</p> <br> <div class=""container""> <div id=""a-box""> <p class=""title-text"">A</h3></p> </div> <div id=""x-box""> <p class=""title-text"">X<p> </div> <div id=""b-box""> <p class=""title-text"">B</p></div> <br> <div style='float: left;padding-left:30px;'><p>Press '1' for A</p></div><div style='float: right;padding-right:30px;'><p>Press '0' for B</p> </div> </div></div>","null","","","","","","","","","","","","","",""
"2310","","test","audio-keyboard-response","51","305352","0.0-8.0-1.12","5a6b35d3d5d4cb0001d643d8","condB","","resources/audio/wordStim/S3_AI_25_axb_Step-6.wav","48","","","","","AI","resources/audio/wordStim/S3_AI_25_axb_Step-6.wav","S3","25","axb","6","MI","0","0","true"
"null","","fixation","html-keyboard-response","52","306371","0.0-8.0-0.13","5a6b35d3d5d4cb0001d643d8","condB","","<div class=""vertical-center"" style='width:60%;'><p style='font-weight:bold;'>Does the middle word sound more like the first word (A) or the last word (B)?</p> <br> <div class=""container""> <div id=""a-box""> <p class=""title-text"">A</h3></p> </div> <div id=""x-box""> <p class=""title-text"">X<p> </div> <div id=""b-box""> <p class=""title-text"">B</p></div> <br> <div style='float: left;padding-left:30px;'><p>Press '1' for A</p></div><div style='float: right;padding-right:30px;'><p>Press '0' for B</p> </div> </div></div>","null","","","","","","","","","","","","","",""
"2670","","test","audio-keyboard-response","53","309044","0.0-8.0-1.13","5a6b35d3d5d4cb0001d643d8","condB","","resources/audio/wordStim/S9_AI_27_bxa_Step-3.wav","49","","","","","AI","resources/audio/wordStim/S9_AI_27_bxa_Step-3.wav","S9","27","bxa","3","CN","1","1","true"
"null","","fixation","html-keyboard-response","54","310048","0.0-8.0-0.14","5a6b35d3d5d4cb0001d643d8","condB","","<div class=""vertical-center"" style='width:60%;'><p style='font-weight:bold;'>Does the middle word sound more like the first word (A) or the last word (B)?</p> <br> <div class=""container""> <div id=""a-box""> <p class=""title-text"">A</h3></p> </div> <div id=""x-box""> <p class=""title-text"">X<p> </div> <div id=""b-box""> <p class=""title-text"">B</p></div> <br> <div style='float: left;padding-left:30px;'><p>Press '1' for A</p></div><div style='float: right;padding-right:30px;'><p>Press '0' for B</p> </div> </div></div>","null","","","","","","","","","","","","","",""
"2159","","test","audio-keyboard-response","55","312213","0.0-8.0-1.14","5a6b35d3d5d4cb0001d643d8","condB","","resources/audio/wordStim/S3_AI_21_bxa_Step-10.wav","48","","","","","AI","resources/audio/wordStim/S3_AI_21_bxa_Step-10.wav","S3","21","bxa","10","MI","1","0","false"
"null","","fixation","html-keyboard-response","56","313217","0.0-8.0-0.15","5a6b35d3d5d4cb0001d643d8","condB","","<div class=""vertical-center"" style='width:60%;'><p style='font-weight:bold;'>Does the middle word sound more like the first word (A) or the last word (B)?</p> <br> <div class=""container""> <div id=""a-box""> <p class=""title-text"">A</h3></p> </div> <div id=""x-box""> <p class=""title-text"">X<p> </div> <div id=""b-box""> <p class=""title-text"">B</p></div> <br> <div style='float: left;padding-left:30px;'><p>Press '1' for A</p></div><div style='float: right;padding-right:30px;'><p>Press '0' for B</p> </div> </div></div>","null","","","","","","","","","","","","","",""
"2868","","test","audio-keyboard-response","57","316084","0.0-8.0-1.15","5a6b35d3d5d4cb0001d643d8","condB","","resources/audio/wordStim/S9_AI_29_bxa_Step-10.wav","49","","","","","AI","resources/audio/wordStim/S9_AI_29_bxa_Step-10.wav","S9","29","bxa","10","CN","1","1","true"
"null","","fixation","html-keyboard-response","58","317090","0.0-8.0-0.16","5a6b35d3d5d4cb0001d643d8","condB","","<div class=""vertical-center"" style='width:60%;'><p style='font-weight:bold;'>Does the middle word sound more like the first word (A) or the last word (B)?</p> <br> <div class=""container""> <div id=""a-box""> <p class=""title-text"">A</h3></p> </div> <div id=""x-box""> <p class=""title-text"">X<p> </div> <div id=""b-box""> <p class=""title-text"">B</p></div> <br> <div style='float: left;padding-left:30px;'><p>Press '1' for A</p></div><div style='float: right;padding-right:30px;'><p>Press '0' for B</p> </div> </div></div>","null","","","","","","","","","","","","","",""
"2833","","test","audio-keyboard-response","59","319935","0.0-8.0-1.16","5a6b35d3d5d4cb0001d643d8","condB","","resources/audio/wordStim/S9_AI_23_bxa_Step-9.wav","49","","","","","AI","resources/audio/wordStim/S9_AI_23_bxa_Step-9.wav","S9","23","bxa","9","CN","1","1","true"
"null","","fixation","html-keyboard-response","60","320939","0.0-8.0-0.17","5a6b35d3d5d4cb0001d643d8","condB","","<div class=""vertical-center"" style='width:60%;'><p style='font-weight:bold;'>Does the middle word sound more like the first word (A) or the last word (B)?</p> <br> <div class=""container""> <div id=""a-box""> <p class=""title-text"">A</h3></p> </div> <div id=""x-box""> <p class=""title-text"">X<p> </div> <div id=""b-box""> <p class=""title-text"">B</p></div> <br> <div style='float: left;padding-left:30px;'><p>Press '1' for A</p></div><div style='float: right;padding-right:30px;'><p>Press '0' for B</p> </div> </div></div>","null","","","","","","","","","","","","","",""
"3193","","test","audio-keyboard-response","61","324134","0.0-8.0-1.17","5a6b35d3d5d4cb0001d643d8","condB","","resources/audio/wordStim/S3_AU_18_axb_Step-6.wav","49","","","","","AU","resources/audio/wordStim/S3_AU_18_axb_Step-6.wav","S3","18","axb","6","MI","0","1","false"
"null","","fixation","html-keyboard-response","62","325138","0.0-8.0-0.18","5a6b35d3d5d4cb0001d643d8","condB","","<div class=""vertical-center"" style='width:60%;'><p style='font-weight:bold;'>Does the middle word sound more like the first word (A) or the last word (B)?</p> <br> <div class=""container""> <div id=""a-box""> <p class=""title-text"">A</h3></p> </div> <div id=""x-box""> <p class=""title-text"">X<p> </div> <div id=""b-box""> <p class=""title-text"">B</p></div> <br> <div style='float: left;padding-left:30px;'><p>Press '1' for A</p></div><div style='float: right;padding-right:30px;'><p>Press '0' for B</p> </div> </div></div>","null","","","","","","","","","","","","","",""
"3320","","test","audio-keyboard-response","63","328471","0.0-8.0-1.18","5a6b35d3d5d4cb0001d643d8","condB","","resources/audio/wordStim/S9_AU_11_axb_Step-4.wav","49","","","","","AU","resources/audio/wordStim/S9_AU_11_axb_Step-4.wav","S9","11","axb","4","CN","0","1","false"
"null","","fixation","html-keyboard-response","64","329475","0.0-8.0-0.19","5a6b35d3d5d4cb0001d643d8","condB","","<div class=""vertical-center"" style='width:60%;'><p style='font-weight:bold;'>Does the middle word sound more like the first word (A) or the last word (B)?</p> <br> <div class=""container""> <div id=""a-box""> <p class=""title-text"">A</h3></p> </div> <div id=""x-box""> <p class=""title-text"">X<p> </div> <div id=""b-box""> <p class=""title-text"">B</p></div> <br> <div style='float: left;padding-left:30px;'><p>Press '1' for A</p></div><div style='float: right;padding-right:30px;'><p>Press '0' for B</p> </div> </div></div>","null","","","","","","","","","","","","","",""
"3437","","test","audio-keyboard-response","65","332926","0.0-8.0-1.19","5a6b35d3d5d4cb0001d643d8","condB","","resources/audio/wordStim/S3_AU_17_bxa_Step-10.wav","48","","","","","AU","resources/audio/wordStim/S3_AU_17_bxa_Step-10.wav","S3","17","bxa","10","MI","1","0","false"
"null","","fixation","html-keyboard-response","66","333930","0.0-8.0-0.20","5a6b35d3d5d4cb0001d643d8","condB","","<div class=""vertical-center"" style='width:60%;'><p style='font-weight:bold;'>Does the middle word sound more like the first word (A) or the last word (B)?</p> <br> <div class=""container""> <div id=""a-box""> <p class=""title-text"">A</h3></p> </div> <div id=""x-box""> <p class=""title-text"">X<p> </div> <div id=""b-box""> <p class=""title-text"">B</p></div> <br> <div style='float: left;padding-left:30px;'><p>Press '1' for A</p></div><div style='float: right;padding-right:30px;'><p>Press '0' for B</p> </div> </div></div>","null","","","","","","","","","","","","","",""
"2926","","test","audio-keyboard-response","67","336869","0.0-8.0-1.20","5a6b35d3d5d4cb0001d643d8","condB","","resources/audio/wordStim/S9_AI_25_bxa_Step-7.wav","49","","","","","AI","resources/audio/wordStim/S9_AI_25_bxa_Step-7.wav","S9","25","bxa","7","CN","1","1","true"
"null","","fixation","html-keyboard-response","68","337874","0.0-8.0-0.21","5a6b35d3d5d4cb0001d643d8","condB","","<div class=""vertical-center"" style='width:60%;'><p style='font-weight:bold;'>Does the middle word sound more like the first word (A) or the last word (B)?</p> <br> <div class=""container""> <div id=""a-box""> <p class=""title-text"">A</h3></p> </div> <div id=""x-box""> <p class=""title-text"">X<p> </div> <div id=""b-box""> <p class=""title-text"">B</p></div> <br> <div style='float: left;padding-left:30px;'><p>Press '1' for A</p></div><div style='float: right;padding-right:30px;'><p>Press '0' for B</p> </div> </div></div>","null","","","","","","","","","","","","","",""
"2775","","test","audio-keyboard-response","69","340664","0.0-8.0-1.21","5a6b35d3d5d4cb0001d643d8","condB","","resources/audio/wordStim/S9_AI_24_bxa_Step-10.wav","49","","","","","AI","resources/audio/wordStim/S9_AI_24_bxa_Step-10.wav","S9","24","bxa","10","CN","1","1","true"
"null","","fixation","html-keyboard-response","70","341668","0.0-8.0-0.22","5a6b35d3d5d4cb0001d643d8","condB","","<div class=""vertical-center"" style='width:60%;'><p style='font-weight:bold;'>Does the middle word sound more like the first word (A) or the last word (B)?</p> <br> <div class=""container""> <div id=""a-box""> <p class=""title-text"">A</h3></p> </div> <div id=""x-box""> <p class=""title-text"">X<p> </div> <div id=""b-box""> <p class=""title-text"">B</p></div> <br> <div style='float: left;padding-left:30px;'><p>Press '1' for A</p></div><div style='float: right;padding-right:30px;'><p>Press '0' for B</p> </div> </div></div>","null","","","","","","","","","","","","","",""
"3262","","test","audio-keyboard-response","71","344938","0.0-8.0-1.22","5a6b35d3d5d4cb0001d643d8","condB","","resources/audio/wordStim/S9_AI_22_axb_Step-4.wav","48","","","","","AI","resources/audio/wordStim/S9_AI_22_axb_Step-4.wav","S9","22","axb","4","CN","0","0","true"
"null","","fixation","html-keyboard-response","72","345943","0.0-8.0-0.23","5a6b35d3d5d4cb0001d643d8","condB","","<div class=""vertical-center"" style='width:60%;'><p style='font-weight:bold;'>Does the middle word sound more like the first word (A) or the last word (B)?</p> <br> <div class=""container""> <div id=""a-box""> <p class=""title-text"">A</h3></p> </div> <div id=""x-box""> <p class=""title-text"">X<p> </div> <div id=""b-box""> <p class=""title-text"">B</p></div> <br> <div style='float: left;padding-left:30px;'><p>Press '1' for A</p></div><div style='float: right;padding-right:30px;'><p>Press '0' for B</p> </div> </div></div>","null","","","","","","","","","","","","","",""
"2612","","test","audio-keyboard-response","73","348557","0.0-8.0-1.23","5a6b35d3d5d4cb0001d643d8","condB","","resources/audio/wordStim/S3_AU_20_bxa_Step-5.wav","48","","","","","AU","resources/audio/wordStim/S3_AU_20_bxa_Step-5.wav","S3","20","bxa","5","MI","1","0","false"
"null","","fixation","html-keyboard-response","74","349561","0.0-8.0-0.24","5a6b35d3d5d4cb0001d643d8","condB","","<div class=""vertical-center"" style='width:60%;'><p style='font-weight:bold;'>Does the middle word sound more like the first word (A) or the last word (B)?</p> <br> <div class=""container""> <div id=""a-box""> <p class=""title-text"">A</h3></p> </div> <div id=""x-box""> <p class=""title-text"">X<p> </div> <div id=""b-box""> <p class=""title-text"">B</p></div> <br> <div style='float: left;padding-left:30px;'><p>Press '1' for A</p></div><div style='float: right;padding-right:30px;'><p>Press '0' for B</p> </div> </div></div>","null","","","","","","","","","","","","","",""
"2496","","test","audio-keyboard-response","75","352068","0.0-8.0-1.24","5a6b35d3d5d4cb0001d643d8","condB","","resources/audio/wordStim/S3_AU_15_axb_Step-2.wav","48","","","","","AU","resources/audio/wordStim/S3_AU_15_axb_Step-2.wav","S3","15","axb","2","MI","0","0","true"
"null","","fixation","html-keyboard-response","76","353072","0.0-8.0-0.25","5a6b35d3d5d4cb0001d643d8","condB","","<div class=""vertical-center"" style='width:60%;'><p style='font-weight:bold;'>Does the middle word sound more like the first word (A) or the last word (B)?</p> <br> <div class=""container""> <div id=""a-box""> <p class=""title-text"">A</h3></p> </div> <div id=""x-box""> <p class=""title-text"">X<p> </div> <div id=""b-box""> <p class=""title-text"">B</p></div> <br> <div style='float: left;padding-left:30px;'><p>Press '1' for A</p></div><div style='float: right;padding-right:30px;'><p>Press '0' for B</p> </div> </div></div>","null","","","","","","","","","","","","","",""
"3320","","test","audio-keyboard-response","77","356401","0.0-8.0-1.25","5a6b35d3d5d4cb0001d643d8","condB","","resources/audio/wordStim/S9_AI_22_axb_Step-2.wav","48","","","","","AI","resources/audio/wordStim/S9_AI_22_axb_Step-2.wav","S9","22","axb","2","CN","0","0","true"
"null","","fixation","html-keyboard-response","78","357406","0.0-8.0-0.26","5a6b35d3d5d4cb0001d643d8","condB","","<div class=""vertical-center"" style='width:60%;'><p style='font-weight:bold;'>Does the middle word sound more like the first word (A) or the last word (B)?</p> <br> <div class=""container""> <div id=""a-box""> <p class=""title-text"">A</h3></p> </div> <div id=""x-box""> <p class=""title-text"">X<p> </div> <div id=""b-box""> <p class=""title-text"">B</p></div> <br> <div style='float: left;padding-left:30px;'><p>Press '1' for A</p></div><div style='float: right;padding-right:30px;'><p>Press '0' for B</p> </div> </div></div>","null","","","","","","","","","","","","","",""
"2752","","test","audio-keyboard-response","79","360173","0.0-8.0-1.26","5a6b35d3d5d4cb0001d643d8","condB","","resources/audio/wordStim/S9_AI_30_bxa_Step-5.wav","48","","","","","AI","resources/audio/wordStim/S9_AI_30_bxa_Step-5.wav","S9","30","bxa","5","CN","1","0","false"
"2156.514999922365","","break","html-keyboard-response","80","362834","0.0-8.0-2.26-0.26","5a6b35d3d5d4cb0001d643d8","condB","","<div class=""vertical-center""><p>Feel free to take a break!</p><i>When you're ready to continue, press SPACE to begin the next trial.</i></p></div>","32","","","","","","","","","","","","","",""
"null","","fixation","html-keyboard-response","81","363337","0.0-8.0-0.27","5a6b35d3d5d4cb0001d643d8","condB","","<div class=""vertical-center"" style='width:60%;'><p style='font-weight:bold;'>Does the middle word sound more like the first word (A) or the last word (B)?</p> <br> <div class=""container""> <div id=""a-box""> <p class=""title-text"">A</h3></p> </div> <div id=""x-box""> <p class=""title-text"">X<p> </div> <div id=""b-box""> <p class=""title-text"">B</p></div> <br> <div style='float: left;padding-left:30px;'><p>Press '1' for A</p></div><div style='float: right;padding-right:30px;'><p>Press '0' for B</p> </div> </div></div>","null","","","","","","","","","","","","","",""
"2508","","test","audio-keyboard-response","82","365851","0.0-8.0-1.27","5a6b35d3d5d4cb0001d643d8","condB","","resources/audio/wordStim/S9_AU_20_bxa_Step-3.wav","48","","","","","AU","resources/audio/wordStim/S9_AU_20_bxa_Step-3.wav","S9","20","bxa","3","CN","1","0","false"
"null","","fixation","html-keyboard-response","83","366855","0.0-8.0-0.28","5a6b35d3d5d4cb0001d643d8","condB","","<div class=""vertical-center"" style='width:60%;'><p style='font-weight:bold;'>Does the middle word sound more like the first word (A) or the last word (B)?</p> <br> <div class=""container""> <div id=""a-box""> <p class=""title-text"">A</h3></p> </div> <div id=""x-box""> <p class=""title-text"">X<p> </div> <div id=""b-box""> <p class=""title-text"">B</p></div> <br> <div style='float: left;padding-left:30px;'><p>Press '1' for A</p></div><div style='float: right;padding-right:30px;'><p>Press '0' for B</p> </div> </div></div>","null","","","","","","","","","","","","","",""
"3204","","test","audio-keyboard-response","84","370064","0.0-8.0-1.28","5a6b35d3d5d4cb0001d643d8","condB","","resources/audio/wordStim/S9_AI_22_axb_Step-8.wav","48","","","","","AI","resources/audio/wordStim/S9_AI_22_axb_Step-8.wav","S9","22","axb","8","CN","0","0","true"
"null","","fixation","html-keyboard-response","85","371068","0.0-8.0-0.29","5a6b35d3d5d4cb0001d643d8","condB","","<div class=""vertical-center"" style='width:60%;'><p style='font-weight:bold;'>Does the middle word sound more like the first word (A) or the last word (B)?</p> <br> <div class=""container""> <div id=""a-box""> <p class=""title-text"">A</h3></p> </div> <div id=""x-box""> <p class=""title-text"">X<p> </div> <div id=""b-box""> <p class=""title-text"">B</p></div> <br> <div style='float: left;padding-left:30px;'><p>Press '1' for A</p></div><div style='float: right;padding-right:30px;'><p>Press '0' for B</p> </div> </div></div>","null","","","","","","","","","","","","","",""
"3727","","test","audio-keyboard-response","86","374806","0.0-8.0-1.29","5a6b35d3d5d4cb0001d643d8","condB","","resources/audio/wordStim/S9_AU_11_bxa_Step-10.wav","48","","","","","AU","resources/audio/wordStim/S9_AU_11_bxa_Step-10.wav","S9","11","bxa","10","CN","1","0","false"
"null","","fixation","html-keyboard-response","87","375811","0.0-8.0-0.30","5a6b35d3d5d4cb0001d643d8","condB","","<div class=""vertical-center"" style='width:60%;'><p style='font-weight:bold;'>Does the middle word sound more like the first word (A) or the last word (B)?</p> <br> <div class=""container""> <div id=""a-box""> <p class=""title-text"">A</h3></p> </div> <div id=""x-box""> <p class=""title-text"">X<p> </div> <div id=""b-box""> <p class=""title-text"">B</p></div> <br> <div style='float: left;padding-left:30px;'><p>Press '1' for A</p></div><div style='float: right;padding-right:30px;'><p>Press '0' for B</p> </div> </div></div>","null","","","","","","","","","","","","","",""
"3181","","test","audio-keyboard-response","88","378996","0.0-8.0-1.30","5a6b35d3d5d4cb0001d643d8","condB","","resources/audio/wordStim/S3_AU_17_bxa_Step-3.wav","49","","","","","AU","resources/audio/wordStim/S3_AU_17_bxa_Step-3.wav","S3","17","bxa","3","MI","1","1","true"
"null","","fixation","html-keyboard-response","89","380001","0.0-8.0-0.31","5a6b35d3d5d4cb0001d643d8","condB","","<div class=""vertical-center"" style='width:60%;'><p style='font-weight:bold;'>Does the middle word sound more like the first word (A) or the last word (B)?</p> <br> <div class=""container""> <div id=""a-box""> <p class=""title-text"">A</h3></p> </div> <div id=""x-box""> <p class=""title-text"">X<p> </div> <div id=""b-box""> <p class=""title-text"">B</p></div> <br> <div style='float: left;padding-left:30px;'><p>Press '1' for A</p></div><div style='float: right;padding-right:30px;'><p>Press '0' for B</p> </div> </div></div>","null","","","","","","","","","","","","","",""
"2566","","test","audio-keyboard-response","90","382568","0.0-8.0-1.31","5a6b35d3d5d4cb0001d643d8","condB","","resources/audio/wordStim/S3_AU_15_bxa_Step-7.wav","49","","","","","AU","resources/audio/wordStim/S3_AU_15_bxa_Step-7.wav","S3","15","bxa","7","MI","1","1","true"
"null","","fixation","html-keyboard-response","91","383573","0.0-8.0-0.32","5a6b35d3d5d4cb0001d643d8","condB","","<div class=""vertical-center"" style='width:60%;'><p style='font-weight:bold;'>Does the middle word sound more like the first word (A) or the last word (B)?</p> <br> <div class=""container""> <div id=""a-box""> <p class=""title-text"">A</h3></p> </div> <div id=""x-box""> <p class=""title-text"">X<p> </div> <div id=""b-box""> <p class=""title-text"">B</p></div> <br> <div style='float: left;padding-left:30px;'><p>Press '1' for A</p></div><div style='float: right;padding-right:30px;'><p>Press '0' for B</p> </div> </div></div>","null","","","","","","","","","","","","","",""
"3042","","test","audio-keyboard-response","92","386615","0.0-8.0-1.32","5a6b35d3d5d4cb0001d643d8","condB","","resources/audio/wordStim/S9_AI_29_axb_Step-6.wav","48","","","","","AI","resources/audio/wordStim/S9_AI_29_axb_Step-6.wav","S9","29","axb","6","CN","0","0","true"
"null","","fixation","html-keyboard-response","93","387619","0.0-8.0-0.33","5a6b35d3d5d4cb0001d643d8","condB","","<div class=""vertical-center"" style='width:60%;'><p style='font-weight:bold;'>Does the middle word sound more like the first word (A) or the last word (B)?</p> <br> <div class=""container""> <div id=""a-box""> <p class=""title-text"">A</h3></p> </div> <div id=""x-box""> <p class=""title-text"">X<p> </div> <div id=""b-box""> <p class=""title-text"">B</p></div> <br> <div style='float: left;padding-left:30px;'><p>Press '1' for A</p></div><div style='float: right;padding-right:30px;'><p>Press '0' for B</p> </div> </div></div>","null","","","","","","","","","","","","","",""
"2357","","test","audio-keyboard-response","94","389986","0.0-8.0-1.33","5a6b35d3d5d4cb0001d643d8","condB","","resources/audio/wordStim/S3_AI_25_axb_Step-4.wav","49","","","","","AI","resources/audio/wordStim/S3_AI_25_axb_Step-4.wav","S3","25","axb","4","MI","0","1","false"
"null","","fixation","html-keyboard-response","95","390990","0.0-8.0-0.34","5a6b35d3d5d4cb0001d643d8","condB","","<div class=""vertical-center"" style='width:60%;'><p style='font-weight:bold;'>Does the middle word sound more like the first word (A) or the last word (B)?</p> <br> <div class=""container""> <div id=""a-box""> <p class=""title-text"">A</h3></p> </div> <div id=""x-box""> <p class=""title-text"">X<p> </div> <div id=""b-box""> <p class=""title-text"">B</p></div> <br> <div style='float: left;padding-left:30px;'><p>Press '1' for A</p></div><div style='float: right;padding-right:30px;'><p>Press '0' for B</p> </div> </div></div>","null","","","","","","","","","","","","","",""
"2601","","test","audio-keyboard-response","96","393596","0.0-8.0-1.34","5a6b35d3d5d4cb0001d643d8","condB","","resources/audio/wordStim/S3_AI_30_axb_Step-8.wav","49","","","","","AI","resources/audio/wordStim/S3_AI_30_axb_Step-8.wav","S3","30","axb","8","MI","0","1","false"
"null","","fixation","html-keyboard-response","97","394600","0.0-8.0-0.35","5a6b35d3d5d4cb0001d643d8","condB","","<div class=""vertical-center"" style='width:60%;'><p style='font-weight:bold;'>Does the middle word sound more like the first word (A) or the last word (B)?</p> <br> <div class=""container""> <div id=""a-box""> <p class=""title-text"">A</h3></p> </div> <div id=""x-box""> <p class=""title-text"">X<p> </div> <div id=""b-box""> <p class=""title-text"">B</p></div> <br> <div style='float: left;padding-left:30px;'><p>Press '1' for A</p></div><div style='float: right;padding-right:30px;'><p>Press '0' for B</p> </div> </div></div>","null","","","","","","","","","","","","","",""
"2705","","test","audio-keyboard-response","98","397311","0.0-8.0-1.35","5a6b35d3d5d4cb0001d643d8","condB","","resources/audio/wordStim/S3_AI_28_bxa_Step-3.wav","48","","","","","AI","resources/audio/wordStim/S3_AI_28_bxa_Step-3.wav","S3","28","bxa","3","MI","1","0","false"
"null","","fixation","html-keyboard-response","99","398316","0.0-8.0-0.36","5a6b35d3d5d4cb0001d643d8","condB","","<div class=""vertical-center"" style='width:60%;'><p style='font-weight:bold;'>Does the middle word sound more like the first word (A) or the last word (B)?</p> <br> <div class=""container""> <div id=""a-box""> <p class=""title-text"">A</h3></p> </div> <div id=""x-box""> <p class=""title-text"">X<p> </div> <div id=""b-box""> <p class=""title-text"">B</p></div> <br> <div style='float: left;padding-left:30px;'><p>Press '1' for A</p></div><div style='float: right;padding-right:30px;'><p>Press '0' for B</p> </div> </div></div>","null","","","","","","","","","","","","","",""
"2868","","test","audio-keyboard-response","100","401185","0.0-8.0-1.36","5a6b35d3d5d4cb0001d643d8","condB","","resources/audio/wordStim/S9_AU_11_bxa_Step-7.wav","49","","","","","AU","resources/audio/wordStim/S9_AU_11_bxa_Step-7.wav","S9","11","bxa","7","CN","1","1","true"
"null","","fixation","html-keyboard-response","101","402190","0.0-8.0-0.37","5a6b35d3d5d4cb0001d643d8","condB","","<div class=""vertical-center"" style='width:60%;'><p style='font-weight:bold;'>Does the middle word sound more like the first word (A) or the last word (B)?</p> <br> <div class=""container""> <div id=""a-box""> <p class=""title-text"">A</h3></p> </div> <div id=""x-box""> <p class=""title-text"">X<p> </div> <div id=""b-box""> <p class=""title-text"">B</p></div> <br> <div style='float: left;padding-left:30px;'><p>Press '1' for A</p></div><div style='float: right;padding-right:30px;'><p>Press '0' for B</p> </div> </div></div>","null","","","","","","","","","","","","","",""
"2392","","test","audio-keyboard-response","102","404584","0.0-8.0-1.37","5a6b35d3d5d4cb0001d643d8","condB","","resources/audio/wordStim/S3_AU_15_bxa_Step-9.wav","49","","","","","AU","resources/audio/wordStim/S3_AU_15_bxa_Step-9.wav","S3","15","bxa","9","MI","1","1","true"
"null","","fixation","html-keyboard-response","103","405588","0.0-8.0-0.38","5a6b35d3d5d4cb0001d643d8","condB","","<div class=""vertical-center"" style='width:60%;'><p style='font-weight:bold;'>Does the middle word sound more like the first word (A) or the last word (B)?</p> <br> <div class=""container""> <div id=""a-box""> <p class=""title-text"">A</h3></p> </div> <div id=""x-box""> <p class=""title-text"">X<p> </div> <div id=""b-box""> <p class=""title-text"">B</p></div> <br> <div style='float: left;padding-left:30px;'><p>Press '1' for A</p></div><div style='float: right;padding-right:30px;'><p>Press '0' for B</p> </div> </div></div>","null","","","","","","","","","","","","","",""
"2902","","test","audio-keyboard-response","104","408488","0.0-8.0-1.38","5a6b35d3d5d4cb0001d643d8","condB","","resources/audio/wordStim/S9_AU_20_axb_Step-2.wav","49","","","","","AU","resources/audio/wordStim/S9_AU_20_axb_Step-2.wav","S9","20","axb","2","CN","0","1","false"
"null","","fixation","html-keyboard-response","105","409493","0.0-8.0-0.39","5a6b35d3d5d4cb0001d643d8","condB","","<div class=""vertical-center"" style='width:60%;'><p style='font-weight:bold;'>Does the middle word sound more like the first word (A) or the last word (B)?</p> <br> <div class=""container""> <div id=""a-box""> <p class=""title-text"">A</h3></p> </div> <div id=""x-box""> <p class=""title-text"">X<p> </div> <div id=""b-box""> <p class=""title-text"">B</p></div> <br> <div style='float: left;padding-left:30px;'><p>Press '1' for A</p></div><div style='float: right;padding-right:30px;'><p>Press '0' for B</p> </div> </div></div>","null","","","","","","","","","","","","","",""
"2589","","test","audio-keyboard-response","106","412094","0.0-8.0-1.39","5a6b35d3d5d4cb0001d643d8","condB","","resources/audio/wordStim/S9_AU_19_bxa_Step-5.wav","49","","","","","AU","resources/audio/wordStim/S9_AU_19_bxa_Step-5.wav","S9","19","bxa","5","CN","1","1","true"
"null","","fixation","html-keyboard-response","107","413099","0.0-8.0-0.40","5a6b35d3d5d4cb0001d643d8","condB","","<div class=""vertical-center"" style='width:60%;'><p style='font-weight:bold;'>Does the middle word sound more like the first word (A) or the last word (B)?</p> <br> <div class=""container""> <div id=""a-box""> <p class=""title-text"">A</h3></p> </div> <div id=""x-box""> <p class=""title-text"">X<p> </div> <div id=""b-box""> <p class=""title-text"">B</p></div> <br> <div style='float: left;padding-left:30px;'><p>Press '1' for A</p></div><div style='float: right;padding-right:30px;'><p>Press '0' for B</p> </div> </div></div>","null","","","","","","","","","","","","","",""
"3065","","test","audio-keyboard-response","108","416174","0.0-8.0-1.40","5a6b35d3d5d4cb0001d643d8","condB","","resources/audio/wordStim/S9_AI_22_bxa_Step-5.wav","49","","","","","AI","resources/audio/wordStim/S9_AI_22_bxa_Step-5.wav","S9","22","bxa","5","CN","1","1","true"
"null","","fixation","html-keyboard-response","109","417178","0.0-8.0-0.41","5a6b35d3d5d4cb0001d643d8","condB","","<div class=""vertical-center"" style='width:60%;'><p style='font-weight:bold;'>Does the middle word sound more like the first word (A) or the last word (B)?</p> <br> <div class=""container""> <div id=""a-box""> <p class=""title-text"">A</h3></p> </div> <div id=""x-box""> <p class=""title-text"">X<p> </div> <div id=""b-box""> <p class=""title-text"">B</p></div> <br> <div style='float: left;padding-left:30px;'><p>Press '1' for A</p></div><div style='float: right;padding-right:30px;'><p>Press '0' for B</p> </div> </div></div>","null","","","","","","","","","","","","","",""
"2635","","test","audio-keyboard-response","110","419810","0.0-8.0-1.41","5a6b35d3d5d4cb0001d643d8","condB","","resources/audio/wordStim/S9_AI_25_bxa_Step-3.wav","49","","","","","AI","resources/audio/wordStim/S9_AI_25_bxa_Step-3.wav","S9","25","bxa","3","CN","1","1","true"
"null","","fixation","html-keyboard-response","111","420814","0.0-8.0-0.42","5a6b35d3d5d4cb0001d643d8","condB","","<div class=""vertical-center"" style='width:60%;'><p style='font-weight:bold;'>Does the middle word sound more like the first word (A) or the last word (B)?</p> <br> <div class=""container""> <div id=""a-box""> <p class=""title-text"">A</h3></p> </div> <div id=""x-box""> <p class=""title-text"">X<p> </div> <div id=""b-box""> <p class=""title-text"">B</p></div> <br> <div style='float: left;padding-left:30px;'><p>Press '1' for A</p></div><div style='float: right;padding-right:30px;'><p>Press '0' for B</p> </div> </div></div>","null","","","","","","","","","","","","","",""
"2728","","test","audio-keyboard-response","112","423540","0.0-8.0-1.42","5a6b35d3d5d4cb0001d643d8","condB","","resources/audio/wordStim/S3_AI_28_axb_Step-6.wav","49","","","","","AI","resources/audio/wordStim/S3_AI_28_axb_Step-6.wav","S3","28","axb","6","MI","0","1","false"
"null","","fixation","html-keyboard-response","113","424545","0.0-8.0-0.43","5a6b35d3d5d4cb0001d643d8","condB","","<div class=""vertical-center"" style='width:60%;'><p style='font-weight:bold;'>Does the middle word sound more like the first word (A) or the last word (B)?</p> <br> <div class=""container""> <div id=""a-box""> <p class=""title-text"">A</h3></p> </div> <div id=""x-box""> <p class=""title-text"">X<p> </div> <div id=""b-box""> <p class=""title-text"">B</p></div> <br> <div style='float: left;padding-left:30px;'><p>Press '1' for A</p></div><div style='float: right;padding-right:30px;'><p>Press '0' for B</p> </div> </div></div>","null","","","","","","","","","","","","","",""
"2101","","test","audio-keyboard-response","114","426663","0.0-8.0-1.43","5a6b35d3d5d4cb0001d643d8","condB","","resources/audio/wordStim/S3_AI_21_axb_Step-8.wav","48","","","","","AI","resources/audio/wordStim/S3_AI_21_axb_Step-8.wav","S3","21","axb","8","MI","0","0","true"
"null","","fixation","html-keyboard-response","115","427667","0.0-8.0-0.44","5a6b35d3d5d4cb0001d643d8","condB","","<div class=""vertical-center"" style='width:60%;'><p style='font-weight:bold;'>Does the middle word sound more like the first word (A) or the last word (B)?</p> <br> <div class=""container""> <div id=""a-box""> <p class=""title-text"">A</h3></p> </div> <div id=""x-box""> <p class=""title-text"">X<p> </div> <div id=""b-box""> <p class=""title-text"">B</p></div> <br> <div style='float: left;padding-left:30px;'><p>Press '1' for A</p></div><div style='float: right;padding-right:30px;'><p>Press '0' for B</p> </div> </div></div>","null","","","","","","","","","","","","","",""
"2345","","test","audio-keyboard-response","116","430019","0.0-8.0-1.44","5a6b35d3d5d4cb0001d643d8","condB","","resources/audio/wordStim/S3_AU_20_axb_Step-6.wav","49","","","","","AU","resources/audio/wordStim/S3_AU_20_axb_Step-6.wav","S3","20","axb","6","MI","0","1","false"
"null","","fixation","html-keyboard-response","117","431023","0.0-8.0-0.45","5a6b35d3d5d4cb0001d643d8","condB","","<div class=""vertical-center"" style='width:60%;'><p style='font-weight:bold;'>Does the middle word sound more like the first word (A) or the last word (B)?</p> <br> <div class=""container""> <div id=""a-box""> <p class=""title-text"">A</h3></p> </div> <div id=""x-box""> <p class=""title-text"">X<p> </div> <div id=""b-box""> <p class=""title-text"">B</p></div> <br> <div style='float: left;padding-left:30px;'><p>Press '1' for A</p></div><div style='float: right;padding-right:30px;'><p>Press '0' for B</p> </div> </div></div>","null","","","","","","","","","","","","","",""
"2705","","test","audio-keyboard-response","118","433734","0.0-8.0-1.45","5a6b35d3d5d4cb0001d643d8","condB","","resources/audio/wordStim/S3_AU_15_axb_Step-4.wav","48","","","","","AU","resources/audio/wordStim/S3_AU_15_axb_Step-4.wav","S3","15","axb","4","MI","0","0","true"
"null","","fixation","html-keyboard-response","119","434738","0.0-8.0-0.46","5a6b35d3d5d4cb0001d643d8","condB","","<div class=""vertical-center"" style='width:60%;'><p style='font-weight:bold;'>Does the middle word sound more like the first word (A) or the last word (B)?</p> <br> <div class=""container""> <div id=""a-box""> <p class=""title-text"">A</h3></p> </div> <div id=""x-box""> <p class=""title-text"">X<p> </div> <div id=""b-box""> <p class=""title-text"">B</p></div> <br> <div style='float: left;padding-left:30px;'><p>Press '1' for A</p></div><div style='float: right;padding-right:30px;'><p>Press '0' for B</p> </div> </div></div>","null","","","","","","","","","","","","","",""
"2798","","test","audio-keyboard-response","120","437542","0.0-8.0-1.46","5a6b35d3d5d4cb0001d643d8","condB","","resources/audio/wordStim/S3_AU_19_axb_Step-2.wav","49","","","","","AU","resources/audio/wordStim/S3_AU_19_axb_Step-2.wav","S3","19","axb","2","MI","0","1","false"
"null","","fixation","html-keyboard-response","121","438546","0.0-8.0-0.47","5a6b35d3d5d4cb0001d643d8","condB","","<div class=""vertical-center"" style='width:60%;'><p style='font-weight:bold;'>Does the middle word sound more like the first word (A) or the last word (B)?</p> <br> <div class=""container""> <div id=""a-box""> <p class=""title-text"">A</h3></p> </div> <div id=""x-box""> <p class=""title-text"">X<p> </div> <div id=""b-box""> <p class=""title-text"">B</p></div> <br> <div style='float: left;padding-left:30px;'><p>Press '1' for A</p></div><div style='float: right;padding-right:30px;'><p>Press '0' for B</p> </div> </div></div>","null","","","","","","","","","","","","","",""
"2508","","test","audio-keyboard-response","122","441052","0.0-8.0-1.47","5a6b35d3d5d4cb0001d643d8","condB","","resources/audio/wordStim/S3_AI_23_axb_Step-6.wav","49","","","","","AI","resources/audio/wordStim/S3_AI_23_axb_Step-6.wav","S3","23","axb","6","MI","0","1","false"
"null","","fixation","html-keyboard-response","123","442056","0.0-8.0-0.48","5a6b35d3d5d4cb0001d643d8","condB","","<div class=""vertical-center"" style='width:60%;'><p style='font-weight:bold;'>Does the middle word sound more like the first word (A) or the last word (B)?</p> <br> <div class=""container""> <div id=""a-box""> <p class=""title-text"">A</h3></p> </div> <div id=""x-box""> <p class=""title-text"">X<p> </div> <div id=""b-box""> <p class=""title-text"">B</p></div> <br> <div style='float: left;padding-left:30px;'><p>Press '1' for A</p></div><div style='float: right;padding-right:30px;'><p>Press '0' for B</p> </div> </div></div>","null","","","","","","","","","","","","","",""
"2554","","test","audio-keyboard-response","124","444617","0.0-8.0-1.48","5a6b35d3d5d4cb0001d643d8","condB","","resources/audio/wordStim/S9_AU_16_bxa_Step-3.wav","48","","","","","AU","resources/audio/wordStim/S9_AU_16_bxa_Step-3.wav","S9","16","bxa","3","CN","1","0","false"
"null","","fixation","html-keyboard-response","125","445622","0.0-8.0-0.49","5a6b35d3d5d4cb0001d643d8","condB","","<div class=""vertical-center"" style='width:60%;'><p style='font-weight:bold;'>Does the middle word sound more like the first word (A) or the last word (B)?</p> <br> <div class=""container""> <div id=""a-box""> <p class=""title-text"">A</h3></p> </div> <div id=""x-box""> <p class=""title-text"">X<p> </div> <div id=""b-box""> <p class=""title-text"">B</p></div> <br> <div style='float: left;padding-left:30px;'><p>Press '1' for A</p></div><div style='float: right;padding-right:30px;'><p>Press '0' for B</p> </div> </div></div>","null","","","","","","","","","","","","","",""
"2589","","test","audio-keyboard-response","126","448212","0.0-8.0-1.49","5a6b35d3d5d4cb0001d643d8","condB","","resources/audio/wordStim/S9_AU_14_bxa_Step-10.wav","49","","","","","AU","resources/audio/wordStim/S9_AU_14_bxa_Step-10.wav","S9","14","bxa","10","CN","1","1","true"
"null","","fixation","html-keyboard-response","127","449216","0.0-8.0-0.50","5a6b35d3d5d4cb0001d643d8","condB","","<div class=""vertical-center"" style='width:60%;'><p style='font-weight:bold;'>Does the middle word sound more like the first word (A) or the last word (B)?</p> <br> <div class=""container""> <div id=""a-box""> <p class=""title-text"">A</h3></p> </div> <div id=""x-box""> <p class=""title-text"">X<p> </div> <div id=""b-box""> <p class=""title-text"">B</p></div> <br> <div style='float: left;padding-left:30px;'><p>Press '1' for A</p></div><div style='float: right;padding-right:30px;'><p>Press '0' for B</p> </div> </div></div>","null","","","","","","","","","","","","","",""
"2763","","test","audio-keyboard-response","128","451986","0.0-8.0-1.50","5a6b35d3d5d4cb0001d643d8","condB","","resources/audio/wordStim/S9_AU_18_bxa_Step-5.wav","48","","","","","AU","resources/audio/wordStim/S9_AU_18_bxa_Step-5.wav","S9","18","bxa","5","CN","1","0","false"
"null","","fixation","html-keyboard-response","129","452990","0.0-8.0-0.51","5a6b35d3d5d4cb0001d643d8","condB","","<div class=""vertical-center"" style='width:60%;'><p style='font-weight:bold;'>Does the middle word sound more like the first word (A) or the last word (B)?</p> <br> <div class=""container""> <div id=""a-box""> <p class=""title-text"">A</h3></p> </div> <div id=""x-box""> <p class=""title-text"">X<p> </div> <div id=""b-box""> <p class=""title-text"">B</p></div> <br> <div style='float: left;padding-left:30px;'><p>Press '1' for A</p></div><div style='float: right;padding-right:30px;'><p>Press '0' for B</p> </div> </div></div>","null","","","","","","","","","","","","","",""
"2508","","test","audio-keyboard-response","130","455499","0.0-8.0-1.51","5a6b35d3d5d4cb0001d643d8","condB","","resources/audio/wordStim/S3_AI_30_bxa_Step-7.wav","49","","","","","AI","resources/audio/wordStim/S3_AI_30_bxa_Step-7.wav","S3","30","bxa","7","MI","1","1","true"
"null","","fixation","html-keyboard-response","131","456503","0.0-8.0-0.52","5a6b35d3d5d4cb0001d643d8","condB","","<div class=""vertical-center"" style='width:60%;'><p style='font-weight:bold;'>Does the middle word sound more like the first word (A) or the last word (B)?</p> <br> <div class=""container""> <div id=""a-box""> <p class=""title-text"">A</h3></p> </div> <div id=""x-box""> <p class=""title-text"">X<p> </div> <div id=""b-box""> <p class=""title-text"">B</p></div> <br> <div style='float: left;padding-left:30px;'><p>Press '1' for A</p></div><div style='float: right;padding-right:30px;'><p>Press '0' for B</p> </div> </div></div>","null","","","","","","","","","","","","","",""
"2647","","test","audio-keyboard-response","132","459153","0.0-8.0-1.52","5a6b35d3d5d4cb0001d643d8","condB","","resources/audio/wordStim/S9_AU_11_bxa_Step-9.wav","48","","","","","AU","resources/audio/wordStim/S9_AU_11_bxa_Step-9.wav","S9","11","bxa","9","CN","1","0","false"
"null","","fixation","html-keyboard-response","133","460157","0.0-8.0-0.53","5a6b35d3d5d4cb0001d643d8","condB","","<div class=""vertical-center"" style='width:60%;'><p style='font-weight:bold;'>Does the middle word sound more like the first word (A) or the last word (B)?</p> <br> <div class=""container""> <div id=""a-box""> <p class=""title-text"">A</h3></p> </div> <div id=""x-box""> <p class=""title-text"">X<p> </div> <div id=""b-box""> <p class=""title-text"">B</p></div> <br> <div style='float: left;padding-left:30px;'><p>Press '1' for A</p></div><div style='float: right;padding-right:30px;'><p>Press '0' for B</p> </div> </div></div>","null","","","","","","","","","","","","","",""
"2252","","test","audio-keyboard-response","134","462408","0.0-8.0-1.53","5a6b35d3d5d4cb0001d643d8","condB","","resources/audio/wordStim/S3_AU_14_bxa_Step-7.wav","49","","","","","AU","resources/audio/wordStim/S3_AU_14_bxa_Step-7.wav","S3","14","bxa","7","MI","1","1","true"
"1664.3050001002848","","break","html-keyboard-response","135","464576","0.0-8.0-2.53-0.53","5a6b35d3d5d4cb0001d643d8","condB","","<div class=""vertical-center""><p>Feel free to take a break!</p><i>When you're ready to continue, press SPACE to begin the next trial.</i></p></div>","32","","","","","","","","","","","","","",""
"null","","fixation","html-keyboard-response","136","465079","0.0-8.0-0.54","5a6b35d3d5d4cb0001d643d8","condB","","<div class=""vertical-center"" style='width:60%;'><p style='font-weight:bold;'>Does the middle word sound more like the first word (A) or the last word (B)?</p> <br> <div class=""container""> <div id=""a-box""> <p class=""title-text"">A</h3></p> </div> <div id=""x-box""> <p class=""title-text"">X<p> </div> <div id=""b-box""> <p class=""title-text"">B</p></div> <br> <div style='float: left;padding-left:30px;'><p>Press '1' for A</p></div><div style='float: right;padding-right:30px;'><p>Press '0' for B</p> </div> </div></div>","null","","","","","","","","","","","","","",""
"2368","","test","audio-keyboard-response","137","467461","0.0-8.0-1.54","5a6b35d3d5d4cb0001d643d8","condB","","resources/audio/wordStim/S9_AU_16_bxa_Step-9.wav","49","","","","","AU","resources/audio/wordStim/S9_AU_16_bxa_Step-9.wav","S9","16","bxa","9","CN","1","1","true"
"null","","fixation","html-keyboard-response","138","468465","0.0-8.0-0.55","5a6b35d3d5d4cb0001d643d8","condB","","<div class=""vertical-center"" style='width:60%;'><p style='font-weight:bold;'>Does the middle word sound more like the first word (A) or the last word (B)?</p> <br> <div class=""container""> <div id=""a-box""> <p class=""title-text"">A</h3></p> </div> <div id=""x-box""> <p class=""title-text"">X<p> </div> <div id=""b-box""> <p class=""title-text"">B</p></div> <br> <div style='float: left;padding-left:30px;'><p>Press '1' for A</p></div><div style='float: right;padding-right:30px;'><p>Press '0' for B</p> </div> </div></div>","null","","","","","","","","","","","","","",""
"2624","","test","audio-keyboard-response","139","471095","0.0-8.0-1.55","5a6b35d3d5d4cb0001d643d8","condB","","resources/audio/wordStim/S3_AI_28_bxa_Step-10.wav","49","","","","","AI","resources/audio/wordStim/S3_AI_28_bxa_Step-10.wav","S3","28","bxa","10","MI","1","1","true"
"null","","fixation","html-keyboard-response","140","472099","0.0-8.0-0.56","5a6b35d3d5d4cb0001d643d8","condB","","<div class=""vertical-center"" style='width:60%;'><p style='font-weight:bold;'>Does the middle word sound more like the first word (A) or the last word (B)?</p> <br> <div class=""container""> <div id=""a-box""> <p class=""title-text"">A</h3></p> </div> <div id=""x-box""> <p class=""title-text"">X<p> </div> <div id=""b-box""> <p class=""title-text"">B</p></div> <br> <div style='float: left;padding-left:30px;'><p>Press '1' for A</p></div><div style='float: right;padding-right:30px;'><p>Press '0' for B</p> </div> </div></div>","null","","","","","","","","","","","","","",""
"2647","","test","audio-keyboard-response","141","474753","0.0-8.0-1.56","5a6b35d3d5d4cb0001d643d8","condB","","resources/audio/wordStim/S9_AI_30_axb_Step-4.wav","48","","","","","AI","resources/audio/wordStim/S9_AI_30_axb_Step-4.wav","S9","30","axb","4","CN","0","0","true"
"null","","fixation","html-keyboard-response","142","475757","0.0-8.0-0.57","5a6b35d3d5d4cb0001d643d8","condB","","<div class=""vertical-center"" style='width:60%;'><p style='font-weight:bold;'>Does the middle word sound more like the first word (A) or the last word (B)?</p> <br> <div class=""container""> <div id=""a-box""> <p class=""title-text"">A</h3></p> </div> <div id=""x-box""> <p class=""title-text"">X<p> </div> <div id=""b-box""> <p class=""title-text"">B</p></div> <br> <div style='float: left;padding-left:30px;'><p>Press '1' for A</p></div><div style='float: right;padding-right:30px;'><p>Press '0' for B</p> </div> </div></div>","null","","","","","","","","","","","","","",""
"2961","","test","audio-keyboard-response","143","478717","0.0-8.0-1.57","5a6b35d3d5d4cb0001d643d8","condB","","resources/audio/wordStim/S9_AU_20_bxa_Step-5.wav","49","","","","","AU","resources/audio/wordStim/S9_AU_20_bxa_Step-5.wav","S9","20","bxa","5","CN","1","1","true"
"null","","fixation","html-keyboard-response","144","479721","0.0-8.0-0.58","5a6b35d3d5d4cb0001d643d8","condB","","<div class=""vertical-center"" style='width:60%;'><p style='font-weight:bold;'>Does the middle word sound more like the first word (A) or the last word (B)?</p> <br> <div class=""container""> <div id=""a-box""> <p class=""title-text"">A</h3></p> </div> <div id=""x-box""> <p class=""title-text"">X<p> </div> <div id=""b-box""> <p class=""title-text"">B</p></div> <br> <div style='float: left;padding-left:30px;'><p>Press '1' for A</p></div><div style='float: right;padding-right:30px;'><p>Press '0' for B</p> </div> </div></div>","null","","","","","","","","","","","","","",""
"2357","","test","audio-keyboard-response","145","482087","0.0-8.0-1.58","5a6b35d3d5d4cb0001d643d8","condB","","resources/audio/wordStim/S3_AI_28_bxa_Step-7.wav","48","","","","","AI","resources/audio/wordStim/S3_AI_28_bxa_Step-7.wav","S3","28","bxa","7","MI","1","0","false"
"null","","fixation","html-keyboard-response","146","483091","0.0-8.0-0.59","5a6b35d3d5d4cb0001d643d8","condB","","<div class=""vertical-center"" style='width:60%;'><p style='font-weight:bold;'>Does the middle word sound more like the first word (A) or the last word (B)?</p> <br> <div class=""container""> <div id=""a-box""> <p class=""title-text"">A</h3></p> </div> <div id=""x-box""> <p class=""title-text"">X<p> </div> <div id=""b-box""> <p class=""title-text"">B</p></div> <br> <div style='float: left;padding-left:30px;'><p>Press '1' for A</p></div><div style='float: right;padding-right:30px;'><p>Press '0' for B</p> </div> </div></div>","null","","","","","","","","","","","","","",""
"2426","","test","audio-keyboard-response","147","485534","0.0-8.0-1.59","5a6b35d3d5d4cb0001d643d8","condB","","resources/audio/wordStim/S3_AI_28_axb_Step-4.wav","49","","","","","AI","resources/audio/wordStim/S3_AI_28_axb_Step-4.wav","S3","28","axb","4","MI","0","1","false"
"null","","fixation","html-keyboard-response","148","486538","0.0-8.0-0.60","5a6b35d3d5d4cb0001d643d8","condB","","<div class=""vertical-center"" style='width:60%;'><p style='font-weight:bold;'>Does the middle word sound more like the first word (A) or the last word (B)?</p> <br> <div class=""container""> <div id=""a-box""> <p class=""title-text"">A</h3></p> </div> <div id=""x-box""> <p class=""title-text"">X<p> </div> <div id=""b-box""> <p class=""title-text"">B</p></div> <br> <div style='float: left;padding-left:30px;'><p>Press '1' for A</p></div><div style='float: right;padding-right:30px;'><p>Press '0' for B</p> </div> </div></div>","null","","","","","","","","","","","","","",""
"2438","","test","audio-keyboard-response","149","488973","0.0-8.0-1.60","5a6b35d3d5d4cb0001d643d8","condB","","resources/audio/wordStim/S3_AU_20_axb_Step-4.wav","49","","","","","AU","resources/audio/wordStim/S3_AU_20_axb_Step-4.wav","S3","20","axb","4","MI","0","1","false"
"null","","fixation","html-keyboard-response","150","489977","0.0-8.0-0.61","5a6b35d3d5d4cb0001d643d8","condB","","<div class=""vertical-center"" style='width:60%;'><p style='font-weight:bold;'>Does the middle word sound more like the first word (A) or the last word (B)?</p> <br> <div class=""container""> <div id=""a-box""> <p class=""title-text"">A</h3></p> </div> <div id=""x-box""> <p class=""title-text"">X<p> </div> <div id=""b-box""> <p class=""title-text"">B</p></div> <br> <div style='float: left;padding-left:30px;'><p>Press '1' for A</p></div><div style='float: right;padding-right:30px;'><p>Press '0' for B</p> </div> </div></div>","null","","","","","","","","","","","","","",""
"2856","","test","audio-keyboard-response","151","492837","0.0-8.0-1.61","5a6b35d3d5d4cb0001d643d8","condB","","resources/audio/wordStim/S9_AU_13_bxa_Step-9.wav","49","","","","","AU","resources/audio/wordStim/S9_AU_13_bxa_Step-9.wav","S9","13","bxa","9","CN","1","1","true"
"null","","fixation","html-keyboard-response","152","493842","0.0-8.0-0.62","5a6b35d3d5d4cb0001d643d8","condB","","<div class=""vertical-center"" style='width:60%;'><p style='font-weight:bold;'>Does the middle word sound more like the first word (A) or the last word (B)?</p> <br> <div class=""container""> <div id=""a-box""> <p class=""title-text"">A</h3></p> </div> <div id=""x-box""> <p class=""title-text"">X<p> </div> <div id=""b-box""> <p class=""title-text"">B</p></div> <br> <div style='float: left;padding-left:30px;'><p>Press '1' for A</p></div><div style='float: right;padding-right:30px;'><p>Press '0' for B</p> </div> </div></div>","null","","","","","","","","","","","","","",""
"2601","","test","audio-keyboard-response","153","496451","0.0-8.0-1.62","5a6b35d3d5d4cb0001d643d8","condB","","resources/audio/wordStim/S9_AI_24_bxa_Step-9.wav","48","","","","","AI","resources/audio/wordStim/S9_AI_24_bxa_Step-9.wav","S9","24","bxa","9","CN","1","0","false"
"null","","fixation","html-keyboard-response","154","497455","0.0-8.0-0.63","5a6b35d3d5d4cb0001d643d8","condB","","<div class=""vertical-center"" style='width:60%;'><p style='font-weight:bold;'>Does the middle word sound more like the first word (A) or the last word (B)?</p> <br> <div class=""container""> <div id=""a-box""> <p class=""title-text"">A</h3></p> </div> <div id=""x-box""> <p class=""title-text"">X<p> </div> <div id=""b-box""> <p class=""title-text"">B</p></div> <br> <div style='float: left;padding-left:30px;'><p>Press '1' for A</p></div><div style='float: right;padding-right:30px;'><p>Press '0' for B</p> </div> </div></div>","null","","","","","","","","","","","","","",""
"2612","","test","audio-keyboard-response","155","500083","0.0-8.0-1.63","5a6b35d3d5d4cb0001d643d8","condB","","resources/audio/wordStim/S3_AU_20_axb_Step-8.wav","48","","","","","AU","resources/audio/wordStim/S3_AU_20_axb_Step-8.wav","S3","20","axb","8","MI","0","0","true"
"null","","fixation","html-keyboard-response","156","501087","0.0-8.0-0.64","5a6b35d3d5d4cb0001d643d8","condB","","<div class=""vertical-center"" style='width:60%;'><p style='font-weight:bold;'>Does the middle word sound more like the first word (A) or the last word (B)?</p> <br> <div class=""container""> <div id=""a-box""> <p class=""title-text"">A</h3></p> </div> <div id=""x-box""> <p class=""title-text"">X<p> </div> <div id=""b-box""> <p class=""title-text"">B</p></div> <br> <div style='float: left;padding-left:30px;'><p>Press '1' for A</p></div><div style='float: right;padding-right:30px;'><p>Press '0' for B</p> </div> </div></div>","null","","","","","","","","","","","","","",""
"4807","","test","audio-keyboard-response","157","505894","0.0-8.0-1.64","5a6b35d3d5d4cb0001d643d8","condB","","resources/audio/wordStim/S9_AI_29_bxa_Step-5.wav","49","","","","","AI","resources/audio/wordStim/S9_AI_29_bxa_Step-5.wav","S9","29","bxa","5","CN","1","1","true"
"null","","fixation","html-keyboard-response","158","506899","0.0-8.0-0.65","5a6b35d3d5d4cb0001d643d8","condB","","<div class=""vertical-center"" style='width:60%;'><p style='font-weight:bold;'>Does the middle word sound more like the first word (A) or the last word (B)?</p> <br> <div class=""container""> <div id=""a-box""> <p class=""title-text"">A</h3></p> </div> <div id=""x-box""> <p class=""title-text"">X<p> </div> <div id=""b-box""> <p class=""title-text"">B</p></div> <br> <div style='float: left;padding-left:30px;'><p>Press '1' for A</p></div><div style='float: right;padding-right:30px;'><p>Press '0' for B</p> </div> </div></div>","null","","","","","","","","","","","","","",""
"2543","","test","audio-keyboard-response","159","509449","0.0-8.0-1.65","5a6b35d3d5d4cb0001d643d8","condB","","resources/audio/wordStim/S9_AI_29_bxa_Step-7.wav","49","","","","","AI","resources/audio/wordStim/S9_AI_29_bxa_Step-7.wav","S9","29","bxa","7","CN","1","1","true"
"null","","fixation","html-keyboard-response","160","510453","0.0-8.0-0.66","5a6b35d3d5d4cb0001d643d8","condB","","<div class=""vertical-center"" style='width:60%;'><p style='font-weight:bold;'>Does the middle word sound more like the first word (A) or the last word (B)?</p> <br> <div class=""container""> <div id=""a-box""> <p class=""title-text"">A</h3></p> </div> <div id=""x-box""> <p class=""title-text"">X<p> </div> <div id=""b-box""> <p class=""title-text"">B</p></div> <br> <div style='float: left;padding-left:30px;'><p>Press '1' for A</p></div><div style='float: right;padding-right:30px;'><p>Press '0' for B</p> </div> </div></div>","null","","","","","","","","","","","","","",""
"2659","","test","audio-keyboard-response","161","513110","0.0-8.0-1.66","5a6b35d3d5d4cb0001d643d8","condB","","resources/audio/wordStim/S9_AI_25_axb_Step-8.wav","49","","","","","AI","resources/audio/wordStim/S9_AI_25_axb_Step-8.wav","S9","25","axb","8","CN","0","1","false"
"null","","fixation","html-keyboard-response","162","514114","0.0-8.0-0.67","5a6b35d3d5d4cb0001d643d8","condB","","<div class=""vertical-center"" style='width:60%;'><p style='font-weight:bold;'>Does the middle word sound more like the first word (A) or the last word (B)?</p> <br> <div class=""container""> <div id=""a-box""> <p class=""title-text"">A</h3></p> </div> <div id=""x-box""> <p class=""title-text"">X<p> </div> <div id=""b-box""> <p class=""title-text"">B</p></div> <br> <div style='float: left;padding-left:30px;'><p>Press '1' for A</p></div><div style='float: right;padding-right:30px;'><p>Press '0' for B</p> </div> </div></div>","null","","","","","","","","","","","","","",""
"2705","","test","audio-keyboard-response","163","516832","0.0-8.0-1.67","5a6b35d3d5d4cb0001d643d8","condB","","resources/audio/wordStim/S9_AI_23_axb_Step-4.wav","49","","","","","AI","resources/audio/wordStim/S9_AI_23_axb_Step-4.wav","S9","23","axb","4","CN","0","1","false"
"null","","fixation","html-keyboard-response","164","517837","0.0-8.0-0.68","5a6b35d3d5d4cb0001d643d8","condB","","<div class=""vertical-center"" style='width:60%;'><p style='font-weight:bold;'>Does the middle word sound more like the first word (A) or the last word (B)?</p> <br> <div class=""container""> <div id=""a-box""> <p class=""title-text"">A</h3></p> </div> <div id=""x-box""> <p class=""title-text"">X<p> </div> <div id=""b-box""> <p class=""title-text"">B</p></div> <br> <div style='float: left;padding-left:30px;'><p>Press '1' for A</p></div><div style='float: right;padding-right:30px;'><p>Press '0' for B</p> </div> </div></div>","null","","","","","","","","","","","","","",""
"2821","","test","audio-keyboard-response","165","520658","0.0-8.0-1.68","5a6b35d3d5d4cb0001d643d8","condB","","resources/audio/wordStim/S9_AI_23_bxa_Step-10.wav","49","","","","","AI","resources/audio/wordStim/S9_AI_23_bxa_Step-10.wav","S9","23","bxa","10","CN","1","1","true"
"null","","fixation","html-keyboard-response","166","521663","0.0-8.0-0.69","5a6b35d3d5d4cb0001d643d8","condB","","<div class=""vertical-center"" style='width:60%;'><p style='font-weight:bold;'>Does the middle word sound more like the first word (A) or the last word (B)?</p> <br> <div class=""container""> <div id=""a-box""> <p class=""title-text"">A</h3></p> </div> <div id=""x-box""> <p class=""title-text"">X<p> </div> <div id=""b-box""> <p class=""title-text"">B</p></div> <br> <div style='float: left;padding-left:30px;'><p>Press '1' for A</p></div><div style='float: right;padding-right:30px;'><p>Press '0' for B</p> </div> </div></div>","null","","","","","","","","","","","","","",""
"2403","","test","audio-keyboard-response","167","524068","0.0-8.0-1.69","5a6b35d3d5d4cb0001d643d8","condB","","resources/audio/wordStim/S3_AI_23_axb_Step-4.wav","49","","","","","AI","resources/audio/wordStim/S3_AI_23_axb_Step-4.wav","S3","23","axb","4","MI","0","1","false"
"null","","fixation","html-keyboard-response","168","525072","0.0-8.0-0.70","5a6b35d3d5d4cb0001d643d8","condB","","<div class=""vertical-center"" style='width:60%;'><p style='font-weight:bold;'>Does the middle word sound more like the first word (A) or the last word (B)?</p> <br> <div class=""container""> <div id=""a-box""> <p class=""title-text"">A</h3></p> </div> <div id=""x-box""> <p class=""title-text"">X<p> </div> <div id=""b-box""> <p class=""title-text"">B</p></div> <br> <div style='float: left;padding-left:30px;'><p>Press '1' for A</p></div><div style='float: right;padding-right:30px;'><p>Press '0' for B</p> </div> </div></div>","null","","","","","","","","","","","","","",""
"2763","","test","audio-keyboard-response","169","527838","0.0-8.0-1.70","5a6b35d3d5d4cb0001d643d8","condB","","resources/audio/wordStim/S9_AU_18_bxa_Step-10.wav","48","","","","","AU","resources/audio/wordStim/S9_AU_18_bxa_Step-10.wav","S9","18","bxa","10","CN","1","0","false"
"null","","fixation","html-keyboard-response","170","528842","0.0-8.0-0.71","5a6b35d3d5d4cb0001d643d8","condB","","<div class=""vertical-center"" style='width:60%;'><p style='font-weight:bold;'>Does the middle word sound more like the first word (A) or the last word (B)?</p> <br> <div class=""container""> <div id=""a-box""> <p class=""title-text"">A</h3></p> </div> <div id=""x-box""> <p class=""title-text"">X<p> </div> <div id=""b-box""> <p class=""title-text"">B</p></div> <br> <div style='float: left;padding-left:30px;'><p>Press '1' for A</p></div><div style='float: right;padding-right:30px;'><p>Press '0' for B</p> </div> </div></div>","null","","","","","","","","","","","","","",""
"2740","","test","audio-keyboard-response","171","531594","0.0-8.0-1.71","5a6b35d3d5d4cb0001d643d8","condB","","resources/audio/wordStim/S3_AI_30_axb_Step-6.wav","48","","","","","AI","resources/audio/wordStim/S3_AI_30_axb_Step-6.wav","S3","30","axb","6","MI","0","0","true"
"null","","fixation","html-keyboard-response","172","532598","0.0-8.0-0.72","5a6b35d3d5d4cb0001d643d8","condB","","<div class=""vertical-center"" style='width:60%;'><p style='font-weight:bold;'>Does the middle word sound more like the first word (A) or the last word (B)?</p> <br> <div class=""container""> <div id=""a-box""> <p class=""title-text"">A</h3></p> </div> <div id=""x-box""> <p class=""title-text"">X<p> </div> <div id=""b-box""> <p class=""title-text"">B</p></div> <br> <div style='float: left;padding-left:30px;'><p>Press '1' for A</p></div><div style='float: right;padding-right:30px;'><p>Press '0' for B</p> </div> </div></div>","null","","","","","","","","","","","","","",""
"2543","","test","audio-keyboard-response","173","535144","0.0-8.0-1.72","5a6b35d3d5d4cb0001d643d8","condB","","resources/audio/wordStim/S9_AU_19_bxa_Step-9.wav","49","","","","","AU","resources/audio/wordStim/S9_AU_19_bxa_Step-9.wav","S9","19","bxa","9","CN","1","1","true"
"null","","fixation","html-keyboard-response","174","536148","0.0-8.0-0.73","5a6b35d3d5d4cb0001d643d8","condB","","<div class=""vertical-center"" style='width:60%;'><p style='font-weight:bold;'>Does the middle word sound more like the first word (A) or the last word (B)?</p> <br> <div class=""container""> <div id=""a-box""> <p class=""title-text"">A</h3></p> </div> <div id=""x-box""> <p class=""title-text"">X<p> </div> <div id=""b-box""> <p class=""title-text"">B</p></div> <br> <div style='float: left;padding-left:30px;'><p>Press '1' for A</p></div><div style='float: right;padding-right:30px;'><p>Press '0' for B</p> </div> </div></div>","null","","","","","","","","","","","","","",""
"2949","","test","audio-keyboard-response","175","539099","0.0-8.0-1.73","5a6b35d3d5d4cb0001d643d8","condB","","resources/audio/wordStim/S3_AI_22_axb_Step-4.wav","49","","","","","AI","resources/audio/wordStim/S3_AI_22_axb_Step-4.wav","S3","22","axb","4","MI","0","1","false"
"null","","fixation","html-keyboard-response","176","540103","0.0-8.0-0.74","5a6b35d3d5d4cb0001d643d8","condB","","<div class=""vertical-center"" style='width:60%;'><p style='font-weight:bold;'>Does the middle word sound more like the first word (A) or the last word (B)?</p> <br> <div class=""container""> <div id=""a-box""> <p class=""title-text"">A</h3></p> </div> <div id=""x-box""> <p class=""title-text"">X<p> </div> <div id=""b-box""> <p class=""title-text"">B</p></div> <br> <div style='float: left;padding-left:30px;'><p>Press '1' for A</p></div><div style='float: right;padding-right:30px;'><p>Press '0' for B</p> </div> </div></div>","null","","","","","","","","","","","","","",""
"2508","","test","audio-keyboard-response","177","542617","0.0-8.0-1.74","5a6b35d3d5d4cb0001d643d8","condB","","resources/audio/wordStim/S9_AU_13_axb_Step-6.wav","48","","","","","AU","resources/audio/wordStim/S9_AU_13_axb_Step-6.wav","S9","13","axb","6","CN","0","0","true"
"null","","fixation","html-keyboard-response","178","543621","0.0-8.0-0.75","5a6b35d3d5d4cb0001d643d8","condB","","<div class=""vertical-center"" style='width:60%;'><p style='font-weight:bold;'>Does the middle word sound more like the first word (A) or the last word (B)?</p> <br> <div class=""container""> <div id=""a-box""> <p class=""title-text"">A</h3></p> </div> <div id=""x-box""> <p class=""title-text"">X<p> </div> <div id=""b-box""> <p class=""title-text"">B</p></div> <br> <div style='float: left;padding-left:30px;'><p>Press '1' for A</p></div><div style='float: right;padding-right:30px;'><p>Press '0' for B</p> </div> </div></div>","null","","","","","","","","","","","","","",""
"2252","","test","audio-keyboard-response","179","545874","0.0-8.0-1.75","5a6b35d3d5d4cb0001d643d8","condB","","resources/audio/wordStim/S3_AU_15_bxa_Step-3.wav","48","","","","","AU","resources/audio/wordStim/S3_AU_15_bxa_Step-3.wav","S3","15","bxa","3","MI","1","0","false"
"null","","fixation","html-keyboard-response","180","546878","0.0-8.0-0.76","5a6b35d3d5d4cb0001d643d8","condB","","<div class=""vertical-center"" style='width:60%;'><p style='font-weight:bold;'>Does the middle word sound more like the first word (A) or the last word (B)?</p> <br> <div class=""container""> <div id=""a-box""> <p class=""title-text"">A</h3></p> </div> <div id=""x-box""> <p class=""title-text"">X<p> </div> <div id=""b-box""> <p class=""title-text"">B</p></div> <br> <div style='float: left;padding-left:30px;'><p>Press '1' for A</p></div><div style='float: right;padding-right:30px;'><p>Press '0' for B</p> </div> </div></div>","null","","","","","","","","","","","","","",""
"3901","","test","audio-keyboard-response","181","550786","0.0-8.0-1.76","5a6b35d3d5d4cb0001d643d8","condB","","resources/audio/wordStim/S3_AU_17_axb_Step-4.wav","48","","","","","AU","resources/audio/wordStim/S3_AU_17_axb_Step-4.wav","S3","17","axb","4","MI","0","0","true"
"null","","fixation","html-keyboard-response","182","551791","0.0-8.0-0.77","5a6b35d3d5d4cb0001d643d8","condB","","<div class=""vertical-center"" style='width:60%;'><p style='font-weight:bold;'>Does the middle word sound more like the first word (A) or the last word (B)?</p> <br> <div class=""container""> <div id=""a-box""> <p class=""title-text"">A</h3></p> </div> <div id=""x-box""> <p class=""title-text"">X<p> </div> <div id=""b-box""> <p class=""title-text"">B</p></div> <br> <div style='float: left;padding-left:30px;'><p>Press '1' for A</p></div><div style='float: right;padding-right:30px;'><p>Press '0' for B</p> </div> </div></div>","null","","","","","","","","","","","","","",""
"2624","","test","audio-keyboard-response","183","554416","0.0-8.0-1.77","5a6b35d3d5d4cb0001d643d8","condB","","resources/audio/wordStim/S9_AU_17_bxa_Step-7.wav","49","","","","","AU","resources/audio/wordStim/S9_AU_17_bxa_Step-7.wav","S9","17","bxa","7","CN","1","1","true"
"null","","fixation","html-keyboard-response","184","555421","0.0-8.0-0.78","5a6b35d3d5d4cb0001d643d8","condB","","<div class=""vertical-center"" style='width:60%;'><p style='font-weight:bold;'>Does the middle word sound more like the first word (A) or the last word (B)?</p> <br> <div class=""container""> <div id=""a-box""> <p class=""title-text"">A</h3></p> </div> <div id=""x-box""> <p class=""title-text"">X<p> </div> <div id=""b-box""> <p class=""title-text"">B</p></div> <br> <div style='float: left;padding-left:30px;'><p>Press '1' for A</p></div><div style='float: right;padding-right:30px;'><p>Press '0' for B</p> </div> </div></div>","null","","","","","","","","","","","","","",""
"2426","","test","audio-keyboard-response","185","557855","0.0-8.0-1.78","5a6b35d3d5d4cb0001d643d8","condB","","resources/audio/wordStim/S9_AI_25_axb_Step-4.wav","49","","","","","AI","resources/audio/wordStim/S9_AI_25_axb_Step-4.wav","S9","25","axb","4","CN","0","1","false"
"null","","fixation","html-keyboard-response","186","558859","0.0-8.0-0.79","5a6b35d3d5d4cb0001d643d8","condB","","<div class=""vertical-center"" style='width:60%;'><p style='font-weight:bold;'>Does the middle word sound more like the first word (A) or the last word (B)?</p> <br> <div class=""container""> <div id=""a-box""> <p class=""title-text"">A</h3></p> </div> <div id=""x-box""> <p class=""title-text"">X<p> </div> <div id=""b-box""> <p class=""title-text"">B</p></div> <br> <div style='float: left;padding-left:30px;'><p>Press '1' for A</p></div><div style='float: right;padding-right:30px;'><p>Press '0' for B</p> </div> </div></div>","null","","","","","","","","","","","","","",""
"3100","","test","audio-keyboard-response","187","561961","0.0-8.0-1.79","5a6b35d3d5d4cb0001d643d8","condB","","resources/audio/wordStim/S3_AU_16_bxa_Step-7.wav","49","","","","","AU","resources/audio/wordStim/S3_AU_16_bxa_Step-7.wav","S3","16","bxa","7","MI","1","1","true"
"null","","fixation","html-keyboard-response","188","562966","0.0-8.0-0.80","5a6b35d3d5d4cb0001d643d8","condB","","<div class=""vertical-center"" style='width:60%;'><p style='font-weight:bold;'>Does the middle word sound more like the first word (A) or the last word (B)?</p> <br> <div class=""container""> <div id=""a-box""> <p class=""title-text"">A</h3></p> </div> <div id=""x-box""> <p class=""title-text"">X<p> </div> <div id=""b-box""> <p class=""title-text"">B</p></div> <br> <div style='float: left;padding-left:30px;'><p>Press '1' for A</p></div><div style='float: right;padding-right:30px;'><p>Press '0' for B</p> </div> </div></div>","null","","","","","","","","","","","","","",""
"2508","","test","audio-keyboard-response","189","565481","0.0-8.0-1.80","5a6b35d3d5d4cb0001d643d8","condB","","resources/audio/wordStim/S9_AU_19_axb_Step-4.wav","48","","","","","AU","resources/audio/wordStim/S9_AU_19_axb_Step-4.wav","S9","19","axb","4","CN","0","0","true"
"1608.3700000308454","","break","html-keyboard-response","190","567593","0.0-8.0-2.80-0.80","5a6b35d3d5d4cb0001d643d8","condB","","<div class=""vertical-center""><p>Feel free to take a break!</p><i>When you're ready to continue, press SPACE to begin the next trial.</i></p></div>","32","","","","","","","","","","","","","",""
"null","","fixation","html-keyboard-response","191","568096","0.0-8.0-0.81","5a6b35d3d5d4cb0001d643d8","condB","","<div class=""vertical-center"" style='width:60%;'><p style='font-weight:bold;'>Does the middle word sound more like the first word (A) or the last word (B)?</p> <br> <div class=""container""> <div id=""a-box""> <p class=""title-text"">A</h3></p> </div> <div id=""x-box""> <p class=""title-text"">X<p> </div> <div id=""b-box""> <p class=""title-text"">B</p></div> <br> <div style='float: left;padding-left:30px;'><p>Press '1' for A</p></div><div style='float: right;padding-right:30px;'><p>Press '0' for B</p> </div> </div></div>","null","","","","","","","","","","","","","",""
"2554","","test","audio-keyboard-response","192","570642","0.0-8.0-1.81","5a6b35d3d5d4cb0001d643d8","condB","","resources/audio/wordStim/S9_AU_18_axb_Step-6.wav","48","","","","","AU","resources/audio/wordStim/S9_AU_18_axb_Step-6.wav","S9","18","axb","6","CN","0","0","true"
"null","","fixation","html-keyboard-response","193","571647","0.0-8.0-0.82","5a6b35d3d5d4cb0001d643d8","condB","","<div class=""vertical-center"" style='width:60%;'><p style='font-weight:bold;'>Does the middle word sound more like the first word (A) or the last word (B)?</p> <br> <div class=""container""> <div id=""a-box""> <p class=""title-text"">A</h3></p> </div> <div id=""x-box""> <p class=""title-text"">X<p> </div> <div id=""b-box""> <p class=""title-text"">B</p></div> <br> <div style='float: left;padding-left:30px;'><p>Press '1' for A</p></div><div style='float: right;padding-right:30px;'><p>Press '0' for B</p> </div> </div></div>","null","","","","","","","","","","","","","",""
"2798","","test","audio-keyboard-response","194","574448","0.0-8.0-1.82","5a6b35d3d5d4cb0001d643d8","condB","","resources/audio/wordStim/S9_AU_13_bxa_Step-10.wav","49","","","","","AU","resources/audio/wordStim/S9_AU_13_bxa_Step-10.wav","S9","13","bxa","10","CN","1","1","true"
"null","","fixation","html-keyboard-response","195","575452","0.0-8.0-0.83","5a6b35d3d5d4cb0001d643d8","condB","","<div class=""vertical-center"" style='width:60%;'><p style='font-weight:bold;'>Does the middle word sound more like the first word (A) or the last word (B)?</p> <br> <div class=""container""> <div id=""a-box""> <p class=""title-text"">A</h3></p> </div> <div id=""x-box""> <p class=""title-text"">X<p> </div> <div id=""b-box""> <p class=""title-text"">B</p></div> <br> <div style='float: left;padding-left:30px;'><p>Press '1' for A</p></div><div style='float: right;padding-right:30px;'><p>Press '0' for B</p> </div> </div></div>","null","","","","","","","","","","","","","",""
"2647","","test","audio-keyboard-response","196","578104","0.0-8.0-1.83","5a6b35d3d5d4cb0001d643d8","condB","","resources/audio/wordStim/S9_AU_17_axb_Step-6.wav","49","","","","","AU","resources/audio/wordStim/S9_AU_17_axb_Step-6.wav","S9","17","axb","6","CN","0","1","false"
"null","","fixation","html-keyboard-response","197","579108","0.0-8.0-0.84","5a6b35d3d5d4cb0001d643d8","condB","","<div class=""vertical-center"" style='width:60%;'><p style='font-weight:bold;'>Does the middle word sound more like the first word (A) or the last word (B)?</p> <br> <div class=""container""> <div id=""a-box""> <p class=""title-text"">A</h3></p> </div> <div id=""x-box""> <p class=""title-text"">X<p> </div> <div id=""b-box""> <p class=""title-text"">B</p></div> <br> <div style='float: left;padding-left:30px;'><p>Press '1' for A</p></div><div style='float: right;padding-right:30px;'><p>Press '0' for B</p> </div> </div></div>","null","","","","","","","","","","","","","",""
"2833","","test","audio-keyboard-response","198","581944","0.0-8.0-1.84","5a6b35d3d5d4cb0001d643d8","condB","","resources/audio/wordStim/S9_AI_30_axb_Step-8.wav","49","","","","","AI","resources/audio/wordStim/S9_AI_30_axb_Step-8.wav","S9","30","axb","8","CN","0","1","false"
"null","","fixation","html-keyboard-response","199","582949","0.0-8.0-0.85","5a6b35d3d5d4cb0001d643d8","condB","","<div class=""vertical-center"" style='width:60%;'><p style='font-weight:bold;'>Does the middle word sound more like the first word (A) or the last word (B)?</p> <br> <div class=""container""> <div id=""a-box""> <p class=""title-text"">A</h3></p> </div> <div id=""x-box""> <p class=""title-text"">X<p> </div> <div id=""b-box""> <p class=""title-text"">B</p></div> <br> <div style='float: left;padding-left:30px;'><p>Press '1' for A</p></div><div style='float: right;padding-right:30px;'><p>Press '0' for B</p> </div> </div></div>","null","","","","","","","","","","","","","",""
"3599","","test","audio-keyboard-response","200","586555","0.0-8.0-1.85","5a6b35d3d5d4cb0001d643d8","condB","","resources/audio/wordStim/S3_AU_18_bxa_Step-7.wav","49","","","","","AU","resources/audio/wordStim/S3_AU_18_bxa_Step-7.wav","S3","18","bxa","7","MI","1","1","true"
"null","","fixation","html-keyboard-response","201","587559","0.0-8.0-0.86","5a6b35d3d5d4cb0001d643d8","condB","","<div class=""vertical-center"" style='width:60%;'><p style='font-weight:bold;'>Does the middle word sound more like the first word (A) or the last word (B)?</p> <br> <div class=""container""> <div id=""a-box""> <p class=""title-text"">A</h3></p> </div> <div id=""x-box""> <p class=""title-text"">X<p> </div> <div id=""b-box""> <p class=""title-text"">B</p></div> <br> <div style='float: left;padding-left:30px;'><p>Press '1' for A</p></div><div style='float: right;padding-right:30px;'><p>Press '0' for B</p> </div> </div></div>","null","","","","","","","","","","","","","",""
"2485","","test","audio-keyboard-response","202","590045","0.0-8.0-1.86","5a6b35d3d5d4cb0001d643d8","condB","","resources/audio/wordStim/S3_AU_20_bxa_Step-10.wav","49","","","","","AU","resources/audio/wordStim/S3_AU_20_bxa_Step-10.wav","S3","20","bxa","10","MI","1","1","true"
"null","","fixation","html-keyboard-response","203","591049","0.0-8.0-0.87","5a6b35d3d5d4cb0001d643d8","condB","","<div class=""vertical-center"" style='width:60%;'><p style='font-weight:bold;'>Does the middle word sound more like the first word (A) or the last word (B)?</p> <br> <div class=""container""> <div id=""a-box""> <p class=""title-text"">A</h3></p> </div> <div id=""x-box""> <p class=""title-text"">X<p> </div> <div id=""b-box""> <p class=""title-text"">B</p></div> <br> <div style='float: left;padding-left:30px;'><p>Press '1' for A</p></div><div style='float: right;padding-right:30px;'><p>Press '0' for B</p> </div> </div></div>","null","","","","","","","","","","","","","",""
"2705","","test","audio-keyboard-response","204","593756","0.0-8.0-1.87","5a6b35d3d5d4cb0001d643d8","condB","","resources/audio/wordStim/S9_AI_29_axb_Step-2.wav","49","","","","","AI","resources/audio/wordStim/S9_AI_29_axb_Step-2.wav","S9","29","axb","2","CN","0","1","false"
"null","","fixation","html-keyboard-response","205","594760","0.0-8.0-0.88","5a6b35d3d5d4cb0001d643d8","condB","","<div class=""vertical-center"" style='width:60%;'><p style='font-weight:bold;'>Does the middle word sound more like the first word (A) or the last word (B)?</p> <br> <div class=""container""> <div id=""a-box""> <p class=""title-text"">A</h3></p> </div> <div id=""x-box""> <p class=""title-text"">X<p> </div> <div id=""b-box""> <p class=""title-text"">B</p></div> <br> <div style='float: left;padding-left:30px;'><p>Press '1' for A</p></div><div style='float: right;padding-right:30px;'><p>Press '0' for B</p> </div> </div></div>","null","","","","","","","","","","","","","",""
"2717","","test","audio-keyboard-response","206","597480","0.0-8.0-1.88","5a6b35d3d5d4cb0001d643d8","condB","","resources/audio/wordStim/S3_AU_19_axb_Step-4.wav","49","","","","","AU","resources/audio/wordStim/S3_AU_19_axb_Step-4.wav","S3","19","axb","4","MI","0","1","false"
"null","","fixation","html-keyboard-response","207","598484","0.0-8.0-0.89","5a6b35d3d5d4cb0001d643d8","condB","","<div class=""vertical-center"" style='width:60%;'><p style='font-weight:bold;'>Does the middle word sound more like the first word (A) or the last word (B)?</p> <br> <div class=""container""> <div id=""a-box""> <p class=""title-text"">A</h3></p> </div> <div id=""x-box""> <p class=""title-text"">X<p> </div> <div id=""b-box""> <p class=""title-text"">B</p></div> <br> <div style='float: left;padding-left:30px;'><p>Press '1' for A</p></div><div style='float: right;padding-right:30px;'><p>Press '0' for B</p> </div> </div></div>","null","","","","","","","","","","","","","",""
"3251","","test","audio-keyboard-response","208","601738","0.0-8.0-1.89","5a6b35d3d5d4cb0001d643d8","condB","","resources/audio/wordStim/S3_AU_17_bxa_Step-9.wav","49","","","","","AU","resources/audio/wordStim/S3_AU_17_bxa_Step-9.wav","S3","17","bxa","9","MI","1","1","true"
"null","","fixation","html-keyboard-response","209","602741","0.0-8.0-0.90","5a6b35d3d5d4cb0001d643d8","condB","","<div class=""vertical-center"" style='width:60%;'><p style='font-weight:bold;'>Does the middle word sound more like the first word (A) or the last word (B)?</p> <br> <div class=""container""> <div id=""a-box""> <p class=""title-text"">A</h3></p> </div> <div id=""x-box""> <p class=""title-text"">X<p> </div> <div id=""b-box""> <p class=""title-text"">B</p></div> <br> <div style='float: left;padding-left:30px;'><p>Press '1' for A</p></div><div style='float: right;padding-right:30px;'><p>Press '0' for B</p> </div> </div></div>","null","","","","","","","","","","","","","",""
"2589","","test","audio-keyboard-response","210","605338","0.0-8.0-1.90","5a6b35d3d5d4cb0001d643d8","condB","","resources/audio/wordStim/S9_AU_13_axb_Step-8.wav","48","","","","","AU","resources/audio/wordStim/S9_AU_13_axb_Step-8.wav","S9","13","axb","8","CN","0","0","true"
"null","","fixation","html-keyboard-response","211","606342","0.0-8.0-0.91","5a6b35d3d5d4cb0001d643d8","condB","","<div class=""vertical-center"" style='width:60%;'><p style='font-weight:bold;'>Does the middle word sound more like the first word (A) or the last word (B)?</p> <br> <div class=""container""> <div id=""a-box""> <p class=""title-text"">A</h3></p> </div> <div id=""x-box""> <p class=""title-text"">X<p> </div> <div id=""b-box""> <p class=""title-text"">B</p></div> <br> <div style='float: left;padding-left:30px;'><p>Press '1' for A</p></div><div style='float: right;padding-right:30px;'><p>Press '0' for B</p> </div> </div></div>","null","","","","","","","","","","","","","",""
"3088","","test","audio-keyboard-response","212","609432","0.0-8.0-1.91","5a6b35d3d5d4cb0001d643d8","condB","","resources/audio/wordStim/S3_AI_29_axb_Step-6.wav","49","","","","","AI","resources/audio/wordStim/S3_AI_29_axb_Step-6.wav","S3","29","axb","6","MI","0","1","false"
"null","","fixation","html-keyboard-response","213","610437","0.0-8.0-0.92","5a6b35d3d5d4cb0001d643d8","condB","","<div class=""vertical-center"" style='width:60%;'><p style='font-weight:bold;'>Does the middle word sound more like the first word (A) or the last word (B)?</p> <br> <div class=""container""> <div id=""a-box""> <p class=""title-text"">A</h3></p> </div> <div id=""x-box""> <p class=""title-text"">X<p> </div> <div id=""b-box""> <p class=""title-text"">B</p></div> <br> <div style='float: left;padding-left:30px;'><p>Press '1' for A</p></div><div style='float: right;padding-right:30px;'><p>Press '0' for B</p> </div> </div></div>","null","","","","","","","","","","","","","",""
"2264","","test","audio-keyboard-response","214","612705","0.0-8.0-1.92","5a6b35d3d5d4cb0001d643d8","condB","","resources/audio/wordStim/S3_AI_21_axb_Step-6.wav","49","","","","","AI","resources/audio/wordStim/S3_AI_21_axb_Step-6.wav","S3","21","axb","6","MI","0","1","false"
