"rt","url","trial_role","trial_type","trial_index","time_elapsed","internal_node_id","participantId","condition","view_history","stimulus","key_press","button_pressed","correct_answer","correct_response","success","vowel","wordStim","speaker","sentNum","order","step","speakerIdentity","raised_answer","key_response","raised_response"
"7566.509999800473","micr.con.consent.html","consent","external-html","0","7733","0.0-0.0","5aedec6e76b763000132f75e","condB","","","","","","","","","","","","","","","","",""
"52393.26500007883","","instructions","instructions","1","60131","0.0-1.0","5aedec6e76b763000132f75e","condB","[{""page_index"":0,""viewing_time"":13311.615000013262},{""page_index"":1,""viewing_time"":8313.11499979347},{""page_index"":2,""viewing_time"":30767.220000270754}]","","","","","","","","","","","","","","","",""
"null","","fixation","html-keyboard-response","2","60634","0.0-2.0-0.0","5aedec6e76b763000132f75e","condB","","<div class=""vertical-center"" style=""font-size:60px;"">+</div>","null","","","","","","","","","","","","","",""
"7548.889999743551","","tonetest","audio-button-response","3","68187","0.0-2.0-1.0","5aedec6e76b763000132f75e","condB","","../../src/audio/toneTest_4.wav","","2","1","false","","","","","","","","","","",""
"null","","fixation","html-keyboard-response","4","68690","0.0-2.0-0.1","5aedec6e76b763000132f75e","condB","","<div class=""vertical-center"" style=""font-size:60px;"">+</div>","null","","","","","","","","","","","","","",""
"5424.529999960214","","tonetest","audio-button-response","5","74117","0.0-2.0-1.1","5aedec6e76b763000132f75e","condB","","../../src/audio/toneTest_1.wav","","2","2","true","","","","","","","","","","",""
"null","","fixation","html-keyboard-response","6","74620","0.0-2.0-0.2","5aedec6e76b763000132f75e","condB","","<div class=""vertical-center"" style=""font-size:60px;"">+</div>","null","","","","","","","","","","","","","",""
"5099.770000204444","","tonetest","audio-button-response","7","79722","0.0-2.0-1.2","5aedec6e76b763000132f75e","condB","","../../src/audio/toneTest_6.wav","","0","0","true","","","","","","","","","","",""
"null","","fixation","html-keyboard-response","8","80224","0.0-2.0-0.3","5aedec6e76b763000132f75e","condB","","<div class=""vertical-center"" style=""font-size:60px;"">+</div>","null","","","","","","","","","","","","","",""
"4665.129999630153","","tonetest","audio-button-response","9","84891","0.0-2.0-1.3","5aedec6e76b763000132f75e","condB","","../../src/audio/toneTest_6.wav","","0","0","true","","","","","","","","","","",""
"null","","fixation","html-keyboard-response","10","85394","0.0-2.0-0.4","5aedec6e76b763000132f75e","condB","","<div class=""vertical-center"" style=""font-size:60px;"">+</div>","null","","","","","","","","","","","","","",""
"5523.33000022918","","tonetest","audio-button-response","11","90920","0.0-2.0-1.4","5aedec6e76b763000132f75e","condB","","../../src/audio/toneTest_3.wav","","2","2","true","","","","","","","","","","",""
"null","","fixation","html-keyboard-response","12","91423","0.0-2.0-0.5","5aedec6e76b763000132f75e","condB","","<div class=""vertical-center"" style=""font-size:60px;"">+</div>","null","","","","","","","","","","","","","",""
"7270.5350001342595","","tonetest","audio-button-response","13","98696","0.0-2.0-1.5","5aedec6e76b763000132f75e","condB","","../../src/audio/toneTest_4.wav","","0","1","false","","","","","","","","","","",""
"9660.295000299811","","instructions","html-keyboard-response","14","108359","0.0-3.0","5aedec6e76b763000132f75e","condB","","<div class=""vertical-center""><p><b>Your score was 4/6.</b></p><p>If you scored below 6, please ensure that you are wearing headphones and in a quiet location free of distractions.</p><p><i>To continue to the main experiment, press SPACE.</i></p></div>","32","","","","","","","","","","","","","",""
"","","","fullscreen","15","111586","0.0-4.0","5aedec6e76b763000132f75e","condB","","","","","","","true","","","","","","","","","",""
"4834.460000041872","","instructions","instructions","16","116422","0.0-5.0","5aedec6e76b763000132f75e","condB","[{""page_index"":0,""viewing_time"":4834.204999729991}]","","","","","","","","","","","","","","","",""
"null","","fixation","html-keyboard-response","17","116925","0.0-6.0-0.0","5aedec6e76b763000132f75e","condB","","<div class=""vertical-center"" style='width:60%;'><p style='font-weight:bold;'>Does the middle word sound more like the first word (A) or the last word (B)?</p> <br> <div class=""container""> <div id=""a-box""> <p class=""title-text"">A</h3></p> </div> <div id=""x-box""> <p class=""title-text"">X<p> </div> <div id=""b-box""> <p class=""title-text"">B</p></div> <br> <div style='float: left;padding-left:30px;'><p>Press '1' for A</p></div><div style='float: right;padding-right:30px;'><p>Press '0' for B</p> </div> </div></div>","null","","","","","","","","","","","","","",""
"11571","","practice","audio-keyboard-response","18","128505","0.0-6.0-1.0","5aedec6e76b763000132f75e","condB","","resources/audio/practiceStim/S1_AI_21_axb_Step-6.wav","48","","","","","","","","","","","","","",""
"null","","fixation","html-keyboard-response","19","129508","0.0-6.0-0.1","5aedec6e76b763000132f75e","condB","","<div class=""vertical-center"" style='width:60%;'><p style='font-weight:bold;'>Does the middle word sound more like the first word (A) or the last word (B)?</p> <br> <div class=""container""> <div id=""a-box""> <p class=""title-text"">A</h3></p> </div> <div id=""x-box""> <p class=""title-text"">X<p> </div> <div id=""b-box""> <p class=""title-text"">B</p></div> <br> <div style='float: left;padding-left:30px;'><p>Press '1' for A</p></div><div style='float: right;padding-right:30px;'><p>Press '0' for B</p> </div> </div></div>","null","","","","","","","","","","","","","",""
"5499","","practice","audio-keyboard-response","20","135008","0.0-6.0-1.1","5aedec6e76b763000132f75e","condB","","resources/audio/practiceStim/S1_AU_14_axb_Step-6.wav","48","","","","","","","","","","","","","",""
"null","","fixation","html-keyboard-response","21","136010","0.0-6.0-0.2","5aedec6e76b763000132f75e","condB","","<div class=""vertical-center"" style='width:60%;'><p style='font-weight:bold;'>Does the middle word sound more like the first word (A) or the last word (B)?</p> <br> <div class=""container""> <div id=""a-box""> <p class=""title-text"">A</h3></p> </div> <div id=""x-box""> <p class=""title-text"">X<p> </div> <div id=""b-box""> <p class=""title-text"">B</p></div> <br> <div style='float: left;padding-left:30px;'><p>Press '1' for A</p></div><div style='float: right;padding-right:30px;'><p>Press '0' for B</p> </div> </div></div>","null","","","","","","","","","","","","","",""
"3611","","practice","audio-keyboard-response","22","139620","0.0-6.0-1.2","5aedec6e76b763000132f75e","condB","","resources/audio/practiceStim/S1_AU_14_bxa_Step-6.wav","48","","","","","","","","","","","","","",""
"null","","fixation","html-keyboard-response","23","140622","0.0-6.0-0.3","5aedec6e76b763000132f75e","condB","","<div class=""vertical-center"" style='width:60%;'><p style='font-weight:bold;'>Does the middle word sound more like the first word (A) or the last word (B)?</p> <br> <div class=""container""> <div id=""a-box""> <p class=""title-text"">A</h3></p> </div> <div id=""x-box""> <p class=""title-text"">X<p> </div> <div id=""b-box""> <p class=""title-text"">B</p></div> <br> <div style='float: left;padding-left:30px;'><p>Press '1' for A</p></div><div style='float: right;padding-right:30px;'><p>Press '0' for B</p> </div> </div></div>","null","","","","","","","","","","","","","",""
"4000","","practice","audio-keyboard-response","24","144618","0.0-6.0-1.3","5aedec6e76b763000132f75e","condB","","resources/audio/practiceStim/S1_AI_21_bxa_Step-6.wav","49","","","","","","","","","","","","","",""
"3343.2000000029802","","instructions","instructions","25","148462","0.0-7.0","5aedec6e76b763000132f75e","condB","[{""page_index"":0,""viewing_time"":3342.9149999283254}]","","","","","","","","","","","","","","","",""
"null","","fixation","html-keyboard-response","26","148965","0.0-8.0-0.0","5aedec6e76b763000132f75e","condB","","<div class=""vertical-center"" style='width:60%;'><p style='font-weight:bold;'>Does the middle word sound more like the first word (A) or the last word (B)?</p> <br> <div class=""container""> <div id=""a-box""> <p class=""title-text"">A</h3></p> </div> <div id=""x-box""> <p class=""title-text"">X<p> </div> <div id=""b-box""> <p class=""title-text"">B</p></div> <br> <div style='float: left;padding-left:30px;'><p>Press '1' for A</p></div><div style='float: right;padding-right:30px;'><p>Press '0' for B</p> </div> </div></div>","null","","","","","","","","","","","","","",""
"3320","","test","audio-keyboard-response","27","152288","0.0-8.0-1.0","5aedec6e76b763000132f75e","condB","","resources/audio/wordStim/S3_AU_15_axb_Step-4.wav","48","","","","","AU","resources/audio/wordStim/S3_AU_15_axb_Step-4.wav","S3","15","axb","4","MI","0","0","true"
"null","","fixation","html-keyboard-response","28","153292","0.0-8.0-0.1","5aedec6e76b763000132f75e","condB","","<div class=""vertical-center"" style='width:60%;'><p style='font-weight:bold;'>Does the middle word sound more like the first word (A) or the last word (B)?</p> <br> <div class=""container""> <div id=""a-box""> <p class=""title-text"">A</h3></p> </div> <div id=""x-box""> <p class=""title-text"">X<p> </div> <div id=""b-box""> <p class=""title-text"">B</p></div> <br> <div style='float: left;padding-left:30px;'><p>Press '1' for A</p></div><div style='float: right;padding-right:30px;'><p>Press '0' for B</p> </div> </div></div>","null","","","","","","","","","","","","","",""
"3291","","test","audio-keyboard-response","29","156577","0.0-8.0-1.1","5aedec6e76b763000132f75e","condB","","resources/audio/wordStim/S3_AI_28_bxa_Step-5.wav","48","","","","","AI","resources/audio/wordStim/S3_AI_28_bxa_Step-5.wav","S3","28","bxa","5","MI","1","0","false"
"null","","fixation","html-keyboard-response","30","157580","0.0-8.0-0.2","5aedec6e76b763000132f75e","condB","","<div class=""vertical-center"" style='width:60%;'><p style='font-weight:bold;'>Does the middle word sound more like the first word (A) or the last word (B)?</p> <br> <div class=""container""> <div id=""a-box""> <p class=""title-text"">A</h3></p> </div> <div id=""x-box""> <p class=""title-text"">X<p> </div> <div id=""b-box""> <p class=""title-text"">B</p></div> <br> <div style='float: left;padding-left:30px;'><p>Press '1' for A</p></div><div style='float: right;padding-right:30px;'><p>Press '0' for B</p> </div> </div></div>","null","","","","","","","","","","","","","",""
"4491","","test","audio-keyboard-response","31","162075","0.0-8.0-1.2","5aedec6e76b763000132f75e","condB","","resources/audio/wordStim/S9_AU_20_bxa_Step-9.wav","49","","","","","AU","resources/audio/wordStim/S9_AU_20_bxa_Step-9.wav","S9","20","bxa","9","CN","1","1","true"
"null","","fixation","html-keyboard-response","32","163080","0.0-8.0-0.3","5aedec6e76b763000132f75e","condB","","<div class=""vertical-center"" style='width:60%;'><p style='font-weight:bold;'>Does the middle word sound more like the first word (A) or the last word (B)?</p> <br> <div class=""container""> <div id=""a-box""> <p class=""title-text"">A</h3></p> </div> <div id=""x-box""> <p class=""title-text"">X<p> </div> <div id=""b-box""> <p class=""title-text"">B</p></div> <br> <div style='float: left;padding-left:30px;'><p>Press '1' for A</p></div><div style='float: right;padding-right:30px;'><p>Press '0' for B</p> </div> </div></div>","null","","","","","","","","","","","","","",""
"4459","","test","audio-keyboard-response","33","167545","0.0-8.0-1.3","5aedec6e76b763000132f75e","condB","","resources/audio/wordStim/S3_AI_21_bxa_Step-9.wav","49","","","","","AI","resources/audio/wordStim/S3_AI_21_bxa_Step-9.wav","S3","21","bxa","9","MI","1","1","true"
"null","","fixation","html-keyboard-response","34","168548","0.0-8.0-0.4","5aedec6e76b763000132f75e","condB","","<div class=""vertical-center"" style='width:60%;'><p style='font-weight:bold;'>Does the middle word sound more like the first word (A) or the last word (B)?</p> <br> <div class=""container""> <div id=""a-box""> <p class=""title-text"">A</h3></p> </div> <div id=""x-box""> <p class=""title-text"">X<p> </div> <div id=""b-box""> <p class=""title-text"">B</p></div> <br> <div style='float: left;padding-left:30px;'><p>Press '1' for A</p></div><div style='float: right;padding-right:30px;'><p>Press '0' for B</p> </div> </div></div>","null","","","","","","","","","","","","","",""
"4499","","test","audio-keyboard-response","35","173052","0.0-8.0-1.4","5aedec6e76b763000132f75e","condB","","resources/audio/wordStim/S9_AI_23_bxa_Step-9.wav","48","","","","","AI","resources/audio/wordStim/S9_AI_23_bxa_Step-9.wav","S9","23","bxa","9","CN","1","0","false"
"null","","fixation","html-keyboard-response","36","174057","0.0-8.0-0.5","5aedec6e76b763000132f75e","condB","","<div class=""vertical-center"" style='width:60%;'><p style='font-weight:bold;'>Does the middle word sound more like the first word (A) or the last word (B)?</p> <br> <div class=""container""> <div id=""a-box""> <p class=""title-text"">A</h3></p> </div> <div id=""x-box""> <p class=""title-text"">X<p> </div> <div id=""b-box""> <p class=""title-text"">B</p></div> <br> <div style='float: left;padding-left:30px;'><p>Press '1' for A</p></div><div style='float: right;padding-right:30px;'><p>Press '0' for B</p> </div> </div></div>","null","","","","","","","","","","","","","",""
"4560","","test","audio-keyboard-response","37","178617","0.0-8.0-1.5","5aedec6e76b763000132f75e","condB","","resources/audio/wordStim/S3_AU_16_bxa_Step-10.wav","49","","","","","AU","resources/audio/wordStim/S3_AU_16_bxa_Step-10.wav","S3","16","bxa","10","MI","1","1","true"
"null","","fixation","html-keyboard-response","38","179621","0.0-8.0-0.6","5aedec6e76b763000132f75e","condB","","<div class=""vertical-center"" style='width:60%;'><p style='font-weight:bold;'>Does the middle word sound more like the first word (A) or the last word (B)?</p> <br> <div class=""container""> <div id=""a-box""> <p class=""title-text"">A</h3></p> </div> <div id=""x-box""> <p class=""title-text"">X<p> </div> <div id=""b-box""> <p class=""title-text"">B</p></div> <br> <div style='float: left;padding-left:30px;'><p>Press '1' for A</p></div><div style='float: right;padding-right:30px;'><p>Press '0' for B</p> </div> </div></div>","null","","","","","","","","","","","","","",""
"4051","","test","audio-keyboard-response","39","183668","0.0-8.0-1.6","5aedec6e76b763000132f75e","condB","","resources/audio/wordStim/S3_AU_15_bxa_Step-7.wav","49","","","","","AU","resources/audio/wordStim/S3_AU_15_bxa_Step-7.wav","S3","15","bxa","7","MI","1","1","true"
"null","","fixation","html-keyboard-response","40","184671","0.0-8.0-0.7","5aedec6e76b763000132f75e","condB","","<div class=""vertical-center"" style='width:60%;'><p style='font-weight:bold;'>Does the middle word sound more like the first word (A) or the last word (B)?</p> <br> <div class=""container""> <div id=""a-box""> <p class=""title-text"">A</h3></p> </div> <div id=""x-box""> <p class=""title-text"">X<p> </div> <div id=""b-box""> <p class=""title-text"">B</p></div> <br> <div style='float: left;padding-left:30px;'><p>Press '1' for A</p></div><div style='float: right;padding-right:30px;'><p>Press '0' for B</p> </div> </div></div>","null","","","","","","","","","","","","","",""
"4189","","test","audio-keyboard-response","41","188860","0.0-8.0-1.7","5aedec6e76b763000132f75e","condB","","resources/audio/wordStim/S3_AU_18_bxa_Step-9.wav","49","","","","","AU","resources/audio/wordStim/S3_AU_18_bxa_Step-9.wav","S3","18","bxa","9","MI","1","1","true"
"null","","fixation","html-keyboard-response","42","189863","0.0-8.0-0.8","5aedec6e76b763000132f75e","condB","","<div class=""vertical-center"" style='width:60%;'><p style='font-weight:bold;'>Does the middle word sound more like the first word (A) or the last word (B)?</p> <br> <div class=""container""> <div id=""a-box""> <p class=""title-text"">A</h3></p> </div> <div id=""x-box""> <p class=""title-text"">X<p> </div> <div id=""b-box""> <p class=""title-text"">B</p></div> <br> <div style='float: left;padding-left:30px;'><p>Press '1' for A</p></div><div style='float: right;padding-right:30px;'><p>Press '0' for B</p> </div> </div></div>","null","","","","","","","","","","","","","",""
"4709","","test","audio-keyboard-response","43","194572","0.0-8.0-1.8","5aedec6e76b763000132f75e","condB","","resources/audio/wordStim/S9_AI_25_bxa_Step-5.wav","49","","","","","AI","resources/audio/wordStim/S9_AI_25_bxa_Step-5.wav","S9","25","bxa","5","CN","1","1","true"
"null","","fixation","html-keyboard-response","44","195580","0.0-8.0-0.9","5aedec6e76b763000132f75e","condB","","<div class=""vertical-center"" style='width:60%;'><p style='font-weight:bold;'>Does the middle word sound more like the first word (A) or the last word (B)?</p> <br> <div class=""container""> <div id=""a-box""> <p class=""title-text"">A</h3></p> </div> <div id=""x-box""> <p class=""title-text"">X<p> </div> <div id=""b-box""> <p class=""title-text"">B</p></div> <br> <div style='float: left;padding-left:30px;'><p>Press '1' for A</p></div><div style='float: right;padding-right:30px;'><p>Press '0' for B</p> </div> </div></div>","null","","","","","","","","","","","","","",""
"4901","","test","audio-keyboard-response","45","200479","0.0-8.0-1.9","5aedec6e76b763000132f75e","condB","","resources/audio/wordStim/S9_AI_29_axb_Step-2.wav","48","","","","","AI","resources/audio/wordStim/S9_AI_29_axb_Step-2.wav","S9","29","axb","2","CN","0","0","true"
"null","","fixation","html-keyboard-response","46","201482","0.0-8.0-0.10","5aedec6e76b763000132f75e","condB","","<div class=""vertical-center"" style='width:60%;'><p style='font-weight:bold;'>Does the middle word sound more like the first word (A) or the last word (B)?</p> <br> <div class=""container""> <div id=""a-box""> <p class=""title-text"">A</h3></p> </div> <div id=""x-box""> <p class=""title-text"">X<p> </div> <div id=""b-box""> <p class=""title-text"">B</p></div> <br> <div style='float: left;padding-left:30px;'><p>Press '1' for A</p></div><div style='float: right;padding-right:30px;'><p>Press '0' for B</p> </div> </div></div>","null","","","","","","","","","","","","","",""
"3259","","test","audio-keyboard-response","47","204742","0.0-8.0-1.10","5aedec6e76b763000132f75e","condB","","resources/audio/wordStim/S9_AI_25_bxa_Step-3.wav","48","","","","","AI","resources/audio/wordStim/S9_AI_25_bxa_Step-3.wav","S9","25","bxa","3","CN","1","0","false"
"null","","fixation","html-keyboard-response","48","205744","0.0-8.0-0.11","5aedec6e76b763000132f75e","condB","","<div class=""vertical-center"" style='width:60%;'><p style='font-weight:bold;'>Does the middle word sound more like the first word (A) or the last word (B)?</p> <br> <div class=""container""> <div id=""a-box""> <p class=""title-text"">A</h3></p> </div> <div id=""x-box""> <p class=""title-text"">X<p> </div> <div id=""b-box""> <p class=""title-text"">B</p></div> <br> <div style='float: left;padding-left:30px;'><p>Press '1' for A</p></div><div style='float: right;padding-right:30px;'><p>Press '0' for B</p> </div> </div></div>","null","","","","","","","","","","","","","",""
"3949","","test","audio-keyboard-response","49","209689","0.0-8.0-1.11","5aedec6e76b763000132f75e","condB","","resources/audio/wordStim/S9_AU_14_bxa_Step-9.wav","49","","","","","AU","resources/audio/wordStim/S9_AU_14_bxa_Step-9.wav","S9","14","bxa","9","CN","1","1","true"
"null","","fixation","html-keyboard-response","50","210692","0.0-8.0-0.12","5aedec6e76b763000132f75e","condB","","<div class=""vertical-center"" style='width:60%;'><p style='font-weight:bold;'>Does the middle word sound more like the first word (A) or the last word (B)?</p> <br> <div class=""container""> <div id=""a-box""> <p class=""title-text"">A</h3></p> </div> <div id=""x-box""> <p class=""title-text"">X<p> </div> <div id=""b-box""> <p class=""title-text"">B</p></div> <br> <div style='float: left;padding-left:30px;'><p>Press '1' for A</p></div><div style='float: right;padding-right:30px;'><p>Press '0' for B</p> </div> </div></div>","null","","","","","","","","","","","","","",""
"4141","","test","audio-keyboard-response","51","214833","0.0-8.0-1.12","5aedec6e76b763000132f75e","condB","","resources/audio/wordStim/S9_AI_29_bxa_Step-9.wav","48","","","","","AI","resources/audio/wordStim/S9_AI_29_bxa_Step-9.wav","S9","29","bxa","9","CN","1","0","false"
"null","","fixation","html-keyboard-response","52","215842","0.0-8.0-0.13","5aedec6e76b763000132f75e","condB","","<div class=""vertical-center"" style='width:60%;'><p style='font-weight:bold;'>Does the middle word sound more like the first word (A) or the last word (B)?</p> <br> <div class=""container""> <div id=""a-box""> <p class=""title-text"">A</h3></p> </div> <div id=""x-box""> <p class=""title-text"">X<p> </div> <div id=""b-box""> <p class=""title-text"">B</p></div> <br> <div style='float: left;padding-left:30px;'><p>Press '1' for A</p></div><div style='float: right;padding-right:30px;'><p>Press '0' for B</p> </div> </div></div>","null","","","","","","","","","","","","","",""
"5269","","test","audio-keyboard-response","53","221108","0.0-8.0-1.13","5aedec6e76b763000132f75e","condB","","resources/audio/wordStim/S3_AU_15_axb_Step-8.wav","49","","","","","AU","resources/audio/wordStim/S3_AU_15_axb_Step-8.wav","S3","15","axb","8","MI","0","1","false"
"null","","fixation","html-keyboard-response","54","222110","0.0-8.0-0.14","5aedec6e76b763000132f75e","condB","","<div class=""vertical-center"" style='width:60%;'><p style='font-weight:bold;'>Does the middle word sound more like the first word (A) or the last word (B)?</p> <br> <div class=""container""> <div id=""a-box""> <p class=""title-text"">A</h3></p> </div> <div id=""x-box""> <p class=""title-text"">X<p> </div> <div id=""b-box""> <p class=""title-text"">B</p></div> <br> <div style='float: left;padding-left:30px;'><p>Press '1' for A</p></div><div style='float: right;padding-right:30px;'><p>Press '0' for B</p> </div> </div></div>","null","","","","","","","","","","","","","",""
"4051","","test","audio-keyboard-response","55","226163","0.0-8.0-1.14","5aedec6e76b763000132f75e","condB","","resources/audio/wordStim/S9_AI_27_axb_Step-8.wav","48","","","","","AI","resources/audio/wordStim/S9_AI_27_axb_Step-8.wav","S9","27","axb","8","CN","0","0","true"
"null","","fixation","html-keyboard-response","56","227167","0.0-8.0-0.15","5aedec6e76b763000132f75e","condB","","<div class=""vertical-center"" style='width:60%;'><p style='font-weight:bold;'>Does the middle word sound more like the first word (A) or the last word (B)?</p> <br> <div class=""container""> <div id=""a-box""> <p class=""title-text"">A</h3></p> </div> <div id=""x-box""> <p class=""title-text"">X<p> </div> <div id=""b-box""> <p class=""title-text"">B</p></div> <br> <div style='float: left;padding-left:30px;'><p>Press '1' for A</p></div><div style='float: right;padding-right:30px;'><p>Press '0' for B</p> </div> </div></div>","null","","","","","","","","","","","","","",""
"3291","","test","audio-keyboard-response","57","230457","0.0-8.0-1.15","5aedec6e76b763000132f75e","condB","","resources/audio/wordStim/S3_AU_15_bxa_Step-10.wav","49","","","","","AU","resources/audio/wordStim/S3_AU_15_bxa_Step-10.wav","S3","15","bxa","10","MI","1","1","true"
"null","","fixation","html-keyboard-response","58","231461","0.0-8.0-0.16","5aedec6e76b763000132f75e","condB","","<div class=""vertical-center"" style='width:60%;'><p style='font-weight:bold;'>Does the middle word sound more like the first word (A) or the last word (B)?</p> <br> <div class=""container""> <div id=""a-box""> <p class=""title-text"">A</h3></p> </div> <div id=""x-box""> <p class=""title-text"">X<p> </div> <div id=""b-box""> <p class=""title-text"">B</p></div> <br> <div style='float: left;padding-left:30px;'><p>Press '1' for A</p></div><div style='float: right;padding-right:30px;'><p>Press '0' for B</p> </div> </div></div>","null","","","","","","","","","","","","","",""
"3160","","test","audio-keyboard-response","59","234618","0.0-8.0-1.16","5aedec6e76b763000132f75e","condB","","resources/audio/wordStim/S9_AI_27_axb_Step-6.wav","48","","","","","AI","resources/audio/wordStim/S9_AI_27_axb_Step-6.wav","S9","27","axb","6","CN","0","0","true"
"null","","fixation","html-keyboard-response","60","235621","0.0-8.0-0.17","5aedec6e76b763000132f75e","condB","","<div class=""vertical-center"" style='width:60%;'><p style='font-weight:bold;'>Does the middle word sound more like the first word (A) or the last word (B)?</p> <br> <div class=""container""> <div id=""a-box""> <p class=""title-text"">A</h3></p> </div> <div id=""x-box""> <p class=""title-text"">X<p> </div> <div id=""b-box""> <p class=""title-text"">B</p></div> <br> <div style='float: left;padding-left:30px;'><p>Press '1' for A</p></div><div style='float: right;padding-right:30px;'><p>Press '0' for B</p> </div> </div></div>","null","","","","","","","","","","","","","",""
"3749","","test","audio-keyboard-response","61","239368","0.0-8.0-1.17","5aedec6e76b763000132f75e","condB","","resources/audio/wordStim/S3_AI_22_axb_Step-2.wav","48","","","","","AI","resources/audio/wordStim/S3_AI_22_axb_Step-2.wav","S3","22","axb","2","MI","0","0","true"
"null","","fixation","html-keyboard-response","62","240372","0.0-8.0-0.18","5aedec6e76b763000132f75e","condB","","<div class=""vertical-center"" style='width:60%;'><p style='font-weight:bold;'>Does the middle word sound more like the first word (A) or the last word (B)?</p> <br> <div class=""container""> <div id=""a-box""> <p class=""title-text"">A</h3></p> </div> <div id=""x-box""> <p class=""title-text"">X<p> </div> <div id=""b-box""> <p class=""title-text"">B</p></div> <br> <div style='float: left;padding-left:30px;'><p>Press '1' for A</p></div><div style='float: right;padding-right:30px;'><p>Press '0' for B</p> </div> </div></div>","null","","","","","","","","","","","","","",""
"3541","","test","audio-keyboard-response","63","243913","0.0-8.0-1.18","5aedec6e76b763000132f75e","condB","","resources/audio/wordStim/S9_AU_17_axb_Step-4.wav","49","","","","","AU","resources/audio/wordStim/S9_AU_17_axb_Step-4.wav","S9","17","axb","4","CN","0","1","false"
"null","","fixation","html-keyboard-response","64","244916","0.0-8.0-0.19","5aedec6e76b763000132f75e","condB","","<div class=""vertical-center"" style='width:60%;'><p style='font-weight:bold;'>Does the middle word sound more like the first word (A) or the last word (B)?</p> <br> <div class=""container""> <div id=""a-box""> <p class=""title-text"">A</h3></p> </div> <div id=""x-box""> <p class=""title-text"">X<p> </div> <div id=""b-box""> <p class=""title-text"">B</p></div> <br> <div style='float: left;padding-left:30px;'><p>Press '1' for A</p></div><div style='float: right;padding-right:30px;'><p>Press '0' for B</p> </div> </div></div>","null","","","","","","","","","","","","","",""
"3829","","test","audio-keyboard-response","65","248748","0.0-8.0-1.19","5aedec6e76b763000132f75e","condB","","resources/audio/wordStim/S3_AU_11_axb_Step-2.wav","49","","","","","AU","resources/audio/wordStim/S3_AU_11_axb_Step-2.wav","S3","11","axb","2","MI","0","1","false"
"null","","fixation","html-keyboard-response","66","249751","0.0-8.0-0.20","5aedec6e76b763000132f75e","condB","","<div class=""vertical-center"" style='width:60%;'><p style='font-weight:bold;'>Does the middle word sound more like the first word (A) or the last word (B)?</p> <br> <div class=""container""> <div id=""a-box""> <p class=""title-text"">A</h3></p> </div> <div id=""x-box""> <p class=""title-text"">X<p> </div> <div id=""b-box""> <p class=""title-text"">B</p></div> <br> <div style='float: left;padding-left:30px;'><p>Press '1' for A</p></div><div style='float: right;padding-right:30px;'><p>Press '0' for B</p> </div> </div></div>","null","","","","","","","","","","","","","",""
"4069","","test","audio-keyboard-response","67","253823","0.0-8.0-1.20","5aedec6e76b763000132f75e","condB","","resources/audio/wordStim/S9_AI_22_bxa_Step-7.wav","48","","","","","AI","resources/audio/wordStim/S9_AI_22_bxa_Step-7.wav","S9","22","bxa","7","CN","1","0","false"
"null","","fixation","html-keyboard-response","68","254826","0.0-8.0-0.21","5aedec6e76b763000132f75e","condB","","<div class=""vertical-center"" style='width:60%;'><p style='font-weight:bold;'>Does the middle word sound more like the first word (A) or the last word (B)?</p> <br> <div class=""container""> <div id=""a-box""> <p class=""title-text"">A</h3></p> </div> <div id=""x-box""> <p class=""title-text"">X<p> </div> <div id=""b-box""> <p class=""title-text"">B</p></div> <br> <div style='float: left;padding-left:30px;'><p>Press '1' for A</p></div><div style='float: right;padding-right:30px;'><p>Press '0' for B</p> </div> </div></div>","null","","","","","","","","","","","","","",""
"3389","","test","audio-keyboard-response","69","258225","0.0-8.0-1.21","5aedec6e76b763000132f75e","condB","","resources/audio/wordStim/S9_AU_16_axb_Step-6.wav","49","","","","","AU","resources/audio/wordStim/S9_AU_16_axb_Step-6.wav","S9","16","axb","6","CN","0","1","false"
"null","","fixation","html-keyboard-response","70","259228","0.0-8.0-0.22","5aedec6e76b763000132f75e","condB","","<div class=""vertical-center"" style='width:60%;'><p style='font-weight:bold;'>Does the middle word sound more like the first word (A) or the last word (B)?</p> <br> <div class=""container""> <div id=""a-box""> <p class=""title-text"">A</h3></p> </div> <div id=""x-box""> <p class=""title-text"">X<p> </div> <div id=""b-box""> <p class=""title-text"">B</p></div> <br> <div style='float: left;padding-left:30px;'><p>Press '1' for A</p></div><div style='float: right;padding-right:30px;'><p>Press '0' for B</p> </div> </div></div>","null","","","","","","","","","","","","","",""
"3899","","test","audio-keyboard-response","71","263128","0.0-8.0-1.22","5aedec6e76b763000132f75e","condB","","resources/audio/wordStim/S3_AI_23_bxa_Step-9.wav","48","","","","","AI","resources/audio/wordStim/S3_AI_23_bxa_Step-9.wav","S3","23","bxa","9","MI","1","0","false"
"null","","fixation","html-keyboard-response","72","264132","0.0-8.0-0.23","5aedec6e76b763000132f75e","condB","","<div class=""vertical-center"" style='width:60%;'><p style='font-weight:bold;'>Does the middle word sound more like the first word (A) or the last word (B)?</p> <br> <div class=""container""> <div id=""a-box""> <p class=""title-text"">A</h3></p> </div> <div id=""x-box""> <p class=""title-text"">X<p> </div> <div id=""b-box""> <p class=""title-text"">B</p></div> <br> <div style='float: left;padding-left:30px;'><p>Press '1' for A</p></div><div style='float: right;padding-right:30px;'><p>Press '0' for B</p> </div> </div></div>","null","","","","","","","","","","","","","",""
"4080","","test","audio-keyboard-response","73","268215","0.0-8.0-1.23","5aedec6e76b763000132f75e","condB","","resources/audio/wordStim/S9_AU_18_axb_Step-2.wav","49","","","","","AU","resources/audio/wordStim/S9_AU_18_axb_Step-2.wav","S9","18","axb","2","CN","0","1","false"
"null","","fixation","html-keyboard-response","74","269217","0.0-8.0-0.24","5aedec6e76b763000132f75e","condB","","<div class=""vertical-center"" style='width:60%;'><p style='font-weight:bold;'>Does the middle word sound more like the first word (A) or the last word (B)?</p> <br> <div class=""container""> <div id=""a-box""> <p class=""title-text"">A</h3></p> </div> <div id=""x-box""> <p class=""title-text"">X<p> </div> <div id=""b-box""> <p class=""title-text"">B</p></div> <br> <div style='float: left;padding-left:30px;'><p>Press '1' for A</p></div><div style='float: right;padding-right:30px;'><p>Press '0' for B</p> </div> </div></div>","null","","","","","","","","","","","","","",""
"3509","","test","audio-keyboard-response","75","272734","0.0-8.0-1.24","5aedec6e76b763000132f75e","condB","","resources/audio/wordStim/S3_AU_14_bxa_Step-9.wav","48","","","","","AU","resources/audio/wordStim/S3_AU_14_bxa_Step-9.wav","S3","14","bxa","9","MI","1","0","false"
"null","","fixation","html-keyboard-response","76","273737","0.0-8.0-0.25","5aedec6e76b763000132f75e","condB","","<div class=""vertical-center"" style='width:60%;'><p style='font-weight:bold;'>Does the middle word sound more like the first word (A) or the last word (B)?</p> <br> <div class=""container""> <div id=""a-box""> <p class=""title-text"">A</h3></p> </div> <div id=""x-box""> <p class=""title-text"">X<p> </div> <div id=""b-box""> <p class=""title-text"">B</p></div> <br> <div style='float: left;padding-left:30px;'><p>Press '1' for A</p></div><div style='float: right;padding-right:30px;'><p>Press '0' for B</p> </div> </div></div>","null","","","","","","","","","","","","","",""
"3061","","test","audio-keyboard-response","77","276799","0.0-8.0-1.25","5aedec6e76b763000132f75e","condB","","resources/audio/wordStim/S3_AI_25_axb_Step-8.wav","48","","","","","AI","resources/audio/wordStim/S3_AI_25_axb_Step-8.wav","S3","25","axb","8","MI","0","0","true"
"null","","fixation","html-keyboard-response","78","277803","0.0-8.0-0.26","5aedec6e76b763000132f75e","condB","","<div class=""vertical-center"" style='width:60%;'><p style='font-weight:bold;'>Does the middle word sound more like the first word (A) or the last word (B)?</p> <br> <div class=""container""> <div id=""a-box""> <p class=""title-text"">A</h3></p> </div> <div id=""x-box""> <p class=""title-text"">X<p> </div> <div id=""b-box""> <p class=""title-text"">B</p></div> <br> <div style='float: left;padding-left:30px;'><p>Press '1' for A</p></div><div style='float: right;padding-right:30px;'><p>Press '0' for B</p> </div> </div></div>","null","","","","","","","","","","","","","",""
"3539","","test","audio-keyboard-response","79","281339","0.0-8.0-1.26","5aedec6e76b763000132f75e","condB","","resources/audio/wordStim/S3_AU_11_bxa_Step-5.wav","49","","","","","AU","resources/audio/wordStim/S3_AU_11_bxa_Step-5.wav","S3","11","bxa","5","MI","1","1","true"
"10774.585000239313","","break","html-keyboard-response","80","292615","0.0-8.0-2.26-0.26","5aedec6e76b763000132f75e","condB","","<div class=""vertical-center""><p>Feel free to take a break!</p><i>When you're ready to continue, press SPACE to begin the next trial.</i></p></div>","32","","","","","","","","","","","","","",""
"null","","fixation","html-keyboard-response","81","293117","0.0-8.0-0.27","5aedec6e76b763000132f75e","condB","","<div class=""vertical-center"" style='width:60%;'><p style='font-weight:bold;'>Does the middle word sound more like the first word (A) or the last word (B)?</p> <br> <div class=""container""> <div id=""a-box""> <p class=""title-text"">A</h3></p> </div> <div id=""x-box""> <p class=""title-text"">X<p> </div> <div id=""b-box""> <p class=""title-text"">B</p></div> <br> <div style='float: left;padding-left:30px;'><p>Press '1' for A</p></div><div style='float: right;padding-right:30px;'><p>Press '0' for B</p> </div> </div></div>","null","","","","","","","","","","","","","",""
"3539","","test","audio-keyboard-response","82","296659","0.0-8.0-1.27","5aedec6e76b763000132f75e","condB","","resources/audio/wordStim/S9_AU_20_axb_Step-4.wav","49","","","","","AU","resources/audio/wordStim/S9_AU_20_axb_Step-4.wav","S9","20","axb","4","CN","0","1","false"
"null","","fixation","html-keyboard-response","83","297661","0.0-8.0-0.28","5aedec6e76b763000132f75e","condB","","<div class=""vertical-center"" style='width:60%;'><p style='font-weight:bold;'>Does the middle word sound more like the first word (A) or the last word (B)?</p> <br> <div class=""container""> <div id=""a-box""> <p class=""title-text"">A</h3></p> </div> <div id=""x-box""> <p class=""title-text"">X<p> </div> <div id=""b-box""> <p class=""title-text"">B</p></div> <br> <div style='float: left;padding-left:30px;'><p>Press '1' for A</p></div><div style='float: right;padding-right:30px;'><p>Press '0' for B</p> </div> </div></div>","null","","","","","","","","","","","","","",""
"4101","","test","audio-keyboard-response","84","301756","0.0-8.0-1.28","5aedec6e76b763000132f75e","condB","","resources/audio/wordStim/S3_AU_16_bxa_Step-9.wav","49","","","","","AU","resources/audio/wordStim/S3_AU_16_bxa_Step-9.wav","S3","16","bxa","9","MI","1","1","true"
"null","","fixation","html-keyboard-response","85","302760","0.0-8.0-0.29","5aedec6e76b763000132f75e","condB","","<div class=""vertical-center"" style='width:60%;'><p style='font-weight:bold;'>Does the middle word sound more like the first word (A) or the last word (B)?</p> <br> <div class=""container""> <div id=""a-box""> <p class=""title-text"">A</h3></p> </div> <div id=""x-box""> <p class=""title-text"">X<p> </div> <div id=""b-box""> <p class=""title-text"">B</p></div> <br> <div style='float: left;padding-left:30px;'><p>Press '1' for A</p></div><div style='float: right;padding-right:30px;'><p>Press '0' for B</p> </div> </div></div>","null","","","","","","","","","","","","","",""
"3728","","test","audio-keyboard-response","86","306487","0.0-8.0-1.29","5aedec6e76b763000132f75e","condB","","resources/audio/wordStim/S9_AU_17_bxa_Step-9.wav","49","","","","","AU","resources/audio/wordStim/S9_AU_17_bxa_Step-9.wav","S9","17","bxa","9","CN","1","1","true"
"null","","fixation","html-keyboard-response","87","307493","0.0-8.0-0.30","5aedec6e76b763000132f75e","condB","","<div class=""vertical-center"" style='width:60%;'><p style='font-weight:bold;'>Does the middle word sound more like the first word (A) or the last word (B)?</p> <br> <div class=""container""> <div id=""a-box""> <p class=""title-text"">A</h3></p> </div> <div id=""x-box""> <p class=""title-text"">X<p> </div> <div id=""b-box""> <p class=""title-text"">B</p></div> <br> <div style='float: left;padding-left:30px;'><p>Press '1' for A</p></div><div style='float: right;padding-right:30px;'><p>Press '0' for B</p> </div> </div></div>","null","","","","","","","","","","","","","",""
"3421","","test","audio-keyboard-response","88","310914","0.0-8.0-1.30","5aedec6e76b763000132f75e","condB","","resources/audio/wordStim/S9_AI_30_axb_Step-8.wav","48","","","","","AI","resources/audio/wordStim/S9_AI_30_axb_Step-8.wav","S9","30","axb","8","CN","0","0","true"
"null","","fixation","html-keyboard-response","89","311917","0.0-8.0-0.31","5aedec6e76b763000132f75e","condB","","<div class=""vertical-center"" style='width:60%;'><p style='font-weight:bold;'>Does the middle word sound more like the first word (A) or the last word (B)?</p> <br> <div class=""container""> <div id=""a-box""> <p class=""title-text"">A</h3></p> </div> <div id=""x-box""> <p class=""title-text"">X<p> </div> <div id=""b-box""> <p class=""title-text"">B</p></div> <br> <div style='float: left;padding-left:30px;'><p>Press '1' for A</p></div><div style='float: right;padding-right:30px;'><p>Press '0' for B</p> </div> </div></div>","null","","","","","","","","","","","","","",""
"4019","","test","audio-keyboard-response","90","315940","0.0-8.0-1.31","5aedec6e76b763000132f75e","condB","","resources/audio/wordStim/S3_AU_17_bxa_Step-10.wav","49","","","","","AU","resources/audio/wordStim/S3_AU_17_bxa_Step-10.wav","S3","17","bxa","10","MI","1","1","true"
"null","","fixation","html-keyboard-response","91","316944","0.0-8.0-0.32","5aedec6e76b763000132f75e","condB","","<div class=""vertical-center"" style='width:60%;'><p style='font-weight:bold;'>Does the middle word sound more like the first word (A) or the last word (B)?</p> <br> <div class=""container""> <div id=""a-box""> <p class=""title-text"">A</h3></p> </div> <div id=""x-box""> <p class=""title-text"">X<p> </div> <div id=""b-box""> <p class=""title-text"">B</p></div> <br> <div style='float: left;padding-left:30px;'><p>Press '1' for A</p></div><div style='float: right;padding-right:30px;'><p>Press '0' for B</p> </div> </div></div>","null","","","","","","","","","","","","","",""
"3379","","test","audio-keyboard-response","92","320331","0.0-8.0-1.32","5aedec6e76b763000132f75e","condB","","resources/audio/wordStim/S3_AU_11_bxa_Step-10.wav","48","","","","","AU","resources/audio/wordStim/S3_AU_11_bxa_Step-10.wav","S3","11","bxa","10","MI","1","0","false"
"null","","fixation","html-keyboard-response","93","321334","0.0-8.0-0.33","5aedec6e76b763000132f75e","condB","","<div class=""vertical-center"" style='width:60%;'><p style='font-weight:bold;'>Does the middle word sound more like the first word (A) or the last word (B)?</p> <br> <div class=""container""> <div id=""a-box""> <p class=""title-text"">A</h3></p> </div> <div id=""x-box""> <p class=""title-text"">X<p> </div> <div id=""b-box""> <p class=""title-text"">B</p></div> <br> <div style='float: left;padding-left:30px;'><p>Press '1' for A</p></div><div style='float: right;padding-right:30px;'><p>Press '0' for B</p> </div> </div></div>","null","","","","","","","","","","","","","",""
"2891","","test","audio-keyboard-response","94","324232","0.0-8.0-1.33","5aedec6e76b763000132f75e","condB","","resources/audio/wordStim/S3_AU_14_axb_Step-6.wav","48","","","","","AU","resources/audio/wordStim/S3_AU_14_axb_Step-6.wav","S3","14","axb","6","MI","0","0","true"
"null","","fixation","html-keyboard-response","95","325235","0.0-8.0-0.34","5aedec6e76b763000132f75e","condB","","<div class=""vertical-center"" style='width:60%;'><p style='font-weight:bold;'>Does the middle word sound more like the first word (A) or the last word (B)?</p> <br> <div class=""container""> <div id=""a-box""> <p class=""title-text"">A</h3></p> </div> <div id=""x-box""> <p class=""title-text"">X<p> </div> <div id=""b-box""> <p class=""title-text"">B</p></div> <br> <div style='float: left;padding-left:30px;'><p>Press '1' for A</p></div><div style='float: right;padding-right:30px;'><p>Press '0' for B</p> </div> </div></div>","null","","","","","","","","","","","","","",""
"3760","","test","audio-keyboard-response","96","328999","0.0-8.0-1.34","5aedec6e76b763000132f75e","condB","","resources/audio/wordStim/S9_AU_18_axb_Step-8.wav","48","","","","","AU","resources/audio/wordStim/S9_AU_18_axb_Step-8.wav","S9","18","axb","8","CN","0","0","true"
"null","","fixation","html-keyboard-response","97","330002","0.0-8.0-0.35","5aedec6e76b763000132f75e","condB","","<div class=""vertical-center"" style='width:60%;'><p style='font-weight:bold;'>Does the middle word sound more like the first word (A) or the last word (B)?</p> <br> <div class=""container""> <div id=""a-box""> <p class=""title-text"">A</h3></p> </div> <div id=""x-box""> <p class=""title-text"">X<p> </div> <div id=""b-box""> <p class=""title-text"">B</p></div> <br> <div style='float: left;padding-left:30px;'><p>Press '1' for A</p></div><div style='float: right;padding-right:30px;'><p>Press '0' for B</p> </div> </div></div>","null","","","","","","","","","","","","","",""
"3069","","test","audio-keyboard-response","98","333074","0.0-8.0-1.35","5aedec6e76b763000132f75e","condB","","resources/audio/wordStim/S9_AU_16_axb_Step-4.wav","49","","","","","AU","resources/audio/wordStim/S9_AU_16_axb_Step-4.wav","S9","16","axb","4","CN","0","1","false"
"null","","fixation","html-keyboard-response","99","334078","0.0-8.0-0.36","5aedec6e76b763000132f75e","condB","","<div class=""vertical-center"" style='width:60%;'><p style='font-weight:bold;'>Does the middle word sound more like the first word (A) or the last word (B)?</p> <br> <div class=""container""> <div id=""a-box""> <p class=""title-text"">A</h3></p> </div> <div id=""x-box""> <p class=""title-text"">X<p> </div> <div id=""b-box""> <p class=""title-text"">B</p></div> <br> <div style='float: left;padding-left:30px;'><p>Press '1' for A</p></div><div style='float: right;padding-right:30px;'><p>Press '0' for B</p> </div> </div></div>","null","","","","","","","","","","","","","",""
"3469","","test","audio-keyboard-response","100","337552","0.0-8.0-1.36","5aedec6e76b763000132f75e","condB","","resources/audio/wordStim/S9_AU_14_axb_Step-2.wav","48","","","","","AU","resources/audio/wordStim/S9_AU_14_axb_Step-2.wav","S9","14","axb","2","CN","0","0","true"
"null","","fixation","html-keyboard-response","101","338557","0.0-8.0-0.37","5aedec6e76b763000132f75e","condB","","<div class=""vertical-center"" style='width:60%;'><p style='font-weight:bold;'>Does the middle word sound more like the first word (A) or the last word (B)?</p> <br> <div class=""container""> <div id=""a-box""> <p class=""title-text"">A</h3></p> </div> <div id=""x-box""> <p class=""title-text"">X<p> </div> <div id=""b-box""> <p class=""title-text"">B</p></div> <br> <div style='float: left;padding-left:30px;'><p>Press '1' for A</p></div><div style='float: right;padding-right:30px;'><p>Press '0' for B</p> </div> </div></div>","null","","","","","","","","","","","","","",""
"3408","","test","audio-keyboard-response","102","341974","0.0-8.0-1.37","5aedec6e76b763000132f75e","condB","","resources/audio/wordStim/S9_AU_14_axb_Step-6.wav","48","","","","","AU","resources/audio/wordStim/S9_AU_14_axb_Step-6.wav","S9","14","axb","6","CN","0","0","true"
"null","","fixation","html-keyboard-response","103","342977","0.0-8.0-0.38","5aedec6e76b763000132f75e","condB","","<div class=""vertical-center"" style='width:60%;'><p style='font-weight:bold;'>Does the middle word sound more like the first word (A) or the last word (B)?</p> <br> <div class=""container""> <div id=""a-box""> <p class=""title-text"">A</h3></p> </div> <div id=""x-box""> <p class=""title-text"">X<p> </div> <div id=""b-box""> <p class=""title-text"">B</p></div> <br> <div style='float: left;padding-left:30px;'><p>Press '1' for A</p></div><div style='float: right;padding-right:30px;'><p>Press '0' for B</p> </div> </div></div>","null","","","","","","","","","","","","","",""
"4451","","test","audio-keyboard-response","104","347426","0.0-8.0-1.38","5aedec6e76b763000132f75e","condB","","resources/audio/wordStim/S9_AI_30_bxa_Step-5.wav","48","","","","","AI","resources/audio/wordStim/S9_AI_30_bxa_Step-5.wav","S9","30","bxa","5","CN","1","0","false"
"null","","fixation","html-keyboard-response","105","348429","0.0-8.0-0.39","5aedec6e76b763000132f75e","condB","","<div class=""vertical-center"" style='width:60%;'><p style='font-weight:bold;'>Does the middle word sound more like the first word (A) or the last word (B)?</p> <br> <div class=""container""> <div id=""a-box""> <p class=""title-text"">A</h3></p> </div> <div id=""x-box""> <p class=""title-text"">X<p> </div> <div id=""b-box""> <p class=""title-text"">B</p></div> <br> <div style='float: left;padding-left:30px;'><p>Press '1' for A</p></div><div style='float: right;padding-right:30px;'><p>Press '0' for B</p> </div> </div></div>","null","","","","","","","","","","","","","",""
"2989","","test","audio-keyboard-response","106","351421","0.0-8.0-1.39","5aedec6e76b763000132f75e","condB","","resources/audio/wordStim/S9_AU_16_axb_Step-8.wav","48","","","","","AU","resources/audio/wordStim/S9_AU_16_axb_Step-8.wav","S9","16","axb","8","CN","0","0","true"
"null","","fixation","html-keyboard-response","107","352425","0.0-8.0-0.40","5aedec6e76b763000132f75e","condB","","<div class=""vertical-center"" style='width:60%;'><p style='font-weight:bold;'>Does the middle word sound more like the first word (A) or the last word (B)?</p> <br> <div class=""container""> <div id=""a-box""> <p class=""title-text"">A</h3></p> </div> <div id=""x-box""> <p class=""title-text"">X<p> </div> <div id=""b-box""> <p class=""title-text"">B</p></div> <br> <div style='float: left;padding-left:30px;'><p>Press '1' for A</p></div><div style='float: right;padding-right:30px;'><p>Press '0' for B</p> </div> </div></div>","null","","","","","","","","","","","","","",""
"3979","","test","audio-keyboard-response","108","356409","0.0-8.0-1.40","5aedec6e76b763000132f75e","condB","","resources/audio/wordStim/S9_AU_18_bxa_Step-5.wav","49","","","","","AU","resources/audio/wordStim/S9_AU_18_bxa_Step-5.wav","S9","18","bxa","5","CN","1","1","true"
"null","","fixation","html-keyboard-response","109","357412","0.0-8.0-0.41","5aedec6e76b763000132f75e","condB","","<div class=""vertical-center"" style='width:60%;'><p style='font-weight:bold;'>Does the middle word sound more like the first word (A) or the last word (B)?</p> <br> <div class=""container""> <div id=""a-box""> <p class=""title-text"">A</h3></p> </div> <div id=""x-box""> <p class=""title-text"">X<p> </div> <div id=""b-box""> <p class=""title-text"">B</p></div> <br> <div style='float: left;padding-left:30px;'><p>Press '1' for A</p></div><div style='float: right;padding-right:30px;'><p>Press '0' for B</p> </div> </div></div>","null","","","","","","","","","","","","","",""
"3909","","test","audio-keyboard-response","110","361333","0.0-8.0-1.41","5aedec6e76b763000132f75e","condB","","resources/audio/wordStim/S9_AU_18_axb_Step-4.wav","49","","","","","AU","resources/audio/wordStim/S9_AU_18_axb_Step-4.wav","S9","18","axb","4","CN","0","1","false"
"null","","fixation","html-keyboard-response","111","362336","0.0-8.0-0.42","5aedec6e76b763000132f75e","condB","","<div class=""vertical-center"" style='width:60%;'><p style='font-weight:bold;'>Does the middle word sound more like the first word (A) or the last word (B)?</p> <br> <div class=""container""> <div id=""a-box""> <p class=""title-text"">A</h3></p> </div> <div id=""x-box""> <p class=""title-text"">X<p> </div> <div id=""b-box""> <p class=""title-text"">B</p></div> <br> <div style='float: left;padding-left:30px;'><p>Press '1' for A</p></div><div style='float: right;padding-right:30px;'><p>Press '0' for B</p> </div> </div></div>","null","","","","","","","","","","","","","",""
"4720","","test","audio-keyboard-response","112","367058","0.0-8.0-1.42","5aedec6e76b763000132f75e","condB","","resources/audio/wordStim/S3_AI_30_bxa_Step-9.wav","49","","","","","AI","resources/audio/wordStim/S3_AI_30_bxa_Step-9.wav","S3","30","bxa","9","MI","1","1","true"
"null","","fixation","html-keyboard-response","113","368061","0.0-8.0-0.43","5aedec6e76b763000132f75e","condB","","<div class=""vertical-center"" style='width:60%;'><p style='font-weight:bold;'>Does the middle word sound more like the first word (A) or the last word (B)?</p> <br> <div class=""container""> <div id=""a-box""> <p class=""title-text"">A</h3></p> </div> <div id=""x-box""> <p class=""title-text"">X<p> </div> <div id=""b-box""> <p class=""title-text"">B</p></div> <br> <div style='float: left;padding-left:30px;'><p>Press '1' for A</p></div><div style='float: right;padding-right:30px;'><p>Press '0' for B</p> </div> </div></div>","null","","","","","","","","","","","","","",""
"3691","","test","audio-keyboard-response","114","371747","0.0-8.0-1.43","5aedec6e76b763000132f75e","condB","","resources/audio/wordStim/S3_AU_18_axb_Step-4.wav","49","","","","","AU","resources/audio/wordStim/S3_AU_18_axb_Step-4.wav","S3","18","axb","4","MI","0","1","false"
"null","","fixation","html-keyboard-response","115","372750","0.0-8.0-0.44","5aedec6e76b763000132f75e","condB","","<div class=""vertical-center"" style='width:60%;'><p style='font-weight:bold;'>Does the middle word sound more like the first word (A) or the last word (B)?</p> <br> <div class=""container""> <div id=""a-box""> <p class=""title-text"">A</h3></p> </div> <div id=""x-box""> <p class=""title-text"">X<p> </div> <div id=""b-box""> <p class=""title-text"">B</p></div> <br> <div style='float: left;padding-left:30px;'><p>Press '1' for A</p></div><div style='float: right;padding-right:30px;'><p>Press '0' for B</p> </div> </div></div>","null","","","","","","","","","","","","","",""
"3611","","test","audio-keyboard-response","116","376356","0.0-8.0-1.44","5aedec6e76b763000132f75e","condB","","resources/audio/wordStim/S9_AI_24_bxa_Step-10.wav","48","","","","","AI","resources/audio/wordStim/S9_AI_24_bxa_Step-10.wav","S9","24","bxa","10","CN","1","0","false"
"null","","fixation","html-keyboard-response","117","377359","0.0-8.0-0.45","5aedec6e76b763000132f75e","condB","","<div class=""vertical-center"" style='width:60%;'><p style='font-weight:bold;'>Does the middle word sound more like the first word (A) or the last word (B)?</p> <br> <div class=""container""> <div id=""a-box""> <p class=""title-text"">A</h3></p> </div> <div id=""x-box""> <p class=""title-text"">X<p> </div> <div id=""b-box""> <p class=""title-text"">B</p></div> <br> <div style='float: left;padding-left:30px;'><p>Press '1' for A</p></div><div style='float: right;padding-right:30px;'><p>Press '0' for B</p> </div> </div></div>","null","","","","","","","","","","","","","",""
"4059","","test","audio-keyboard-response","118","381418","0.0-8.0-1.45","5aedec6e76b763000132f75e","condB","","resources/audio/wordStim/S9_AU_18_bxa_Step-9.wav","48","","","","","AU","resources/audio/wordStim/S9_AU_18_bxa_Step-9.wav","S9","18","bxa","9","CN","1","0","false"
"null","","fixation","html-keyboard-response","119","382421","0.0-8.0-0.46","5aedec6e76b763000132f75e","condB","","<div class=""vertical-center"" style='width:60%;'><p style='font-weight:bold;'>Does the middle word sound more like the first word (A) or the last word (B)?</p> <br> <div class=""container""> <div id=""a-box""> <p class=""title-text"">A</h3></p> </div> <div id=""x-box""> <p class=""title-text"">X<p> </div> <div id=""b-box""> <p class=""title-text"">B</p></div> <br> <div style='float: left;padding-left:30px;'><p>Press '1' for A</p></div><div style='float: right;padding-right:30px;'><p>Press '0' for B</p> </div> </div></div>","null","","","","","","","","","","","","","",""
"3800","","test","audio-keyboard-response","120","386215","0.0-8.0-1.46","5aedec6e76b763000132f75e","condB","","resources/audio/wordStim/S9_AU_16_bxa_Step-10.wav","48","","","","","AU","resources/audio/wordStim/S9_AU_16_bxa_Step-10.wav","S9","16","bxa","10","CN","1","0","false"
"null","","fixation","html-keyboard-response","121","387220","0.0-8.0-0.47","5aedec6e76b763000132f75e","condB","","<div class=""vertical-center"" style='width:60%;'><p style='font-weight:bold;'>Does the middle word sound more like the first word (A) or the last word (B)?</p> <br> <div class=""container""> <div id=""a-box""> <p class=""title-text"">A</h3></p> </div> <div id=""x-box""> <p class=""title-text"">X<p> </div> <div id=""b-box""> <p class=""title-text"">B</p></div> <br> <div style='float: left;padding-left:30px;'><p>Press '1' for A</p></div><div style='float: right;padding-right:30px;'><p>Press '0' for B</p> </div> </div></div>","null","","","","","","","","","","","","","",""
"4720","","test","audio-keyboard-response","122","391939","0.0-8.0-1.47","5aedec6e76b763000132f75e","condB","","resources/audio/wordStim/S9_AI_23_bxa_Step-3.wav","49","","","","","AI","resources/audio/wordStim/S9_AI_23_bxa_Step-3.wav","S9","23","bxa","3","CN","1","1","true"
"null","","fixation","html-keyboard-response","123","392942","0.0-8.0-0.48","5aedec6e76b763000132f75e","condB","","<div class=""vertical-center"" style='width:60%;'><p style='font-weight:bold;'>Does the middle word sound more like the first word (A) or the last word (B)?</p> <br> <div class=""container""> <div id=""a-box""> <p class=""title-text"">A</h3></p> </div> <div id=""x-box""> <p class=""title-text"">X<p> </div> <div id=""b-box""> <p class=""title-text"">B</p></div> <br> <div style='float: left;padding-left:30px;'><p>Press '1' for A</p></div><div style='float: right;padding-right:30px;'><p>Press '0' for B</p> </div> </div></div>","null","","","","","","","","","","","","","",""
"3731","","test","audio-keyboard-response","124","396671","0.0-8.0-1.48","5aedec6e76b763000132f75e","condB","","resources/audio/wordStim/S9_AI_27_bxa_Step-9.wav","48","","","","","AI","resources/audio/wordStim/S9_AI_27_bxa_Step-9.wav","S9","27","bxa","9","CN","1","0","false"
"null","","fixation","html-keyboard-response","125","397675","0.0-8.0-0.49","5aedec6e76b763000132f75e","condB","","<div class=""vertical-center"" style='width:60%;'><p style='font-weight:bold;'>Does the middle word sound more like the first word (A) or the last word (B)?</p> <br> <div class=""container""> <div id=""a-box""> <p class=""title-text"">A</h3></p> </div> <div id=""x-box""> <p class=""title-text"">X<p> </div> <div id=""b-box""> <p class=""title-text"">B</p></div> <br> <div style='float: left;padding-left:30px;'><p>Press '1' for A</p></div><div style='float: right;padding-right:30px;'><p>Press '0' for B</p> </div> </div></div>","null","","","","","","","","","","","","","",""
"3339","","test","audio-keyboard-response","126","401024","0.0-8.0-1.49","5aedec6e76b763000132f75e","condB","","resources/audio/wordStim/S3_AU_15_bxa_Step-9.wav","48","","","","","AU","resources/audio/wordStim/S3_AU_15_bxa_Step-9.wav","S3","15","bxa","9","MI","1","0","false"
"null","","fixation","html-keyboard-response","127","402032","0.0-8.0-0.50","5aedec6e76b763000132f75e","condB","","<div class=""vertical-center"" style='width:60%;'><p style='font-weight:bold;'>Does the middle word sound more like the first word (A) or the last word (B)?</p> <br> <div class=""container""> <div id=""a-box""> <p class=""title-text"">A</h3></p> </div> <div id=""x-box""> <p class=""title-text"">X<p> </div> <div id=""b-box""> <p class=""title-text"">B</p></div> <br> <div style='float: left;padding-left:30px;'><p>Press '1' for A</p></div><div style='float: right;padding-right:30px;'><p>Press '0' for B</p> </div> </div></div>","null","","","","","","","","","","","","","",""
"3749","","test","audio-keyboard-response","128","405777","0.0-8.0-1.50","5aedec6e76b763000132f75e","condB","","resources/audio/wordStim/S9_AU_13_axb_Step-2.wav","48","","","","","AU","resources/audio/wordStim/S9_AU_13_axb_Step-2.wav","S9","13","axb","2","CN","0","0","true"
"null","","fixation","html-keyboard-response","129","406780","0.0-8.0-0.51","5aedec6e76b763000132f75e","condB","","<div class=""vertical-center"" style='width:60%;'><p style='font-weight:bold;'>Does the middle word sound more like the first word (A) or the last word (B)?</p> <br> <div class=""container""> <div id=""a-box""> <p class=""title-text"">A</h3></p> </div> <div id=""x-box""> <p class=""title-text"">X<p> </div> <div id=""b-box""> <p class=""title-text"">B</p></div> <br> <div style='float: left;padding-left:30px;'><p>Press '1' for A</p></div><div style='float: right;padding-right:30px;'><p>Press '0' for B</p> </div> </div></div>","null","","","","","","","","","","","","","",""
"4029","","test","audio-keyboard-response","130","410812","0.0-8.0-1.51","5aedec6e76b763000132f75e","condB","","resources/audio/wordStim/S9_AI_22_axb_Step-4.wav","48","","","","","AI","resources/audio/wordStim/S9_AI_22_axb_Step-4.wav","S9","22","axb","4","CN","0","0","true"
"null","","fixation","html-keyboard-response","131","411815","0.0-8.0-0.52","5aedec6e76b763000132f75e","condB","","<div class=""vertical-center"" style='width:60%;'><p style='font-weight:bold;'>Does the middle word sound more like the first word (A) or the last word (B)?</p> <br> <div class=""container""> <div id=""a-box""> <p class=""title-text"">A</h3></p> </div> <div id=""x-box""> <p class=""title-text"">X<p> </div> <div id=""b-box""> <p class=""title-text"">B</p></div> <br> <div style='float: left;padding-left:30px;'><p>Press '1' for A</p></div><div style='float: right;padding-right:30px;'><p>Press '0' for B</p> </div> </div></div>","null","","","","","","","","","","","","","",""
"3451","","test","audio-keyboard-response","132","415267","0.0-8.0-1.52","5aedec6e76b763000132f75e","condB","","resources/audio/wordStim/S9_AU_16_bxa_Step-5.wav","48","","","","","AU","resources/audio/wordStim/S9_AU_16_bxa_Step-5.wav","S9","16","bxa","5","CN","1","0","false"
"null","","fixation","html-keyboard-response","133","416270","0.0-8.0-0.53","5aedec6e76b763000132f75e","condB","","<div class=""vertical-center"" style='width:60%;'><p style='font-weight:bold;'>Does the middle word sound more like the first word (A) or the last word (B)?</p> <br> <div class=""container""> <div id=""a-box""> <p class=""title-text"">A</h3></p> </div> <div id=""x-box""> <p class=""title-text"">X<p> </div> <div id=""b-box""> <p class=""title-text"">B</p></div> <br> <div style='float: left;padding-left:30px;'><p>Press '1' for A</p></div><div style='float: right;padding-right:30px;'><p>Press '0' for B</p> </div> </div></div>","null","","","","","","","","","","","","","",""
"4979","","test","audio-keyboard-response","134","421249","0.0-8.0-1.53","5aedec6e76b763000132f75e","condB","","resources/audio/wordStim/S3_AI_23_axb_Step-8.wav","48","","","","","AI","resources/audio/wordStim/S3_AI_23_axb_Step-8.wav","S3","23","axb","8","MI","0","0","true"
"1713.0700000561774","","break","html-keyboard-response","135","423464","0.0-8.0-2.53-0.53","5aedec6e76b763000132f75e","condB","","<div class=""vertical-center""><p>Feel free to take a break!</p><i>When you're ready to continue, press SPACE to begin the next trial.</i></p></div>","32","","","","","","","","","","","","","",""
"null","","fixation","html-keyboard-response","136","423966","0.0-8.0-0.54","5aedec6e76b763000132f75e","condB","","<div class=""vertical-center"" style='width:60%;'><p style='font-weight:bold;'>Does the middle word sound more like the first word (A) or the last word (B)?</p> <br> <div class=""container""> <div id=""a-box""> <p class=""title-text"">A</h3></p> </div> <div id=""x-box""> <p class=""title-text"">X<p> </div> <div id=""b-box""> <p class=""title-text"">B</p></div> <br> <div style='float: left;padding-left:30px;'><p>Press '1' for A</p></div><div style='float: right;padding-right:30px;'><p>Press '0' for B</p> </div> </div></div>","null","","","","","","","","","","","","","",""
"3152","","test","audio-keyboard-response","137","427118","0.0-8.0-1.54","5aedec6e76b763000132f75e","condB","","resources/audio/wordStim/S3_AI_25_axb_Step-2.wav","48","","","","","AI","resources/audio/wordStim/S3_AI_25_axb_Step-2.wav","S3","25","axb","2","MI","0","0","true"
"null","","fixation","html-keyboard-response","138","428121","0.0-8.0-0.55","5aedec6e76b763000132f75e","condB","","<div class=""vertical-center"" style='width:60%;'><p style='font-weight:bold;'>Does the middle word sound more like the first word (A) or the last word (B)?</p> <br> <div class=""container""> <div id=""a-box""> <p class=""title-text"">A</h3></p> </div> <div id=""x-box""> <p class=""title-text"">X<p> </div> <div id=""b-box""> <p class=""title-text"">B</p></div> <br> <div style='float: left;padding-left:30px;'><p>Press '1' for A</p></div><div style='float: right;padding-right:30px;'><p>Press '0' for B</p> </div> </div></div>","null","","","","","","","","","","","","","",""
"5299","","test","audio-keyboard-response","139","433420","0.0-8.0-1.55","5aedec6e76b763000132f75e","condB","","resources/audio/wordStim/S9_AU_17_axb_Step-6.wav","49","","","","","AU","resources/audio/wordStim/S9_AU_17_axb_Step-6.wav","S9","17","axb","6","CN","0","1","false"
"null","","fixation","html-keyboard-response","140","434425","0.0-8.0-0.56","5aedec6e76b763000132f75e","condB","","<div class=""vertical-center"" style='width:60%;'><p style='font-weight:bold;'>Does the middle word sound more like the first word (A) or the last word (B)?</p> <br> <div class=""container""> <div id=""a-box""> <p class=""title-text"">A</h3></p> </div> <div id=""x-box""> <p class=""title-text"">X<p> </div> <div id=""b-box""> <p class=""title-text"">B</p></div> <br> <div style='float: left;padding-left:30px;'><p>Press '1' for A</p></div><div style='float: right;padding-right:30px;'><p>Press '0' for B</p> </div> </div></div>","null","","","","","","","","","","","","","",""
"3189","","test","audio-keyboard-response","141","437621","0.0-8.0-1.56","5aedec6e76b763000132f75e","condB","","resources/audio/wordStim/S3_AI_21_bxa_Step-7.wav","49","","","","","AI","resources/audio/wordStim/S3_AI_21_bxa_Step-7.wav","S3","21","bxa","7","MI","1","1","true"
"null","","fixation","html-keyboard-response","142","438624","0.0-8.0-0.57","5aedec6e76b763000132f75e","condB","","<div class=""vertical-center"" style='width:60%;'><p style='font-weight:bold;'>Does the middle word sound more like the first word (A) or the last word (B)?</p> <br> <div class=""container""> <div id=""a-box""> <p class=""title-text"">A</h3></p> </div> <div id=""x-box""> <p class=""title-text"">X<p> </div> <div id=""b-box""> <p class=""title-text"">B</p></div> <br> <div style='float: left;padding-left:30px;'><p>Press '1' for A</p></div><div style='float: right;padding-right:30px;'><p>Press '0' for B</p> </div> </div></div>","null","","","","","","","","","","","","","",""
"3389","","test","audio-keyboard-response","143","442019","0.0-8.0-1.57","5aedec6e76b763000132f75e","condB","","resources/audio/wordStim/S9_AI_25_bxa_Step-10.wav","48","","","","","AI","resources/audio/wordStim/S9_AI_25_bxa_Step-10.wav","S9","25","bxa","10","CN","1","0","false"
"null","","fixation","html-keyboard-response","144","443022","0.0-8.0-0.58","5aedec6e76b763000132f75e","condB","","<div class=""vertical-center"" style='width:60%;'><p style='font-weight:bold;'>Does the middle word sound more like the first word (A) or the last word (B)?</p> <br> <div class=""container""> <div id=""a-box""> <p class=""title-text"">A</h3></p> </div> <div id=""x-box""> <p class=""title-text"">X<p> </div> <div id=""b-box""> <p class=""title-text"">B</p></div> <br> <div style='float: left;padding-left:30px;'><p>Press '1' for A</p></div><div style='float: right;padding-right:30px;'><p>Press '0' for B</p> </div> </div></div>","null","","","","","","","","","","","","","",""
"3549","","test","audio-keyboard-response","145","446584","0.0-8.0-1.58","5aedec6e76b763000132f75e","condB","","resources/audio/wordStim/S9_AU_20_bxa_Step-10.wav","49","","","","","AU","resources/audio/wordStim/S9_AU_20_bxa_Step-10.wav","S9","20","bxa","10","CN","1","1","true"
"null","","fixation","html-keyboard-response","146","447586","0.0-8.0-0.59","5aedec6e76b763000132f75e","condB","","<div class=""vertical-center"" style='width:60%;'><p style='font-weight:bold;'>Does the middle word sound more like the first word (A) or the last word (B)?</p> <br> <div class=""container""> <div id=""a-box""> <p class=""title-text"">A</h3></p> </div> <div id=""x-box""> <p class=""title-text"">X<p> </div> <div id=""b-box""> <p class=""title-text"">B</p></div> <br> <div style='float: left;padding-left:30px;'><p>Press '1' for A</p></div><div style='float: right;padding-right:30px;'><p>Press '0' for B</p> </div> </div></div>","null","","","","","","","","","","","","","",""
"3560","","test","audio-keyboard-response","147","451152","0.0-8.0-1.59","5aedec6e76b763000132f75e","condB","","resources/audio/wordStim/S9_AU_19_bxa_Step-9.wav","49","","","","","AU","resources/audio/wordStim/S9_AU_19_bxa_Step-9.wav","S9","19","bxa","9","CN","1","1","true"
"null","","fixation","html-keyboard-response","148","452156","0.0-8.0-0.60","5aedec6e76b763000132f75e","condB","","<div class=""vertical-center"" style='width:60%;'><p style='font-weight:bold;'>Does the middle word sound more like the first word (A) or the last word (B)?</p> <br> <div class=""container""> <div id=""a-box""> <p class=""title-text"">A</h3></p> </div> <div id=""x-box""> <p class=""title-text"">X<p> </div> <div id=""b-box""> <p class=""title-text"">B</p></div> <br> <div style='float: left;padding-left:30px;'><p>Press '1' for A</p></div><div style='float: right;padding-right:30px;'><p>Press '0' for B</p> </div> </div></div>","null","","","","","","","","","","","","","",""
"3659","","test","audio-keyboard-response","149","455816","0.0-8.0-1.60","5aedec6e76b763000132f75e","condB","","resources/audio/wordStim/S9_AI_30_axb_Step-6.wav","49","","","","","AI","resources/audio/wordStim/S9_AI_30_axb_Step-6.wav","S9","30","axb","6","CN","0","1","false"
"null","","fixation","html-keyboard-response","150","456821","0.0-8.0-0.61","5aedec6e76b763000132f75e","condB","","<div class=""vertical-center"" style='width:60%;'><p style='font-weight:bold;'>Does the middle word sound more like the first word (A) or the last word (B)?</p> <br> <div class=""container""> <div id=""a-box""> <p class=""title-text"">A</h3></p> </div> <div id=""x-box""> <p class=""title-text"">X<p> </div> <div id=""b-box""> <p class=""title-text"">B</p></div> <br> <div style='float: left;padding-left:30px;'><p>Press '1' for A</p></div><div style='float: right;padding-right:30px;'><p>Press '0' for B</p> </div> </div></div>","null","","","","","","","","","","","","","",""
"3611","","test","audio-keyboard-response","151","460424","0.0-8.0-1.61","5aedec6e76b763000132f75e","condB","","resources/audio/wordStim/S3_AU_14_bxa_Step-5.wav","48","","","","","AU","resources/audio/wordStim/S3_AU_14_bxa_Step-5.wav","S3","14","bxa","5","MI","1","0","false"
"null","","fixation","html-keyboard-response","152","461427","0.0-8.0-0.62","5aedec6e76b763000132f75e","condB","","<div class=""vertical-center"" style='width:60%;'><p style='font-weight:bold;'>Does the middle word sound more like the first word (A) or the last word (B)?</p> <br> <div class=""container""> <div id=""a-box""> <p class=""title-text"">A</h3></p> </div> <div id=""x-box""> <p class=""title-text"">X<p> </div> <div id=""b-box""> <p class=""title-text"">B</p></div> <br> <div style='float: left;padding-left:30px;'><p>Press '1' for A</p></div><div style='float: right;padding-right:30px;'><p>Press '0' for B</p> </div> </div></div>","null","","","","","","","","","","","","","",""
"3309","","test","audio-keyboard-response","153","464738","0.0-8.0-1.62","5aedec6e76b763000132f75e","condB","","resources/audio/wordStim/S3_AU_11_bxa_Step-9.wav","48","","","","","AU","resources/audio/wordStim/S3_AU_11_bxa_Step-9.wav","S3","11","bxa","9","MI","1","0","false"
"null","","fixation","html-keyboard-response","154","465742","0.0-8.0-0.63","5aedec6e76b763000132f75e","condB","","<div class=""vertical-center"" style='width:60%;'><p style='font-weight:bold;'>Does the middle word sound more like the first word (A) or the last word (B)?</p> <br> <div class=""container""> <div id=""a-box""> <p class=""title-text"">A</h3></p> </div> <div id=""x-box""> <p class=""title-text"">X<p> </div> <div id=""b-box""> <p class=""title-text"">B</p></div> <br> <div style='float: left;padding-left:30px;'><p>Press '1' for A</p></div><div style='float: right;padding-right:30px;'><p>Press '0' for B</p> </div> </div></div>","null","","","","","","","","","","","","","",""
"3581","","test","audio-keyboard-response","155","469320","0.0-8.0-1.63","5aedec6e76b763000132f75e","condB","","resources/audio/wordStim/S9_AI_23_axb_Step-2.wav","48","","","","","AI","resources/audio/wordStim/S9_AI_23_axb_Step-2.wav","S9","23","axb","2","CN","0","0","true"
"null","","fixation","html-keyboard-response","156","470324","0.0-8.0-0.64","5aedec6e76b763000132f75e","condB","","<div class=""vertical-center"" style='width:60%;'><p style='font-weight:bold;'>Does the middle word sound more like the first word (A) or the last word (B)?</p> <br> <div class=""container""> <div id=""a-box""> <p class=""title-text"">A</h3></p> </div> <div id=""x-box""> <p class=""title-text"">X<p> </div> <div id=""b-box""> <p class=""title-text"">B</p></div> <br> <div style='float: left;padding-left:30px;'><p>Press '1' for A</p></div><div style='float: right;padding-right:30px;'><p>Press '0' for B</p> </div> </div></div>","null","","","","","","","","","","","","","",""
"3781","","test","audio-keyboard-response","157","474107","0.0-8.0-1.64","5aedec6e76b763000132f75e","condB","","resources/audio/wordStim/S3_AU_16_bxa_Step-3.wav","48","","","","","AU","resources/audio/wordStim/S3_AU_16_bxa_Step-3.wav","S3","16","bxa","3","MI","1","0","false"
"null","","fixation","html-keyboard-response","158","475113","0.0-8.0-0.65","5aedec6e76b763000132f75e","condB","","<div class=""vertical-center"" style='width:60%;'><p style='font-weight:bold;'>Does the middle word sound more like the first word (A) or the last word (B)?</p> <br> <div class=""container""> <div id=""a-box""> <p class=""title-text"">A</h3></p> </div> <div id=""x-box""> <p class=""title-text"">X<p> </div> <div id=""b-box""> <p class=""title-text"">B</p></div> <br> <div style='float: left;padding-left:30px;'><p>Press '1' for A</p></div><div style='float: right;padding-right:30px;'><p>Press '0' for B</p> </div> </div></div>","null","","","","","","","","","","","","","",""
"3160","","test","audio-keyboard-response","159","478280","0.0-8.0-1.65","5aedec6e76b763000132f75e","condB","","resources/audio/wordStim/S3_AU_14_axb_Step-2.wav","49","","","","","AU","resources/audio/wordStim/S3_AU_14_axb_Step-2.wav","S3","14","axb","2","MI","0","1","false"
"null","","fixation","html-keyboard-response","160","479283","0.0-8.0-0.66","5aedec6e76b763000132f75e","condB","","<div class=""vertical-center"" style='width:60%;'><p style='font-weight:bold;'>Does the middle word sound more like the first word (A) or the last word (B)?</p> <br> <div class=""container""> <div id=""a-box""> <p class=""title-text"">A</h3></p> </div> <div id=""x-box""> <p class=""title-text"">X<p> </div> <div id=""b-box""> <p class=""title-text"">B</p></div> <br> <div style='float: left;padding-left:30px;'><p>Press '1' for A</p></div><div style='float: right;padding-right:30px;'><p>Press '0' for B</p> </div> </div></div>","null","","","","","","","","","","","","","",""
"4051","","test","audio-keyboard-response","161","483340","0.0-8.0-1.66","5aedec6e76b763000132f75e","condB","","resources/audio/wordStim/S9_AI_23_bxa_Step-7.wav","49","","","","","AI","resources/audio/wordStim/S9_AI_23_bxa_Step-7.wav","S9","23","bxa","7","CN","1","1","true"
"null","","fixation","html-keyboard-response","162","484344","0.0-8.0-0.67","5aedec6e76b763000132f75e","condB","","<div class=""vertical-center"" style='width:60%;'><p style='font-weight:bold;'>Does the middle word sound more like the first word (A) or the last word (B)?</p> <br> <div class=""container""> <div id=""a-box""> <p class=""title-text"">A</h3></p> </div> <div id=""x-box""> <p class=""title-text"">X<p> </div> <div id=""b-box""> <p class=""title-text"">B</p></div> <br> <div style='float: left;padding-left:30px;'><p>Press '1' for A</p></div><div style='float: right;padding-right:30px;'><p>Press '0' for B</p> </div> </div></div>","null","","","","","","","","","","","","","",""
"4480","","test","audio-keyboard-response","163","488829","0.0-8.0-1.67","5aedec6e76b763000132f75e","condB","","resources/audio/wordStim/S9_AU_18_bxa_Step-7.wav","49","","","","","AU","resources/audio/wordStim/S9_AU_18_bxa_Step-7.wav","S9","18","bxa","7","CN","1","1","true"
"null","","fixation","html-keyboard-response","164","489833","0.0-8.0-0.68","5aedec6e76b763000132f75e","condB","","<div class=""vertical-center"" style='width:60%;'><p style='font-weight:bold;'>Does the middle word sound more like the first word (A) or the last word (B)?</p> <br> <div class=""container""> <div id=""a-box""> <p class=""title-text"">A</h3></p> </div> <div id=""x-box""> <p class=""title-text"">X<p> </div> <div id=""b-box""> <p class=""title-text"">B</p></div> <br> <div style='float: left;padding-left:30px;'><p>Press '1' for A</p></div><div style='float: right;padding-right:30px;'><p>Press '0' for B</p> </div> </div></div>","null","","","","","","","","","","","","","",""
"3469","","test","audio-keyboard-response","165","493313","0.0-8.0-1.68","5aedec6e76b763000132f75e","condB","","resources/audio/wordStim/S3_AU_20_bxa_Step-5.wav","49","","","","","AU","resources/audio/wordStim/S3_AU_20_bxa_Step-5.wav","S3","20","bxa","5","MI","1","1","true"
"null","","fixation","html-keyboard-response","166","494317","0.0-8.0-0.69","5aedec6e76b763000132f75e","condB","","<div class=""vertical-center"" style='width:60%;'><p style='font-weight:bold;'>Does the middle word sound more like the first word (A) or the last word (B)?</p> <br> <div class=""container""> <div id=""a-box""> <p class=""title-text"">A</h3></p> </div> <div id=""x-box""> <p class=""title-text"">X<p> </div> <div id=""b-box""> <p class=""title-text"">B</p></div> <br> <div style='float: left;padding-left:30px;'><p>Press '1' for A</p></div><div style='float: right;padding-right:30px;'><p>Press '0' for B</p> </div> </div></div>","null","","","","","","","","","","","","","",""
"3789","","test","audio-keyboard-response","167","498112","0.0-8.0-1.69","5aedec6e76b763000132f75e","condB","","resources/audio/wordStim/S9_AU_20_bxa_Step-7.wav","48","","","","","AU","resources/audio/wordStim/S9_AU_20_bxa_Step-7.wav","S9","20","bxa","7","CN","1","0","false"
"null","","fixation","html-keyboard-response","168","499115","0.0-8.0-0.70","5aedec6e76b763000132f75e","condB","","<div class=""vertical-center"" style='width:60%;'><p style='font-weight:bold;'>Does the middle word sound more like the first word (A) or the last word (B)?</p> <br> <div class=""container""> <div id=""a-box""> <p class=""title-text"">A</h3></p> </div> <div id=""x-box""> <p class=""title-text"">X<p> </div> <div id=""b-box""> <p class=""title-text"">B</p></div> <br> <div style='float: left;padding-left:30px;'><p>Press '1' for A</p></div><div style='float: right;padding-right:30px;'><p>Press '0' for B</p> </div> </div></div>","null","","","","","","","","","","","","","",""
"2899","","test","audio-keyboard-response","169","502016","0.0-8.0-1.70","5aedec6e76b763000132f75e","condB","","resources/audio/wordStim/S3_AU_14_axb_Step-8.wav","48","","","","","AU","resources/audio/wordStim/S3_AU_14_axb_Step-8.wav","S3","14","axb","8","MI","0","0","true"
"null","","fixation","html-keyboard-response","170","503018","0.0-8.0-0.71","5aedec6e76b763000132f75e","condB","","<div class=""vertical-center"" style='width:60%;'><p style='font-weight:bold;'>Does the middle word sound more like the first word (A) or the last word (B)?</p> <br> <div class=""container""> <div id=""a-box""> <p class=""title-text"">A</h3></p> </div> <div id=""x-box""> <p class=""title-text"">X<p> </div> <div id=""b-box""> <p class=""title-text"">B</p></div> <br> <div style='float: left;padding-left:30px;'><p>Press '1' for A</p></div><div style='float: right;padding-right:30px;'><p>Press '0' for B</p> </div> </div></div>","null","","","","","","","","","","","","","",""
"3461","","test","audio-keyboard-response","171","506481","0.0-8.0-1.71","5aedec6e76b763000132f75e","condB","","resources/audio/wordStim/S3_AI_29_axb_Step-2.wav","48","","","","","AI","resources/audio/wordStim/S3_AI_29_axb_Step-2.wav","S3","29","axb","2","MI","0","0","true"
"null","","fixation","html-keyboard-response","172","507485","0.0-8.0-0.72","5aedec6e76b763000132f75e","condB","","<div class=""vertical-center"" style='width:60%;'><p style='font-weight:bold;'>Does the middle word sound more like the first word (A) or the last word (B)?</p> <br> <div class=""container""> <div id=""a-box""> <p class=""title-text"">A</h3></p> </div> <div id=""x-box""> <p class=""title-text"">X<p> </div> <div id=""b-box""> <p class=""title-text"">B</p></div> <br> <div style='float: left;padding-left:30px;'><p>Press '1' for A</p></div><div style='float: right;padding-right:30px;'><p>Press '0' for B</p> </div> </div></div>","null","","","","","","","","","","","","","",""
"3840","","test","audio-keyboard-response","173","511332","0.0-8.0-1.72","5aedec6e76b763000132f75e","condB","","resources/audio/wordStim/S9_AU_19_bxa_Step-10.wav","49","","","","","AU","resources/audio/wordStim/S9_AU_19_bxa_Step-10.wav","S9","19","bxa","10","CN","1","1","true"
"null","","fixation","html-keyboard-response","174","512335","0.0-8.0-0.73","5aedec6e76b763000132f75e","condB","","<div class=""vertical-center"" style='width:60%;'><p style='font-weight:bold;'>Does the middle word sound more like the first word (A) or the last word (B)?</p> <br> <div class=""container""> <div id=""a-box""> <p class=""title-text"">A</h3></p> </div> <div id=""x-box""> <p class=""title-text"">X<p> </div> <div id=""b-box""> <p class=""title-text"">B</p></div> <br> <div style='float: left;padding-left:30px;'><p>Press '1' for A</p></div><div style='float: right;padding-right:30px;'><p>Press '0' for B</p> </div> </div></div>","null","","","","","","","","","","","","","",""
"3949","","test","audio-keyboard-response","175","516290","0.0-8.0-1.73","5aedec6e76b763000132f75e","condB","","resources/audio/wordStim/S3_AI_21_bxa_Step-5.wav","48","","","","","AI","resources/audio/wordStim/S3_AI_21_bxa_Step-5.wav","S3","21","bxa","5","MI","1","0","false"
"null","","fixation","html-keyboard-response","176","517294","0.0-8.0-0.74","5aedec6e76b763000132f75e","condB","","<div class=""vertical-center"" style='width:60%;'><p style='font-weight:bold;'>Does the middle word sound more like the first word (A) or the last word (B)?</p> <br> <div class=""container""> <div id=""a-box""> <p class=""title-text"">A</h3></p> </div> <div id=""x-box""> <p class=""title-text"">X<p> </div> <div id=""b-box""> <p class=""title-text"">B</p></div> <br> <div style='float: left;padding-left:30px;'><p>Press '1' for A</p></div><div style='float: right;padding-right:30px;'><p>Press '0' for B</p> </div> </div></div>","null","","","","","","","","","","","","","",""
"3680","","test","audio-keyboard-response","177","520977","0.0-8.0-1.74","5aedec6e76b763000132f75e","condB","","resources/audio/wordStim/S3_AI_29_bxa_Step-7.wav","48","","","","","AI","resources/audio/wordStim/S3_AI_29_bxa_Step-7.wav","S3","29","bxa","7","MI","1","0","false"
"null","","fixation","html-keyboard-response","178","521981","0.0-8.0-0.75","5aedec6e76b763000132f75e","condB","","<div class=""vertical-center"" style='width:60%;'><p style='font-weight:bold;'>Does the middle word sound more like the first word (A) or the last word (B)?</p> <br> <div class=""container""> <div id=""a-box""> <p class=""title-text"">A</h3></p> </div> <div id=""x-box""> <p class=""title-text"">X<p> </div> <div id=""b-box""> <p class=""title-text"">B</p></div> <br> <div style='float: left;padding-left:30px;'><p>Press '1' for A</p></div><div style='float: right;padding-right:30px;'><p>Press '0' for B</p> </div> </div></div>","null","","","","","","","","","","","","","",""
"3600","","test","audio-keyboard-response","179","525580","0.0-8.0-1.75","5aedec6e76b763000132f75e","condB","","resources/audio/wordStim/S9_AI_27_bxa_Step-7.wav","48","","","","","AI","resources/audio/wordStim/S9_AI_27_bxa_Step-7.wav","S9","27","bxa","7","CN","1","0","false"
"null","","fixation","html-keyboard-response","180","526582","0.0-8.0-0.76","5aedec6e76b763000132f75e","condB","","<div class=""vertical-center"" style='width:60%;'><p style='font-weight:bold;'>Does the middle word sound more like the first word (A) or the last word (B)?</p> <br> <div class=""container""> <div id=""a-box""> <p class=""title-text"">A</h3></p> </div> <div id=""x-box""> <p class=""title-text"">X<p> </div> <div id=""b-box""> <p class=""title-text"">B</p></div> <br> <div style='float: left;padding-left:30px;'><p>Press '1' for A</p></div><div style='float: right;padding-right:30px;'><p>Press '0' for B</p> </div> </div></div>","null","","","","","","","","","","","","","",""
"3960","","test","audio-keyboard-response","181","530550","0.0-8.0-1.76","5aedec6e76b763000132f75e","condB","","resources/audio/wordStim/S9_AU_13_bxa_Step-10.wav","49","","","","","AU","resources/audio/wordStim/S9_AU_13_bxa_Step-10.wav","S9","13","bxa","10","CN","1","1","true"
"null","","fixation","html-keyboard-response","182","531554","0.0-8.0-0.77","5aedec6e76b763000132f75e","condB","","<div class=""vertical-center"" style='width:60%;'><p style='font-weight:bold;'>Does the middle word sound more like the first word (A) or the last word (B)?</p> <br> <div class=""container""> <div id=""a-box""> <p class=""title-text"">A</h3></p> </div> <div id=""x-box""> <p class=""title-text"">X<p> </div> <div id=""b-box""> <p class=""title-text"">B</p></div> <br> <div style='float: left;padding-left:30px;'><p>Press '1' for A</p></div><div style='float: right;padding-right:30px;'><p>Press '0' for B</p> </div> </div></div>","null","","","","","","","","","","","","","",""
"3928","","test","audio-keyboard-response","183","535488","0.0-8.0-1.77","5aedec6e76b763000132f75e","condB","","resources/audio/wordStim/S3_AI_23_axb_Step-6.wav","48","","","","","AI","resources/audio/wordStim/S3_AI_23_axb_Step-6.wav","S3","23","axb","6","MI","0","0","true"
"null","","fixation","html-keyboard-response","184","536492","0.0-8.0-0.78","5aedec6e76b763000132f75e","condB","","<div class=""vertical-center"" style='width:60%;'><p style='font-weight:bold;'>Does the middle word sound more like the first word (A) or the last word (B)?</p> <br> <div class=""container""> <div id=""a-box""> <p class=""title-text"">A</h3></p> </div> <div id=""x-box""> <p class=""title-text"">X<p> </div> <div id=""b-box""> <p class=""title-text"">B</p></div> <br> <div style='float: left;padding-left:30px;'><p>Press '1' for A</p></div><div style='float: right;padding-right:30px;'><p>Press '0' for B</p> </div> </div></div>","null","","","","","","","","","","","","","",""
"3880","","test","audio-keyboard-response","185","540375","0.0-8.0-1.78","5aedec6e76b763000132f75e","condB","","resources/audio/wordStim/S9_AI_24_bxa_Step-3.wav","49","","","","","AI","resources/audio/wordStim/S9_AI_24_bxa_Step-3.wav","S9","24","bxa","3","CN","1","1","true"
"null","","fixation","html-keyboard-response","186","541377","0.0-8.0-0.79","5aedec6e76b763000132f75e","condB","","<div class=""vertical-center"" style='width:60%;'><p style='font-weight:bold;'>Does the middle word sound more like the first word (A) or the last word (B)?</p> <br> <div class=""container""> <div id=""a-box""> <p class=""title-text"">A</h3></p> </div> <div id=""x-box""> <p class=""title-text"">X<p> </div> <div id=""b-box""> <p class=""title-text"">B</p></div> <br> <div style='float: left;padding-left:30px;'><p>Press '1' for A</p></div><div style='float: right;padding-right:30px;'><p>Press '0' for B</p> </div> </div></div>","null","","","","","","","","","","","","","",""
"5909","","test","audio-keyboard-response","187","547292","0.0-8.0-1.79","5aedec6e76b763000132f75e","condB","","resources/audio/wordStim/S3_AU_17_bxa_Step-7.wav","48","","","","","AU","resources/audio/wordStim/S3_AU_17_bxa_Step-7.wav","S3","17","bxa","7","MI","1","0","false"
"null","","fixation","html-keyboard-response","188","548296","0.0-8.0-0.80","5aedec6e76b763000132f75e","condB","","<div class=""vertical-center"" style='width:60%;'><p style='font-weight:bold;'>Does the middle word sound more like the first word (A) or the last word (B)?</p> <br> <div class=""container""> <div id=""a-box""> <p class=""title-text"">A</h3></p> </div> <div id=""x-box""> <p class=""title-text"">X<p> </div> <div id=""b-box""> <p class=""title-text"">B</p></div> <br> <div style='float: left;padding-left:30px;'><p>Press '1' for A</p></div><div style='float: right;padding-right:30px;'><p>Press '0' for B</p> </div> </div></div>","null","","","","","","","","","","","","","",""
"3029","","test","audio-keyboard-response","189","551328","0.0-8.0-1.80","5aedec6e76b763000132f75e","condB","","resources/audio/wordStim/S3_AI_21_axb_Step-2.wav","49","","","","","AI","resources/audio/wordStim/S3_AI_21_axb_Step-2.wav","S3","21","axb","2","MI","0","1","false"
"2658.3600002340972","","break","html-keyboard-response","190","554489","0.0-8.0-2.80-0.80","5aedec6e76b763000132f75e","condB","","<div class=""vertical-center""><p>Feel free to take a break!</p><i>When you're ready to continue, press SPACE to begin the next trial.</i></p></div>","32","","","","","","","","","","","","","",""
"null","","fixation","html-keyboard-response","191","554990","0.0-8.0-0.81","5aedec6e76b763000132f75e","condB","","<div class=""vertical-center"" style='width:60%;'><p style='font-weight:bold;'>Does the middle word sound more like the first word (A) or the last word (B)?</p> <br> <div class=""container""> <div id=""a-box""> <p class=""title-text"">A</h3></p> </div> <div id=""x-box""> <p class=""title-text"">X<p> </div> <div id=""b-box""> <p class=""title-text"">B</p></div> <br> <div style='float: left;padding-left:30px;'><p>Press '1' for A</p></div><div style='float: right;padding-right:30px;'><p>Press '0' for B</p> </div> </div></div>","null","","","","","","","","","","","","","",""
"3739","","test","audio-keyboard-response","192","558726","0.0-8.0-1.81","5aedec6e76b763000132f75e","condB","","resources/audio/wordStim/S9_AI_29_axb_Step-4.wav","49","","","","","AI","resources/audio/wordStim/S9_AI_29_axb_Step-4.wav","S9","29","axb","4","CN","0","1","false"
"null","","fixation","html-keyboard-response","193","559730","0.0-8.0-0.82","5aedec6e76b763000132f75e","condB","","<div class=""vertical-center"" style='width:60%;'><p style='font-weight:bold;'>Does the middle word sound more like the first word (A) or the last word (B)?</p> <br> <div class=""container""> <div id=""a-box""> <p class=""title-text"">A</h3></p> </div> <div id=""x-box""> <p class=""title-text"">X<p> </div> <div id=""b-box""> <p class=""title-text"">B</p></div> <br> <div style='float: left;padding-left:30px;'><p>Press '1' for A</p></div><div style='float: right;padding-right:30px;'><p>Press '0' for B</p> </div> </div></div>","null","","","","","","","","","","","","","",""
"4200","","test","audio-keyboard-response","194","563930","0.0-8.0-1.82","5aedec6e76b763000132f75e","condB","","resources/audio/wordStim/S3_AU_17_bxa_Step-9.wav","49","","","","","AU","resources/audio/wordStim/S3_AU_17_bxa_Step-9.wav","S3","17","bxa","9","MI","1","1","true"
"null","","fixation","html-keyboard-response","195","564934","0.0-8.0-0.83","5aedec6e76b763000132f75e","condB","","<div class=""vertical-center"" style='width:60%;'><p style='font-weight:bold;'>Does the middle word sound more like the first word (A) or the last word (B)?</p> <br> <div class=""container""> <div id=""a-box""> <p class=""title-text"">A</h3></p> </div> <div id=""x-box""> <p class=""title-text"">X<p> </div> <div id=""b-box""> <p class=""title-text"">B</p></div> <br> <div style='float: left;padding-left:30px;'><p>Press '1' for A</p></div><div style='float: right;padding-right:30px;'><p>Press '0' for B</p> </div> </div></div>","null","","","","","","","","","","","","","",""
"3141","","test","audio-keyboard-response","196","568078","0.0-8.0-1.83","5aedec6e76b763000132f75e","condB","","resources/audio/wordStim/S3_AU_20_axb_Step-4.wav","48","","","","","AU","resources/audio/wordStim/S3_AU_20_axb_Step-4.wav","S3","20","axb","4","MI","0","0","true"
"null","","fixation","html-keyboard-response","197","569082","0.0-8.0-0.84","5aedec6e76b763000132f75e","condB","","<div class=""vertical-center"" style='width:60%;'><p style='font-weight:bold;'>Does the middle word sound more like the first word (A) or the last word (B)?</p> <br> <div class=""container""> <div id=""a-box""> <p class=""title-text"">A</h3></p> </div> <div id=""x-box""> <p class=""title-text"">X<p> </div> <div id=""b-box""> <p class=""title-text"">B</p></div> <br> <div style='float: left;padding-left:30px;'><p>Press '1' for A</p></div><div style='float: right;padding-right:30px;'><p>Press '0' for B</p> </div> </div></div>","null","","","","","","","","","","","","","",""
"3280","","test","audio-keyboard-response","198","572362","0.0-8.0-1.84","5aedec6e76b763000132f75e","condB","","resources/audio/wordStim/S9_AU_14_axb_Step-8.wav","49","","","","","AU","resources/audio/wordStim/S9_AU_14_axb_Step-8.wav","S9","14","axb","8","CN","0","1","false"
"null","","fixation","html-keyboard-response","199","573365","0.0-8.0-0.85","5aedec6e76b763000132f75e","condB","","<div class=""vertical-center"" style='width:60%;'><p style='font-weight:bold;'>Does the middle word sound more like the first word (A) or the last word (B)?</p> <br> <div class=""container""> <div id=""a-box""> <p class=""title-text"">A</h3></p> </div> <div id=""x-box""> <p class=""title-text"">X<p> </div> <div id=""b-box""> <p class=""title-text"">B</p></div> <br> <div style='float: left;padding-left:30px;'><p>Press '1' for A</p></div><div style='float: right;padding-right:30px;'><p>Press '0' for B</p> </div> </div></div>","null","","","","","","","","","","","","","",""
"4011","","test","audio-keyboard-response","200","577378","0.0-8.0-1.85","5aedec6e76b763000132f75e","condB","","resources/audio/wordStim/S9_AU_11_bxa_Step-10.wav","49","","","","","AU","resources/audio/wordStim/S9_AU_11_bxa_Step-10.wav","S9","11","bxa","10","CN","1","1","true"
"null","","fixation","html-keyboard-response","201","578381","0.0-8.0-0.86","5aedec6e76b763000132f75e","condB","","<div class=""vertical-center"" style='width:60%;'><p style='font-weight:bold;'>Does the middle word sound more like the first word (A) or the last word (B)?</p> <br> <div class=""container""> <div id=""a-box""> <p class=""title-text"">A</h3></p> </div> <div id=""x-box""> <p class=""title-text"">X<p> </div> <div id=""b-box""> <p class=""title-text"">B</p></div> <br> <div style='float: left;padding-left:30px;'><p>Press '1' for A</p></div><div style='float: right;padding-right:30px;'><p>Press '0' for B</p> </div> </div></div>","null","","","","","","","","","","","","","",""
"4440","","test","audio-keyboard-response","202","582816","0.0-8.0-1.86","5aedec6e76b763000132f75e","condB","","resources/audio/wordStim/S9_AU_19_bxa_Step-3.wav","48","","","","","AU","resources/audio/wordStim/S9_AU_19_bxa_Step-3.wav","S9","19","bxa","3","CN","1","0","false"
"null","","fixation","html-keyboard-response","203","583821","0.0-8.0-0.87","5aedec6e76b763000132f75e","condB","","<div class=""vertical-center"" style='width:60%;'><p style='font-weight:bold;'>Does the middle word sound more like the first word (A) or the last word (B)?</p> <br> <div class=""container""> <div id=""a-box""> <p class=""title-text"">A</h3></p> </div> <div id=""x-box""> <p class=""title-text"">X<p> </div> <div id=""b-box""> <p class=""title-text"">B</p></div> <br> <div style='float: left;padding-left:30px;'><p>Press '1' for A</p></div><div style='float: right;padding-right:30px;'><p>Press '0' for B</p> </div> </div></div>","null","","","","","","","","","","","","","",""
"3309","","test","audio-keyboard-response","204","587129","0.0-8.0-1.87","5aedec6e76b763000132f75e","condB","","resources/audio/wordStim/S3_AI_30_bxa_Step-3.wav","48","","","","","AI","resources/audio/wordStim/S3_AI_30_bxa_Step-3.wav","S3","30","bxa","3","MI","1","0","false"
"null","","fixation","html-keyboard-response","205","588133","0.0-8.0-0.88","5aedec6e76b763000132f75e","condB","","<div class=""vertical-center"" style='width:60%;'><p style='font-weight:bold;'>Does the middle word sound more like the first word (A) or the last word (B)?</p> <br> <div class=""container""> <div id=""a-box""> <p class=""title-text"">A</h3></p> </div> <div id=""x-box""> <p class=""title-text"">X<p> </div> <div id=""b-box""> <p class=""title-text"">B</p></div> <br> <div style='float: left;padding-left:30px;'><p>Press '1' for A</p></div><div style='float: right;padding-right:30px;'><p>Press '0' for B</p> </div> </div></div>","null","","","","","","","","","","","","","",""
"3781","","test","audio-keyboard-response","206","591917","0.0-8.0-1.88","5aedec6e76b763000132f75e","condB","","resources/audio/wordStim/S3_AI_23_axb_Step-4.wav","49","","","","","AI","resources/audio/wordStim/S3_AI_23_axb_Step-4.wav","S3","23","axb","4","MI","0","1","false"
"null","","fixation","html-keyboard-response","207","592919","0.0-8.0-0.89","5aedec6e76b763000132f75e","condB","","<div class=""vertical-center"" style='width:60%;'><p style='font-weight:bold;'>Does the middle word sound more like the first word (A) or the last word (B)?</p> <br> <div class=""container""> <div id=""a-box""> <p class=""title-text"">A</h3></p> </div> <div id=""x-box""> <p class=""title-text"">X<p> </div> <div id=""b-box""> <p class=""title-text"">B</p></div> <br> <div style='float: left;padding-left:30px;'><p>Press '1' for A</p></div><div style='float: right;padding-right:30px;'><p>Press '0' for B</p> </div> </div></div>","null","","","","","","","","","","","","","",""
"3589","","test","audio-keyboard-response","208","596512","0.0-8.0-1.89","5aedec6e76b763000132f75e","condB","","resources/audio/wordStim/S9_AI_25_axb_Step-8.wav","49","","","","","AI","resources/audio/wordStim/S9_AI_25_axb_Step-8.wav","S9","25","axb","8","CN","0","1","false"
"null","","fixation","html-keyboard-response","209","597516","0.0-8.0-0.90","5aedec6e76b763000132f75e","condB","","<div class=""vertical-center"" style='width:60%;'><p style='font-weight:bold;'>Does the middle word sound more like the first word (A) or the last word (B)?</p> <br> <div class=""container""> <div id=""a-box""> <p class=""title-text"">A</h3></p> </div> <div id=""x-box""> <p class=""title-text"">X<p> </div> <div id=""b-box""> <p class=""title-text"">B</p></div> <br> <div style='float: left;padding-left:30px;'><p>Press '1' for A</p></div><div style='float: right;padding-right:30px;'><p>Press '0' for B</p> </div> </div></div>","null","","","","","","","","","","","","","",""
"4549","","test","audio-keyboard-response","210","602070","0.0-8.0-1.90","5aedec6e76b763000132f75e","condB","","resources/audio/wordStim/S9_AI_22_bxa_Step-10.wav","49","","","","","AI","resources/audio/wordStim/S9_AI_22_bxa_Step-10.wav","S9","22","bxa","10","CN","1","1","true"
"null","","fixation","html-keyboard-response","211","603073","0.0-8.0-0.91","5aedec6e76b763000132f75e","condB","","<div class=""vertical-center"" style='width:60%;'><p style='font-weight:bold;'>Does the middle word sound more like the first word (A) or the last word (B)?</p> <br> <div class=""container""> <div id=""a-box""> <p class=""title-text"">A</h3></p> </div> <div id=""x-box""> <p class=""title-text"">X<p> </div> <div id=""b-box""> <p class=""title-text"">B</p></div> <br> <div style='float: left;padding-left:30px;'><p>Press '1' for A</p></div><div style='float: right;padding-right:30px;'><p>Press '0' for B</p> </div> </div></div>","null","","","","","","","","","","","","","",""
"3379","","test","audio-keyboard-response","212","606454","0.0-8.0-1.91","5aedec6e76b763000132f75e","condB","","resources/audio/wordStim/S3_AI_29_bxa_Step-9.wav","48","","","","","AI","resources/audio/wordStim/S3_AI_29_bxa_Step-9.wav","S3","29","bxa","9","MI","1","0","false"
"null","","fixation","html-keyboard-response","213","607456","0.0-8.0-0.92","5aedec6e76b763000132f75e","condB","","<div class=""vertical-center"" style='width:60%;'><p style='font-weight:bold;'>Does the middle word sound more like the first word (A) or the last word (B)?</p> <br> <div class=""container""> <div id=""a-box""> <p class=""title-text"">A</h3></p> </div> <div id=""x-box""> <p class=""title-text"">X<p> </div> <div id=""b-box""> <p class=""title-text"">B</p></div> <br> <div style='float: left;padding-left:30px;'><p>Press '1' for A</p></div><div style='float: right;padding-right:30px;'><p>Press '0' for B</p> </div> </div></div>","null","","","","","","","","","","","","","",""
"4480","","test","audio-keyboard-response","214","611935","0.0-8.0-1.92","5aedec6e76b763000132f75e","condB","","resources/audio/wordStim/S3_AI_22_bxa_Step-7.wav","48","","","","","AI","resources/audio/wordStim/S3_AI_22_bxa_Step-7.wav","S3","22","bxa","7","MI","1","0","false"
