"rt","url","trial_role","trial_type","trial_index","time_elapsed","internal_node_id","participantId","condition","view_history","stimulus","key_press","button_pressed","correct_answer","correct_response","success","vowel","wordStim","speaker","sentNum","order","step","speakerIdentity","raised_answer","key_response","raised_response"
"24078","micr.con.consent.html","consent","external-html","0","24117","0.0-0.0","5b0569619d397e00019167e4","condB","","","","","","","","","","","","","","","","",""
"42099","","instructions","instructions","1","66218","0.0-1.0","5b0569619d397e00019167e4","condB","[{""page_index"":0,""viewing_time"":13263},{""page_index"":1,""viewing_time"":15121},{""page_index"":2,""viewing_time"":13714}]","","","","","","","","","","","","","","","",""
"null","","fixation","html-keyboard-response","2","66720","0.0-2.0-0.0","5b0569619d397e00019167e4","condB","","<div class=""vertical-center"" style=""font-size:60px;"">+</div>","null","","","","","","","","","","","","","",""
"4932","","tonetest","audio-button-response","3","71656","0.0-2.0-1.0","5b0569619d397e00019167e4","condB","","../../src/audio/toneTest_2.wav","","1","1","true","","","","","","","","","","",""
"null","","fixation","html-keyboard-response","4","72158","0.0-2.0-0.1","5b0569619d397e00019167e4","condB","","<div class=""vertical-center"" style=""font-size:60px;"">+</div>","null","","","","","","","","","","","","","",""
"4266","","tonetest","audio-button-response","5","76426","0.0-2.0-1.1","5b0569619d397e00019167e4","condB","","../../src/audio/toneTest_3.wav","","2","2","true","","","","","","","","","","",""
"null","","fixation","html-keyboard-response","6","76928","0.0-2.0-0.2","5b0569619d397e00019167e4","condB","","<div class=""vertical-center"" style=""font-size:60px;"">+</div>","null","","","","","","","","","","","","","",""
"4393","","tonetest","audio-button-response","7","81322","0.0-2.0-1.2","5b0569619d397e00019167e4","condB","","../../src/audio/toneTest_5.wav","","0","0","true","","","","","","","","","","",""
"null","","fixation","html-keyboard-response","8","81823","0.0-2.0-0.3","5b0569619d397e00019167e4","condB","","<div class=""vertical-center"" style=""font-size:60px;"">+</div>","null","","","","","","","","","","","","","",""
"4157","","tonetest","audio-button-response","9","85981","0.0-2.0-1.3","5b0569619d397e00019167e4","condB","","../../src/audio/toneTest_4.wav","","1","1","true","","","","","","","","","","",""
"null","","fixation","html-keyboard-response","10","86484","0.0-2.0-0.4","5b0569619d397e00019167e4","condB","","<div class=""vertical-center"" style=""font-size:60px;"">+</div>","null","","","","","","","","","","","","","",""
"4218","","tonetest","audio-button-response","11","90704","0.0-2.0-1.4","5b0569619d397e00019167e4","condB","","../../src/audio/toneTest_3.wav","","2","2","true","","","","","","","","","","",""
"null","","fixation","html-keyboard-response","12","91205","0.0-2.0-0.5","5b0569619d397e00019167e4","condB","","<div class=""vertical-center"" style=""font-size:60px;"">+</div>","null","","","","","","","","","","","","","",""
"4473","","tonetest","audio-button-response","13","95678","0.0-2.0-1.5","5b0569619d397e00019167e4","condB","","../../src/audio/toneTest_4.wav","","1","1","true","","","","","","","","","","",""
"7130","","instructions","html-keyboard-response","14","102810","0.0-3.0","5b0569619d397e00019167e4","condB","","<div class=""vertical-center""><p><b>Your score was 6/6.</b></p><p>If you scored below 6, please ensure that you are wearing headphones and in a quiet location free of distractions.</p><p><i>To continue to the main experiment, press SPACE.</i></p></div>","32","","","","","","","","","","","","","",""
"","","","fullscreen","15","107224","0.0-4.0","5b0569619d397e00019167e4","condB","","","","","","","true","","","","","","","","","",""
"41980","","instructions","instructions","16","149205","0.0-5.0","5b0569619d397e00019167e4","condB","[{""page_index"":0,""viewing_time"":41980}]","","","","","","","","","","","","","","","",""
"null","","fixation","html-keyboard-response","17","149708","0.0-6.0-0.0","5b0569619d397e00019167e4","condB","","<div class=""vertical-center"" style='width:60%;'><p style='font-weight:bold;'>Does the middle word sound more like the first word (A) or the last word (B)?</p> <br> <div class=""container""> <div id=""a-box""> <p class=""title-text"">A</h3></p> </div> <div id=""x-box""> <p class=""title-text"">X<p> </div> <div id=""b-box""> <p class=""title-text"">B</p></div> <br> <div style='float: left;padding-left:30px;'><p>Press '1' for A</p></div><div style='float: right;padding-right:30px;'><p>Press '0' for B</p> </div> </div></div>","null","","","","","","","","","","","","","",""
"3239","","practice","audio-keyboard-response","18","152945","0.0-6.0-1.0","5b0569619d397e00019167e4","condB","","resources/audio/practiceStim/S1_AI_21_axb_Step-6.wav","49","","","","","","","","","","","","","",""
"null","","fixation","html-keyboard-response","19","153948","0.0-6.0-0.1","5b0569619d397e00019167e4","condB","","<div class=""vertical-center"" style='width:60%;'><p style='font-weight:bold;'>Does the middle word sound more like the first word (A) or the last word (B)?</p> <br> <div class=""container""> <div id=""a-box""> <p class=""title-text"">A</h3></p> </div> <div id=""x-box""> <p class=""title-text"">X<p> </div> <div id=""b-box""> <p class=""title-text"">B</p></div> <br> <div style='float: left;padding-left:30px;'><p>Press '1' for A</p></div><div style='float: right;padding-right:30px;'><p>Press '0' for B</p> </div> </div></div>","null","","","","","","","","","","","","","",""
"3390","","practice","audio-keyboard-response","20","157339","0.0-6.0-1.1","5b0569619d397e00019167e4","condB","","resources/audio/practiceStim/S1_AI_21_bxa_Step-6.wav","48","","","","","","","","","","","","","",""
"null","","fixation","html-keyboard-response","21","158341","0.0-6.0-0.2","5b0569619d397e00019167e4","condB","","<div class=""vertical-center"" style='width:60%;'><p style='font-weight:bold;'>Does the middle word sound more like the first word (A) or the last word (B)?</p> <br> <div class=""container""> <div id=""a-box""> <p class=""title-text"">A</h3></p> </div> <div id=""x-box""> <p class=""title-text"">X<p> </div> <div id=""b-box""> <p class=""title-text"">B</p></div> <br> <div style='float: left;padding-left:30px;'><p>Press '1' for A</p></div><div style='float: right;padding-right:30px;'><p>Press '0' for B</p> </div> </div></div>","null","","","","","","","","","","","","","",""
"2929","","practice","audio-keyboard-response","22","161279","0.0-6.0-1.2","5b0569619d397e00019167e4","condB","","resources/audio/practiceStim/S1_AU_14_axb_Step-6.wav","48","","","","","","","","","","","","","",""
"null","","fixation","html-keyboard-response","23","162282","0.0-6.0-0.3","5b0569619d397e00019167e4","condB","","<div class=""vertical-center"" style='width:60%;'><p style='font-weight:bold;'>Does the middle word sound more like the first word (A) or the last word (B)?</p> <br> <div class=""container""> <div id=""a-box""> <p class=""title-text"">A</h3></p> </div> <div id=""x-box""> <p class=""title-text"">X<p> </div> <div id=""b-box""> <p class=""title-text"">B</p></div> <br> <div style='float: left;padding-left:30px;'><p>Press '1' for A</p></div><div style='float: right;padding-right:30px;'><p>Press '0' for B</p> </div> </div></div>","null","","","","","","","","","","","","","",""
"3100","","practice","audio-keyboard-response","24","165383","0.0-6.0-1.3","5b0569619d397e00019167e4","condB","","resources/audio/practiceStim/S1_AU_14_bxa_Step-6.wav","49","","","","","","","","","","","","","",""
"4533","","instructions","instructions","25","170416","0.0-7.0","5b0569619d397e00019167e4","condB","[{""page_index"":0,""viewing_time"":4533}]","","","","","","","","","","","","","","","",""
"null","","fixation","html-keyboard-response","26","170918","0.0-8.0-0.0","5b0569619d397e00019167e4","condB","","<div class=""vertical-center"" style='width:60%;'><p style='font-weight:bold;'>Does the middle word sound more like the first word (A) or the last word (B)?</p> <br> <div class=""container""> <div id=""a-box""> <p class=""title-text"">A</h3></p> </div> <div id=""x-box""> <p class=""title-text"">X<p> </div> <div id=""b-box""> <p class=""title-text"">B</p></div> <br> <div style='float: left;padding-left:30px;'><p>Press '1' for A</p></div><div style='float: right;padding-right:30px;'><p>Press '0' for B</p> </div> </div></div>","null","","","","","","","","","","","","","",""
"3759","","test","audio-keyboard-response","27","174673","0.0-8.0-1.0","5b0569619d397e00019167e4","condB","","resources/audio/wordStim/S3_AI_21_bxa_Step-9.wav","49","","","","","AI","resources/audio/wordStim/S3_AI_21_bxa_Step-9.wav","S3","21","bxa","9","MI","1","1","true"
"null","","fixation","html-keyboard-response","28","175677","0.0-8.0-0.1","5b0569619d397e00019167e4","condB","","<div class=""vertical-center"" style='width:60%;'><p style='font-weight:bold;'>Does the middle word sound more like the first word (A) or the last word (B)?</p> <br> <div class=""container""> <div id=""a-box""> <p class=""title-text"">A</h3></p> </div> <div id=""x-box""> <p class=""title-text"">X<p> </div> <div id=""b-box""> <p class=""title-text"">B</p></div> <br> <div style='float: left;padding-left:30px;'><p>Press '1' for A</p></div><div style='float: right;padding-right:30px;'><p>Press '0' for B</p> </div> </div></div>","null","","","","","","","","","","","","","",""
"2929","","test","audio-keyboard-response","29","178607","0.0-8.0-1.1","5b0569619d397e00019167e4","condB","","resources/audio/wordStim/S9_AU_16_bxa_Step-10.wav","49","","","","","AU","resources/audio/wordStim/S9_AU_16_bxa_Step-10.wav","S9","16","bxa","10","CN","1","1","true"
"null","","fixation","html-keyboard-response","30","179610","0.0-8.0-0.2","5b0569619d397e00019167e4","condB","","<div class=""vertical-center"" style='width:60%;'><p style='font-weight:bold;'>Does the middle word sound more like the first word (A) or the last word (B)?</p> <br> <div class=""container""> <div id=""a-box""> <p class=""title-text"">A</h3></p> </div> <div id=""x-box""> <p class=""title-text"">X<p> </div> <div id=""b-box""> <p class=""title-text"">B</p></div> <br> <div style='float: left;padding-left:30px;'><p>Press '1' for A</p></div><div style='float: right;padding-right:30px;'><p>Press '0' for B</p> </div> </div></div>","null","","","","","","","","","","","","","",""
"3431","","test","audio-keyboard-response","31","183043","0.0-8.0-1.2","5b0569619d397e00019167e4","condB","","resources/audio/wordStim/S3_AI_25_bxa_Step-3.wav","48","","","","","AI","resources/audio/wordStim/S3_AI_25_bxa_Step-3.wav","S3","25","bxa","3","MI","1","0","false"
"null","","fixation","html-keyboard-response","32","184046","0.0-8.0-0.3","5b0569619d397e00019167e4","condB","","<div class=""vertical-center"" style='width:60%;'><p style='font-weight:bold;'>Does the middle word sound more like the first word (A) or the last word (B)?</p> <br> <div class=""container""> <div id=""a-box""> <p class=""title-text"">A</h3></p> </div> <div id=""x-box""> <p class=""title-text"">X<p> </div> <div id=""b-box""> <p class=""title-text"">B</p></div> <br> <div style='float: left;padding-left:30px;'><p>Press '1' for A</p></div><div style='float: right;padding-right:30px;'><p>Press '0' for B</p> </div> </div></div>","null","","","","","","","","","","","","","",""
"2842","","test","audio-keyboard-response","33","186888","0.0-8.0-1.3","5b0569619d397e00019167e4","condB","","resources/audio/wordStim/S9_AU_20_axb_Step-6.wav","49","","","","","AU","resources/audio/wordStim/S9_AU_20_axb_Step-6.wav","S9","20","axb","6","CN","0","1","false"
"null","","fixation","html-keyboard-response","34","187890","0.0-8.0-0.4","5b0569619d397e00019167e4","condB","","<div class=""vertical-center"" style='width:60%;'><p style='font-weight:bold;'>Does the middle word sound more like the first word (A) or the last word (B)?</p> <br> <div class=""container""> <div id=""a-box""> <p class=""title-text"">A</h3></p> </div> <div id=""x-box""> <p class=""title-text"">X<p> </div> <div id=""b-box""> <p class=""title-text"">B</p></div> <br> <div style='float: left;padding-left:30px;'><p>Press '1' for A</p></div><div style='float: right;padding-right:30px;'><p>Press '0' for B</p> </div> </div></div>","null","","","","","","","","","","","","","",""
"2638","","test","audio-keyboard-response","35","190533","0.0-8.0-1.4","5b0569619d397e00019167e4","condB","","resources/audio/wordStim/S3_AI_25_bxa_Step-9.wav","49","","","","","AI","resources/audio/wordStim/S3_AI_25_bxa_Step-9.wav","S3","25","bxa","9","MI","1","1","true"
"null","","fixation","html-keyboard-response","36","191535","0.0-8.0-0.5","5b0569619d397e00019167e4","condB","","<div class=""vertical-center"" style='width:60%;'><p style='font-weight:bold;'>Does the middle word sound more like the first word (A) or the last word (B)?</p> <br> <div class=""container""> <div id=""a-box""> <p class=""title-text"">A</h3></p> </div> <div id=""x-box""> <p class=""title-text"">X<p> </div> <div id=""b-box""> <p class=""title-text"">B</p></div> <br> <div style='float: left;padding-left:30px;'><p>Press '1' for A</p></div><div style='float: right;padding-right:30px;'><p>Press '0' for B</p> </div> </div></div>","null","","","","","","","","","","","","","",""
"2839","","test","audio-keyboard-response","37","194374","0.0-8.0-1.5","5b0569619d397e00019167e4","condB","","resources/audio/wordStim/S3_AI_23_bxa_Step-7.wav","49","","","","","AI","resources/audio/wordStim/S3_AI_23_bxa_Step-7.wav","S3","23","bxa","7","MI","1","1","true"
"null","","fixation","html-keyboard-response","38","195376","0.0-8.0-0.6","5b0569619d397e00019167e4","condB","","<div class=""vertical-center"" style='width:60%;'><p style='font-weight:bold;'>Does the middle word sound more like the first word (A) or the last word (B)?</p> <br> <div class=""container""> <div id=""a-box""> <p class=""title-text"">A</h3></p> </div> <div id=""x-box""> <p class=""title-text"">X<p> </div> <div id=""b-box""> <p class=""title-text"">B</p></div> <br> <div style='float: left;padding-left:30px;'><p>Press '1' for A</p></div><div style='float: right;padding-right:30px;'><p>Press '0' for B</p> </div> </div></div>","null","","","","","","","","","","","","","",""
"3010","","test","audio-keyboard-response","39","198383","0.0-8.0-1.6","5b0569619d397e00019167e4","condB","","resources/audio/wordStim/S9_AI_25_axb_Step-2.wav","48","","","","","AI","resources/audio/wordStim/S9_AI_25_axb_Step-2.wav","S9","25","axb","2","CN","0","0","true"
"null","","fixation","html-keyboard-response","40","199385","0.0-8.0-0.7","5b0569619d397e00019167e4","condB","","<div class=""vertical-center"" style='width:60%;'><p style='font-weight:bold;'>Does the middle word sound more like the first word (A) or the last word (B)?</p> <br> <div class=""container""> <div id=""a-box""> <p class=""title-text"">A</h3></p> </div> <div id=""x-box""> <p class=""title-text"">X<p> </div> <div id=""b-box""> <p class=""title-text"">B</p></div> <br> <div style='float: left;padding-left:30px;'><p>Press '1' for A</p></div><div style='float: right;padding-right:30px;'><p>Press '0' for B</p> </div> </div></div>","null","","","","","","","","","","","","","",""
"3001","","test","audio-keyboard-response","41","202386","0.0-8.0-1.7","5b0569619d397e00019167e4","condB","","resources/audio/wordStim/S9_AI_23_axb_Step-8.wav","48","","","","","AI","resources/audio/wordStim/S9_AI_23_axb_Step-8.wav","S9","23","axb","8","CN","0","0","true"
"null","","fixation","html-keyboard-response","42","203387","0.0-8.0-0.8","5b0569619d397e00019167e4","condB","","<div class=""vertical-center"" style='width:60%;'><p style='font-weight:bold;'>Does the middle word sound more like the first word (A) or the last word (B)?</p> <br> <div class=""container""> <div id=""a-box""> <p class=""title-text"">A</h3></p> </div> <div id=""x-box""> <p class=""title-text"">X<p> </div> <div id=""b-box""> <p class=""title-text"">B</p></div> <br> <div style='float: left;padding-left:30px;'><p>Press '1' for A</p></div><div style='float: right;padding-right:30px;'><p>Press '0' for B</p> </div> </div></div>","null","","","","","","","","","","","","","",""
"3518","","test","audio-keyboard-response","43","206902","0.0-8.0-1.8","5b0569619d397e00019167e4","condB","","resources/audio/wordStim/S3_AU_18_bxa_Step-9.wav","49","","","","","AU","resources/audio/wordStim/S3_AU_18_bxa_Step-9.wav","S3","18","bxa","9","MI","1","1","true"
"null","","fixation","html-keyboard-response","44","207903","0.0-8.0-0.9","5b0569619d397e00019167e4","condB","","<div class=""vertical-center"" style='width:60%;'><p style='font-weight:bold;'>Does the middle word sound more like the first word (A) or the last word (B)?</p> <br> <div class=""container""> <div id=""a-box""> <p class=""title-text"">A</h3></p> </div> <div id=""x-box""> <p class=""title-text"">X<p> </div> <div id=""b-box""> <p class=""title-text"">B</p></div> <br> <div style='float: left;padding-left:30px;'><p>Press '1' for A</p></div><div style='float: right;padding-right:30px;'><p>Press '0' for B</p> </div> </div></div>","null","","","","","","","","","","","","","",""
"2908","","test","audio-keyboard-response","45","210811","0.0-8.0-1.9","5b0569619d397e00019167e4","condB","","resources/audio/wordStim/S3_AI_23_bxa_Step-5.wav","49","","","","","AI","resources/audio/wordStim/S3_AI_23_bxa_Step-5.wav","S3","23","bxa","5","MI","1","1","true"
"null","","fixation","html-keyboard-response","46","211812","0.0-8.0-0.10","5b0569619d397e00019167e4","condB","","<div class=""vertical-center"" style='width:60%;'><p style='font-weight:bold;'>Does the middle word sound more like the first word (A) or the last word (B)?</p> <br> <div class=""container""> <div id=""a-box""> <p class=""title-text"">A</h3></p> </div> <div id=""x-box""> <p class=""title-text"">X<p> </div> <div id=""b-box""> <p class=""title-text"">B</p></div> <br> <div style='float: left;padding-left:30px;'><p>Press '1' for A</p></div><div style='float: right;padding-right:30px;'><p>Press '0' for B</p> </div> </div></div>","null","","","","","","","","","","","","","",""
"2900","","test","audio-keyboard-response","47","214719","0.0-8.0-1.10","5b0569619d397e00019167e4","condB","","resources/audio/wordStim/S9_AU_17_bxa_Step-5.wav","49","","","","","AU","resources/audio/wordStim/S9_AU_17_bxa_Step-5.wav","S9","17","bxa","5","CN","1","1","true"
"null","","fixation","html-keyboard-response","48","215722","0.0-8.0-0.11","5b0569619d397e00019167e4","condB","","<div class=""vertical-center"" style='width:60%;'><p style='font-weight:bold;'>Does the middle word sound more like the first word (A) or the last word (B)?</p> <br> <div class=""container""> <div id=""a-box""> <p class=""title-text"">A</h3></p> </div> <div id=""x-box""> <p class=""title-text"">X<p> </div> <div id=""b-box""> <p class=""title-text"">B</p></div> <br> <div style='float: left;padding-left:30px;'><p>Press '1' for A</p></div><div style='float: right;padding-right:30px;'><p>Press '0' for B</p> </div> </div></div>","null","","","","","","","","","","","","","",""
"2932","","test","audio-keyboard-response","49","218656","0.0-8.0-1.11","5b0569619d397e00019167e4","condB","","resources/audio/wordStim/S9_AU_20_bxa_Step-10.wav","49","","","","","AU","resources/audio/wordStim/S9_AU_20_bxa_Step-10.wav","S9","20","bxa","10","CN","1","1","true"
"null","","fixation","html-keyboard-response","50","219659","0.0-8.0-0.12","5b0569619d397e00019167e4","condB","","<div class=""vertical-center"" style='width:60%;'><p style='font-weight:bold;'>Does the middle word sound more like the first word (A) or the last word (B)?</p> <br> <div class=""container""> <div id=""a-box""> <p class=""title-text"">A</h3></p> </div> <div id=""x-box""> <p class=""title-text"">X<p> </div> <div id=""b-box""> <p class=""title-text"">B</p></div> <br> <div style='float: left;padding-left:30px;'><p>Press '1' for A</p></div><div style='float: right;padding-right:30px;'><p>Press '0' for B</p> </div> </div></div>","null","","","","","","","","","","","","","",""
"2830","","test","audio-keyboard-response","51","222489","0.0-8.0-1.12","5b0569619d397e00019167e4","condB","","resources/audio/wordStim/S3_AU_14_bxa_Step-9.wav","49","","","","","AU","resources/audio/wordStim/S3_AU_14_bxa_Step-9.wav","S3","14","bxa","9","MI","1","1","true"
"null","","fixation","html-keyboard-response","52","223491","0.0-8.0-0.13","5b0569619d397e00019167e4","condB","","<div class=""vertical-center"" style='width:60%;'><p style='font-weight:bold;'>Does the middle word sound more like the first word (A) or the last word (B)?</p> <br> <div class=""container""> <div id=""a-box""> <p class=""title-text"">A</h3></p> </div> <div id=""x-box""> <p class=""title-text"">X<p> </div> <div id=""b-box""> <p class=""title-text"">B</p></div> <br> <div style='float: left;padding-left:30px;'><p>Press '1' for A</p></div><div style='float: right;padding-right:30px;'><p>Press '0' for B</p> </div> </div></div>","null","","","","","","","","","","","","","",""
"3059","","test","audio-keyboard-response","53","226549","0.0-8.0-1.13","5b0569619d397e00019167e4","condB","","resources/audio/wordStim/S9_AU_17_axb_Step-6.wav","49","","","","","AU","resources/audio/wordStim/S9_AU_17_axb_Step-6.wav","S9","17","axb","6","CN","0","1","false"
"null","","fixation","html-keyboard-response","54","227552","0.0-8.0-0.14","5b0569619d397e00019167e4","condB","","<div class=""vertical-center"" style='width:60%;'><p style='font-weight:bold;'>Does the middle word sound more like the first word (A) or the last word (B)?</p> <br> <div class=""container""> <div id=""a-box""> <p class=""title-text"">A</h3></p> </div> <div id=""x-box""> <p class=""title-text"">X<p> </div> <div id=""b-box""> <p class=""title-text"">B</p></div> <br> <div style='float: left;padding-left:30px;'><p>Press '1' for A</p></div><div style='float: right;padding-right:30px;'><p>Press '0' for B</p> </div> </div></div>","null","","","","","","","","","","","","","",""
"3811","","test","audio-keyboard-response","55","231367","0.0-8.0-1.14","5b0569619d397e00019167e4","condB","","resources/audio/wordStim/S3_AU_17_bxa_Step-9.wav","49","","","","","AU","resources/audio/wordStim/S3_AU_17_bxa_Step-9.wav","S3","17","bxa","9","MI","1","1","true"
"null","","fixation","html-keyboard-response","56","232369","0.0-8.0-0.15","5b0569619d397e00019167e4","condB","","<div class=""vertical-center"" style='width:60%;'><p style='font-weight:bold;'>Does the middle word sound more like the first word (A) or the last word (B)?</p> <br> <div class=""container""> <div id=""a-box""> <p class=""title-text"">A</h3></p> </div> <div id=""x-box""> <p class=""title-text"">X<p> </div> <div id=""b-box""> <p class=""title-text"">B</p></div> <br> <div style='float: left;padding-left:30px;'><p>Press '1' for A</p></div><div style='float: right;padding-right:30px;'><p>Press '0' for B</p> </div> </div></div>","null","","","","","","","","","","","","","",""
"3419","","test","audio-keyboard-response","57","235792","0.0-8.0-1.15","5b0569619d397e00019167e4","condB","","resources/audio/wordStim/S9_AI_25_bxa_Step-5.wav","49","","","","","AI","resources/audio/wordStim/S9_AI_25_bxa_Step-5.wav","S9","25","bxa","5","CN","1","1","true"
"null","","fixation","html-keyboard-response","58","236795","0.0-8.0-0.16","5b0569619d397e00019167e4","condB","","<div class=""vertical-center"" style='width:60%;'><p style='font-weight:bold;'>Does the middle word sound more like the first word (A) or the last word (B)?</p> <br> <div class=""container""> <div id=""a-box""> <p class=""title-text"">A</h3></p> </div> <div id=""x-box""> <p class=""title-text"">X<p> </div> <div id=""b-box""> <p class=""title-text"">B</p></div> <br> <div style='float: left;padding-left:30px;'><p>Press '1' for A</p></div><div style='float: right;padding-right:30px;'><p>Press '0' for B</p> </div> </div></div>","null","","","","","","","","","","","","","",""
"3091","","test","audio-keyboard-response","59","239882","0.0-8.0-1.16","5b0569619d397e00019167e4","condB","","resources/audio/wordStim/S3_AI_30_bxa_Step-9.wav","48","","","","","AI","resources/audio/wordStim/S3_AI_30_bxa_Step-9.wav","S3","30","bxa","9","MI","1","0","false"
"null","","fixation","html-keyboard-response","60","240883","0.0-8.0-0.17","5b0569619d397e00019167e4","condB","","<div class=""vertical-center"" style='width:60%;'><p style='font-weight:bold;'>Does the middle word sound more like the first word (A) or the last word (B)?</p> <br> <div class=""container""> <div id=""a-box""> <p class=""title-text"">A</h3></p> </div> <div id=""x-box""> <p class=""title-text"">X<p> </div> <div id=""b-box""> <p class=""title-text"">B</p></div> <br> <div style='float: left;padding-left:30px;'><p>Press '1' for A</p></div><div style='float: right;padding-right:30px;'><p>Press '0' for B</p> </div> </div></div>","null","","","","","","","","","","","","","",""
"3669","","test","audio-keyboard-response","61","244558","0.0-8.0-1.17","5b0569619d397e00019167e4","condB","","resources/audio/wordStim/S3_AU_16_bxa_Step-7.wav","48","","","","","AU","resources/audio/wordStim/S3_AU_16_bxa_Step-7.wav","S3","16","bxa","7","MI","1","0","false"
"null","","fixation","html-keyboard-response","62","245561","0.0-8.0-0.18","5b0569619d397e00019167e4","condB","","<div class=""vertical-center"" style='width:60%;'><p style='font-weight:bold;'>Does the middle word sound more like the first word (A) or the last word (B)?</p> <br> <div class=""container""> <div id=""a-box""> <p class=""title-text"">A</h3></p> </div> <div id=""x-box""> <p class=""title-text"">X<p> </div> <div id=""b-box""> <p class=""title-text"">B</p></div> <br> <div style='float: left;padding-left:30px;'><p>Press '1' for A</p></div><div style='float: right;padding-right:30px;'><p>Press '0' for B</p> </div> </div></div>","null","","","","","","","","","","","","","",""
"3399","","test","audio-keyboard-response","63","248964","0.0-8.0-1.18","5b0569619d397e00019167e4","condB","","resources/audio/wordStim/S3_AU_11_axb_Step-6.wav","49","","","","","AU","resources/audio/wordStim/S3_AU_11_axb_Step-6.wav","S3","11","axb","6","MI","0","1","false"
"null","","fixation","html-keyboard-response","64","249966","0.0-8.0-0.19","5b0569619d397e00019167e4","condB","","<div class=""vertical-center"" style='width:60%;'><p style='font-weight:bold;'>Does the middle word sound more like the first word (A) or the last word (B)?</p> <br> <div class=""container""> <div id=""a-box""> <p class=""title-text"">A</h3></p> </div> <div id=""x-box""> <p class=""title-text"">X<p> </div> <div id=""b-box""> <p class=""title-text"">B</p></div> <br> <div style='float: left;padding-left:30px;'><p>Press '1' for A</p></div><div style='float: right;padding-right:30px;'><p>Press '0' for B</p> </div> </div></div>","null","","","","","","","","","","","","","",""
"3419","","test","audio-keyboard-response","65","253384","0.0-8.0-1.19","5b0569619d397e00019167e4","condB","","resources/audio/wordStim/S9_AU_13_axb_Step-6.wav","48","","","","","AU","resources/audio/wordStim/S9_AU_13_axb_Step-6.wav","S9","13","axb","6","CN","0","0","true"
"null","","fixation","html-keyboard-response","66","254386","0.0-8.0-0.20","5b0569619d397e00019167e4","condB","","<div class=""vertical-center"" style='width:60%;'><p style='font-weight:bold;'>Does the middle word sound more like the first word (A) or the last word (B)?</p> <br> <div class=""container""> <div id=""a-box""> <p class=""title-text"">A</h3></p> </div> <div id=""x-box""> <p class=""title-text"">X<p> </div> <div id=""b-box""> <p class=""title-text"">B</p></div> <br> <div style='float: left;padding-left:30px;'><p>Press '1' for A</p></div><div style='float: right;padding-right:30px;'><p>Press '0' for B</p> </div> </div></div>","null","","","","","","","","","","","","","",""
"3349","","test","audio-keyboard-response","67","257730","0.0-8.0-1.20","5b0569619d397e00019167e4","condB","","resources/audio/wordStim/S9_AU_11_bxa_Step-3.wav","49","","","","","AU","resources/audio/wordStim/S9_AU_11_bxa_Step-3.wav","S9","11","bxa","3","CN","1","1","true"
"null","","fixation","html-keyboard-response","68","258731","0.0-8.0-0.21","5b0569619d397e00019167e4","condB","","<div class=""vertical-center"" style='width:60%;'><p style='font-weight:bold;'>Does the middle word sound more like the first word (A) or the last word (B)?</p> <br> <div class=""container""> <div id=""a-box""> <p class=""title-text"">A</h3></p> </div> <div id=""x-box""> <p class=""title-text"">X<p> </div> <div id=""b-box""> <p class=""title-text"">B</p></div> <br> <div style='float: left;padding-left:30px;'><p>Press '1' for A</p></div><div style='float: right;padding-right:30px;'><p>Press '0' for B</p> </div> </div></div>","null","","","","","","","","","","","","","",""
"3140","","test","audio-keyboard-response","69","261879","0.0-8.0-1.21","5b0569619d397e00019167e4","condB","","resources/audio/wordStim/S3_AI_30_axb_Step-6.wav","48","","","","","AI","resources/audio/wordStim/S3_AI_30_axb_Step-6.wav","S3","30","axb","6","MI","0","0","true"
"null","","fixation","html-keyboard-response","70","262880","0.0-8.0-0.22","5b0569619d397e00019167e4","condB","","<div class=""vertical-center"" style='width:60%;'><p style='font-weight:bold;'>Does the middle word sound more like the first word (A) or the last word (B)?</p> <br> <div class=""container""> <div id=""a-box""> <p class=""title-text"">A</h3></p> </div> <div id=""x-box""> <p class=""title-text"">X<p> </div> <div id=""b-box""> <p class=""title-text"">B</p></div> <br> <div style='float: left;padding-left:30px;'><p>Press '1' for A</p></div><div style='float: right;padding-right:30px;'><p>Press '0' for B</p> </div> </div></div>","null","","","","","","","","","","","","","",""
"3320","","test","audio-keyboard-response","71","266205","0.0-8.0-1.22","5b0569619d397e00019167e4","condB","","resources/audio/wordStim/S9_AI_30_bxa_Step-3.wav","48","","","","","AI","resources/audio/wordStim/S9_AI_30_bxa_Step-3.wav","S9","30","bxa","3","CN","1","0","false"
"null","","fixation","html-keyboard-response","72","267208","0.0-8.0-0.23","5b0569619d397e00019167e4","condB","","<div class=""vertical-center"" style='width:60%;'><p style='font-weight:bold;'>Does the middle word sound more like the first word (A) or the last word (B)?</p> <br> <div class=""container""> <div id=""a-box""> <p class=""title-text"">A</h3></p> </div> <div id=""x-box""> <p class=""title-text"">X<p> </div> <div id=""b-box""> <p class=""title-text"">B</p></div> <br> <div style='float: left;padding-left:30px;'><p>Press '1' for A</p></div><div style='float: right;padding-right:30px;'><p>Press '0' for B</p> </div> </div></div>","null","","","","","","","","","","","","","",""
"3178","","test","audio-keyboard-response","73","270384","0.0-8.0-1.23","5b0569619d397e00019167e4","condB","","resources/audio/wordStim/S3_AU_11_axb_Step-8.wav","49","","","","","AU","resources/audio/wordStim/S3_AU_11_axb_Step-8.wav","S3","11","axb","8","MI","0","1","false"
"null","","fixation","html-keyboard-response","74","271386","0.0-8.0-0.24","5b0569619d397e00019167e4","condB","","<div class=""vertical-center"" style='width:60%;'><p style='font-weight:bold;'>Does the middle word sound more like the first word (A) or the last word (B)?</p> <br> <div class=""container""> <div id=""a-box""> <p class=""title-text"">A</h3></p> </div> <div id=""x-box""> <p class=""title-text"">X<p> </div> <div id=""b-box""> <p class=""title-text"">B</p></div> <br> <div style='float: left;padding-left:30px;'><p>Press '1' for A</p></div><div style='float: right;padding-right:30px;'><p>Press '0' for B</p> </div> </div></div>","null","","","","","","","","","","","","","",""
"3260","","test","audio-keyboard-response","75","274650","0.0-8.0-1.24","5b0569619d397e00019167e4","condB","","resources/audio/wordStim/S3_AI_28_bxa_Step-3.wav","48","","","","","AI","resources/audio/wordStim/S3_AI_28_bxa_Step-3.wav","S3","28","bxa","3","MI","1","0","false"
"null","","fixation","html-keyboard-response","76","275652","0.0-8.0-0.25","5b0569619d397e00019167e4","condB","","<div class=""vertical-center"" style='width:60%;'><p style='font-weight:bold;'>Does the middle word sound more like the first word (A) or the last word (B)?</p> <br> <div class=""container""> <div id=""a-box""> <p class=""title-text"">A</h3></p> </div> <div id=""x-box""> <p class=""title-text"">X<p> </div> <div id=""b-box""> <p class=""title-text"">B</p></div> <br> <div style='float: left;padding-left:30px;'><p>Press '1' for A</p></div><div style='float: right;padding-right:30px;'><p>Press '0' for B</p> </div> </div></div>","null","","","","","","","","","","","","","",""
"3051","","test","audio-keyboard-response","77","278706","0.0-8.0-1.25","5b0569619d397e00019167e4","condB","","resources/audio/wordStim/S3_AU_20_axb_Step-2.wav","49","","","","","AU","resources/audio/wordStim/S3_AU_20_axb_Step-2.wav","S3","20","axb","2","MI","0","1","false"
"null","","fixation","html-keyboard-response","78","279709","0.0-8.0-0.26","5b0569619d397e00019167e4","condB","","<div class=""vertical-center"" style='width:60%;'><p style='font-weight:bold;'>Does the middle word sound more like the first word (A) or the last word (B)?</p> <br> <div class=""container""> <div id=""a-box""> <p class=""title-text"">A</h3></p> </div> <div id=""x-box""> <p class=""title-text"">X<p> </div> <div id=""b-box""> <p class=""title-text"">B</p></div> <br> <div style='float: left;padding-left:30px;'><p>Press '1' for A</p></div><div style='float: right;padding-right:30px;'><p>Press '0' for B</p> </div> </div></div>","null","","","","","","","","","","","","","",""
"2760","","test","audio-keyboard-response","79","282463","0.0-8.0-1.26","5b0569619d397e00019167e4","condB","","resources/audio/wordStim/S9_AU_16_bxa_Step-9.wav","49","","","","","AU","resources/audio/wordStim/S9_AU_16_bxa_Step-9.wav","S9","16","bxa","9","CN","1","1","true"
"20755","","break","html-keyboard-response","80","303720","0.0-8.0-2.26-0.26","5b0569619d397e00019167e4","condB","","<div class=""vertical-center""><p>Feel free to take a break!</p><i>When you're ready to continue, press SPACE to begin the next trial.</i></p></div>","32","","","","","","","","","","","","","",""
"null","","fixation","html-keyboard-response","81","304221","0.0-8.0-0.27","5b0569619d397e00019167e4","condB","","<div class=""vertical-center"" style='width:60%;'><p style='font-weight:bold;'>Does the middle word sound more like the first word (A) or the last word (B)?</p> <br> <div class=""container""> <div id=""a-box""> <p class=""title-text"">A</h3></p> </div> <div id=""x-box""> <p class=""title-text"">X<p> </div> <div id=""b-box""> <p class=""title-text"">B</p></div> <br> <div style='float: left;padding-left:30px;'><p>Press '1' for A</p></div><div style='float: right;padding-right:30px;'><p>Press '0' for B</p> </div> </div></div>","null","","","","","","","","","","","","","",""
"2900","","test","audio-keyboard-response","82","307124","0.0-8.0-1.27","5b0569619d397e00019167e4","condB","","resources/audio/wordStim/S9_AU_17_axb_Step-4.wav","49","","","","","AU","resources/audio/wordStim/S9_AU_17_axb_Step-4.wav","S9","17","axb","4","CN","0","1","false"
"null","","fixation","html-keyboard-response","83","308128","0.0-8.0-0.28","5b0569619d397e00019167e4","condB","","<div class=""vertical-center"" style='width:60%;'><p style='font-weight:bold;'>Does the middle word sound more like the first word (A) or the last word (B)?</p> <br> <div class=""container""> <div id=""a-box""> <p class=""title-text"">A</h3></p> </div> <div id=""x-box""> <p class=""title-text"">X<p> </div> <div id=""b-box""> <p class=""title-text"">B</p></div> <br> <div style='float: left;padding-left:30px;'><p>Press '1' for A</p></div><div style='float: right;padding-right:30px;'><p>Press '0' for B</p> </div> </div></div>","null","","","","","","","","","","","","","",""
"3010","","test","audio-keyboard-response","84","311138","0.0-8.0-1.28","5b0569619d397e00019167e4","condB","","resources/audio/wordStim/S3_AI_30_bxa_Step-7.wav","49","","","","","AI","resources/audio/wordStim/S3_AI_30_bxa_Step-7.wav","S3","30","bxa","7","MI","1","1","true"
"null","","fixation","html-keyboard-response","85","312140","0.0-8.0-0.29","5b0569619d397e00019167e4","condB","","<div class=""vertical-center"" style='width:60%;'><p style='font-weight:bold;'>Does the middle word sound more like the first word (A) or the last word (B)?</p> <br> <div class=""container""> <div id=""a-box""> <p class=""title-text"">A</h3></p> </div> <div id=""x-box""> <p class=""title-text"">X<p> </div> <div id=""b-box""> <p class=""title-text"">B</p></div> <br> <div style='float: left;padding-left:30px;'><p>Press '1' for A</p></div><div style='float: right;padding-right:30px;'><p>Press '0' for B</p> </div> </div></div>","null","","","","","","","","","","","","","",""
"3358","","test","audio-keyboard-response","86","315499","0.0-8.0-1.29","5b0569619d397e00019167e4","condB","","resources/audio/wordStim/S9_AU_18_bxa_Step-10.wav","49","","","","","AU","resources/audio/wordStim/S9_AU_18_bxa_Step-10.wav","S9","18","bxa","10","CN","1","1","true"
"null","","fixation","html-keyboard-response","87","316500","0.0-8.0-0.30","5b0569619d397e00019167e4","condB","","<div class=""vertical-center"" style='width:60%;'><p style='font-weight:bold;'>Does the middle word sound more like the first word (A) or the last word (B)?</p> <br> <div class=""container""> <div id=""a-box""> <p class=""title-text"">A</h3></p> </div> <div id=""x-box""> <p class=""title-text"">X<p> </div> <div id=""b-box""> <p class=""title-text"">B</p></div> <br> <div style='float: left;padding-left:30px;'><p>Press '1' for A</p></div><div style='float: right;padding-right:30px;'><p>Press '0' for B</p> </div> </div></div>","null","","","","","","","","","","","","","",""
"3271","","test","audio-keyboard-response","88","319780","0.0-8.0-1.30","5b0569619d397e00019167e4","condB","","resources/audio/wordStim/S3_AI_29_axb_Step-6.wav","48","","","","","AI","resources/audio/wordStim/S3_AI_29_axb_Step-6.wav","S3","29","axb","6","MI","0","0","true"
"null","","fixation","html-keyboard-response","89","320783","0.0-8.0-0.31","5b0569619d397e00019167e4","condB","","<div class=""vertical-center"" style='width:60%;'><p style='font-weight:bold;'>Does the middle word sound more like the first word (A) or the last word (B)?</p> <br> <div class=""container""> <div id=""a-box""> <p class=""title-text"">A</h3></p> </div> <div id=""x-box""> <p class=""title-text"">X<p> </div> <div id=""b-box""> <p class=""title-text"">B</p></div> <br> <div style='float: left;padding-left:30px;'><p>Press '1' for A</p></div><div style='float: right;padding-right:30px;'><p>Press '0' for B</p> </div> </div></div>","null","","","","","","","","","","","","","",""
"3178","","test","audio-keyboard-response","90","323961","0.0-8.0-1.31","5b0569619d397e00019167e4","condB","","resources/audio/wordStim/S9_AI_25_bxa_Step-7.wav","49","","","","","AI","resources/audio/wordStim/S9_AI_25_bxa_Step-7.wav","S9","25","bxa","7","CN","1","1","true"
"null","","fixation","html-keyboard-response","91","324965","0.0-8.0-0.32","5b0569619d397e00019167e4","condB","","<div class=""vertical-center"" style='width:60%;'><p style='font-weight:bold;'>Does the middle word sound more like the first word (A) or the last word (B)?</p> <br> <div class=""container""> <div id=""a-box""> <p class=""title-text"">A</h3></p> </div> <div id=""x-box""> <p class=""title-text"">X<p> </div> <div id=""b-box""> <p class=""title-text"">B</p></div> <br> <div style='float: left;padding-left:30px;'><p>Press '1' for A</p></div><div style='float: right;padding-right:30px;'><p>Press '0' for B</p> </div> </div></div>","null","","","","","","","","","","","","","",""
"3640","","test","audio-keyboard-response","92","328606","0.0-8.0-1.32","5b0569619d397e00019167e4","condB","","resources/audio/wordStim/S9_AU_11_axb_Step-2.wav","49","","","","","AU","resources/audio/wordStim/S9_AU_11_axb_Step-2.wav","S9","11","axb","2","CN","0","1","false"
"null","","fixation","html-keyboard-response","93","329607","0.0-8.0-0.33","5b0569619d397e00019167e4","condB","","<div class=""vertical-center"" style='width:60%;'><p style='font-weight:bold;'>Does the middle word sound more like the first word (A) or the last word (B)?</p> <br> <div class=""container""> <div id=""a-box""> <p class=""title-text"">A</h3></p> </div> <div id=""x-box""> <p class=""title-text"">X<p> </div> <div id=""b-box""> <p class=""title-text"">B</p></div> <br> <div style='float: left;padding-left:30px;'><p>Press '1' for A</p></div><div style='float: right;padding-right:30px;'><p>Press '0' for B</p> </div> </div></div>","null","","","","","","","","","","","","","",""
"3289","","test","audio-keyboard-response","94","332899","0.0-8.0-1.33","5b0569619d397e00019167e4","condB","","resources/audio/wordStim/S9_AI_22_bxa_Step-3.wav","48","","","","","AI","resources/audio/wordStim/S9_AI_22_bxa_Step-3.wav","S9","22","bxa","3","CN","1","0","false"
"null","","fixation","html-keyboard-response","95","333900","0.0-8.0-0.34","5b0569619d397e00019167e4","condB","","<div class=""vertical-center"" style='width:60%;'><p style='font-weight:bold;'>Does the middle word sound more like the first word (A) or the last word (B)?</p> <br> <div class=""container""> <div id=""a-box""> <p class=""title-text"">A</h3></p> </div> <div id=""x-box""> <p class=""title-text"">X<p> </div> <div id=""b-box""> <p class=""title-text"">B</p></div> <br> <div style='float: left;padding-left:30px;'><p>Press '1' for A</p></div><div style='float: right;padding-right:30px;'><p>Press '0' for B</p> </div> </div></div>","null","","","","","","","","","","","","","",""
"2499","","test","audio-keyboard-response","96","336399","0.0-8.0-1.34","5b0569619d397e00019167e4","condB","","resources/audio/wordStim/S3_AI_21_axb_Step-6.wav","48","","","","","AI","resources/audio/wordStim/S3_AI_21_axb_Step-6.wav","S3","21","axb","6","MI","0","0","true"
"null","","fixation","html-keyboard-response","97","337403","0.0-8.0-0.35","5b0569619d397e00019167e4","condB","","<div class=""vertical-center"" style='width:60%;'><p style='font-weight:bold;'>Does the middle word sound more like the first word (A) or the last word (B)?</p> <br> <div class=""container""> <div id=""a-box""> <p class=""title-text"">A</h3></p> </div> <div id=""x-box""> <p class=""title-text"">X<p> </div> <div id=""b-box""> <p class=""title-text"">B</p></div> <br> <div style='float: left;padding-left:30px;'><p>Press '1' for A</p></div><div style='float: right;padding-right:30px;'><p>Press '0' for B</p> </div> </div></div>","null","","","","","","","","","","","","","",""
"2818","","test","audio-keyboard-response","98","340225","0.0-8.0-1.35","5b0569619d397e00019167e4","condB","","resources/audio/wordStim/S9_AI_27_bxa_Step-5.wav","49","","","","","AI","resources/audio/wordStim/S9_AI_27_bxa_Step-5.wav","S9","27","bxa","5","CN","1","1","true"
"null","","fixation","html-keyboard-response","99","341227","0.0-8.0-0.36","5b0569619d397e00019167e4","condB","","<div class=""vertical-center"" style='width:60%;'><p style='font-weight:bold;'>Does the middle word sound more like the first word (A) or the last word (B)?</p> <br> <div class=""container""> <div id=""a-box""> <p class=""title-text"">A</h3></p> </div> <div id=""x-box""> <p class=""title-text"">X<p> </div> <div id=""b-box""> <p class=""title-text"">B</p></div> <br> <div style='float: left;padding-left:30px;'><p>Press '1' for A</p></div><div style='float: right;padding-right:30px;'><p>Press '0' for B</p> </div> </div></div>","null","","","","","","","","","","","","","",""
"3341","","test","audio-keyboard-response","100","344567","0.0-8.0-1.36","5b0569619d397e00019167e4","condB","","resources/audio/wordStim/S9_AU_11_bxa_Step-10.wav","49","","","","","AU","resources/audio/wordStim/S9_AU_11_bxa_Step-10.wav","S9","11","bxa","10","CN","1","1","true"
"null","","fixation","html-keyboard-response","101","345569","0.0-8.0-0.37","5b0569619d397e00019167e4","condB","","<div class=""vertical-center"" style='width:60%;'><p style='font-weight:bold;'>Does the middle word sound more like the first word (A) or the last word (B)?</p> <br> <div class=""container""> <div id=""a-box""> <p class=""title-text"">A</h3></p> </div> <div id=""x-box""> <p class=""title-text"">X<p> </div> <div id=""b-box""> <p class=""title-text"">B</p></div> <br> <div style='float: left;padding-left:30px;'><p>Press '1' for A</p></div><div style='float: right;padding-right:30px;'><p>Press '0' for B</p> </div> </div></div>","null","","","","","","","","","","","","","",""
"3910","","test","audio-keyboard-response","102","349475","0.0-8.0-1.37","5b0569619d397e00019167e4","condB","","resources/audio/wordStim/S3_AU_16_bxa_Step-10.wav","49","","","","","AU","resources/audio/wordStim/S3_AU_16_bxa_Step-10.wav","S3","16","bxa","10","MI","1","1","true"
"null","","fixation","html-keyboard-response","103","350476","0.0-8.0-0.38","5b0569619d397e00019167e4","condB","","<div class=""vertical-center"" style='width:60%;'><p style='font-weight:bold;'>Does the middle word sound more like the first word (A) or the last word (B)?</p> <br> <div class=""container""> <div id=""a-box""> <p class=""title-text"">A</h3></p> </div> <div id=""x-box""> <p class=""title-text"">X<p> </div> <div id=""b-box""> <p class=""title-text"">B</p></div> <br> <div style='float: left;padding-left:30px;'><p>Press '1' for A</p></div><div style='float: right;padding-right:30px;'><p>Press '0' for B</p> </div> </div></div>","null","","","","","","","","","","","","","",""
"3579","","test","audio-keyboard-response","104","354056","0.0-8.0-1.38","5b0569619d397e00019167e4","condB","","resources/audio/wordStim/S9_AI_22_axb_Step-4.wav","48","","","","","AI","resources/audio/wordStim/S9_AI_22_axb_Step-4.wav","S9","22","axb","4","CN","0","0","true"
"null","","fixation","html-keyboard-response","105","355060","0.0-8.0-0.39","5b0569619d397e00019167e4","condB","","<div class=""vertical-center"" style='width:60%;'><p style='font-weight:bold;'>Does the middle word sound more like the first word (A) or the last word (B)?</p> <br> <div class=""container""> <div id=""a-box""> <p class=""title-text"">A</h3></p> </div> <div id=""x-box""> <p class=""title-text"">X<p> </div> <div id=""b-box""> <p class=""title-text"">B</p></div> <br> <div style='float: left;padding-left:30px;'><p>Press '1' for A</p></div><div style='float: right;padding-right:30px;'><p>Press '0' for B</p> </div> </div></div>","null","","","","","","","","","","","","","",""
"3230","","test","audio-keyboard-response","106","358293","0.0-8.0-1.39","5b0569619d397e00019167e4","condB","","resources/audio/wordStim/S9_AI_30_bxa_Step-10.wav","49","","","","","AI","resources/audio/wordStim/S9_AI_30_bxa_Step-10.wav","S9","30","bxa","10","CN","1","1","true"
"null","","fixation","html-keyboard-response","107","359295","0.0-8.0-0.40","5b0569619d397e00019167e4","condB","","<div class=""vertical-center"" style='width:60%;'><p style='font-weight:bold;'>Does the middle word sound more like the first word (A) or the last word (B)?</p> <br> <div class=""container""> <div id=""a-box""> <p class=""title-text"">A</h3></p> </div> <div id=""x-box""> <p class=""title-text"">X<p> </div> <div id=""b-box""> <p class=""title-text"">B</p></div> <br> <div style='float: left;padding-left:30px;'><p>Press '1' for A</p></div><div style='float: right;padding-right:30px;'><p>Press '0' for B</p> </div> </div></div>","null","","","","","","","","","","","","","",""
"2778","","test","audio-keyboard-response","108","362074","0.0-8.0-1.40","5b0569619d397e00019167e4","condB","","resources/audio/wordStim/S3_AU_20_bxa_Step-3.wav","48","","","","","AU","resources/audio/wordStim/S3_AU_20_bxa_Step-3.wav","S3","20","bxa","3","MI","1","0","false"
"null","","fixation","html-keyboard-response","109","363076","0.0-8.0-0.41","5b0569619d397e00019167e4","condB","","<div class=""vertical-center"" style='width:60%;'><p style='font-weight:bold;'>Does the middle word sound more like the first word (A) or the last word (B)?</p> <br> <div class=""container""> <div id=""a-box""> <p class=""title-text"">A</h3></p> </div> <div id=""x-box""> <p class=""title-text"">X<p> </div> <div id=""b-box""> <p class=""title-text"">B</p></div> <br> <div style='float: left;padding-left:30px;'><p>Press '1' for A</p></div><div style='float: right;padding-right:30px;'><p>Press '0' for B</p> </div> </div></div>","null","","","","","","","","","","","","","",""
"3280","","test","audio-keyboard-response","110","366351","0.0-8.0-1.41","5b0569619d397e00019167e4","condB","","resources/audio/wordStim/S9_AU_18_axb_Step-8.wav","48","","","","","AU","resources/audio/wordStim/S9_AU_18_axb_Step-8.wav","S9","18","axb","8","CN","0","0","true"
"null","","fixation","html-keyboard-response","111","367353","0.0-8.0-0.42","5b0569619d397e00019167e4","condB","","<div class=""vertical-center"" style='width:60%;'><p style='font-weight:bold;'>Does the middle word sound more like the first word (A) or the last word (B)?</p> <br> <div class=""container""> <div id=""a-box""> <p class=""title-text"">A</h3></p> </div> <div id=""x-box""> <p class=""title-text"">X<p> </div> <div id=""b-box""> <p class=""title-text"">B</p></div> <br> <div style='float: left;padding-left:30px;'><p>Press '1' for A</p></div><div style='float: right;padding-right:30px;'><p>Press '0' for B</p> </div> </div></div>","null","","","","","","","","","","","","","",""
"3390","","test","audio-keyboard-response","112","370740","0.0-8.0-1.42","5b0569619d397e00019167e4","condB","","resources/audio/wordStim/S3_AU_17_bxa_Step-5.wav","48","","","","","AU","resources/audio/wordStim/S3_AU_17_bxa_Step-5.wav","S3","17","bxa","5","MI","1","0","false"
"null","","fixation","html-keyboard-response","113","371741","0.0-8.0-0.43","5b0569619d397e00019167e4","condB","","<div class=""vertical-center"" style='width:60%;'><p style='font-weight:bold;'>Does the middle word sound more like the first word (A) or the last word (B)?</p> <br> <div class=""container""> <div id=""a-box""> <p class=""title-text"">A</h3></p> </div> <div id=""x-box""> <p class=""title-text"">X<p> </div> <div id=""b-box""> <p class=""title-text"">B</p></div> <br> <div style='float: left;padding-left:30px;'><p>Press '1' for A</p></div><div style='float: right;padding-right:30px;'><p>Press '0' for B</p> </div> </div></div>","null","","","","","","","","","","","","","",""
"3239","","test","audio-keyboard-response","114","374989","0.0-8.0-1.43","5b0569619d397e00019167e4","condB","","resources/audio/wordStim/S9_AU_14_axb_Step-6.wav","49","","","","","AU","resources/audio/wordStim/S9_AU_14_axb_Step-6.wav","S9","14","axb","6","CN","0","1","false"
"null","","fixation","html-keyboard-response","115","375993","0.0-8.0-0.44","5b0569619d397e00019167e4","condB","","<div class=""vertical-center"" style='width:60%;'><p style='font-weight:bold;'>Does the middle word sound more like the first word (A) or the last word (B)?</p> <br> <div class=""container""> <div id=""a-box""> <p class=""title-text"">A</h3></p> </div> <div id=""x-box""> <p class=""title-text"">X<p> </div> <div id=""b-box""> <p class=""title-text"">B</p></div> <br> <div style='float: left;padding-left:30px;'><p>Press '1' for A</p></div><div style='float: right;padding-right:30px;'><p>Press '0' for B</p> </div> </div></div>","null","","","","","","","","","","","","","",""
"3042","","test","audio-keyboard-response","116","379034","0.0-8.0-1.44","5b0569619d397e00019167e4","condB","","resources/audio/wordStim/S9_AU_17_bxa_Step-9.wav","49","","","","","AU","resources/audio/wordStim/S9_AU_17_bxa_Step-9.wav","S9","17","bxa","9","CN","1","1","true"
"null","","fixation","html-keyboard-response","117","380036","0.0-8.0-0.45","5b0569619d397e00019167e4","condB","","<div class=""vertical-center"" style='width:60%;'><p style='font-weight:bold;'>Does the middle word sound more like the first word (A) or the last word (B)?</p> <br> <div class=""container""> <div id=""a-box""> <p class=""title-text"">A</h3></p> </div> <div id=""x-box""> <p class=""title-text"">X<p> </div> <div id=""b-box""> <p class=""title-text"">B</p></div> <br> <div style='float: left;padding-left:30px;'><p>Press '1' for A</p></div><div style='float: right;padding-right:30px;'><p>Press '0' for B</p> </div> </div></div>","null","","","","","","","","","","","","","",""
"3030","","test","audio-keyboard-response","118","383063","0.0-8.0-1.45","5b0569619d397e00019167e4","condB","","resources/audio/wordStim/S9_AU_13_bxa_Step-5.wav","48","","","","","AU","resources/audio/wordStim/S9_AU_13_bxa_Step-5.wav","S9","13","bxa","5","CN","1","0","false"
"null","","fixation","html-keyboard-response","119","384065","0.0-8.0-0.46","5b0569619d397e00019167e4","condB","","<div class=""vertical-center"" style='width:60%;'><p style='font-weight:bold;'>Does the middle word sound more like the first word (A) or the last word (B)?</p> <br> <div class=""container""> <div id=""a-box""> <p class=""title-text"">A</h3></p> </div> <div id=""x-box""> <p class=""title-text"">X<p> </div> <div id=""b-box""> <p class=""title-text"">B</p></div> <br> <div style='float: left;padding-left:30px;'><p>Press '1' for A</p></div><div style='float: right;padding-right:30px;'><p>Press '0' for B</p> </div> </div></div>","null","","","","","","","","","","","","","",""
"2659","","test","audio-keyboard-response","120","386723","0.0-8.0-1.46","5b0569619d397e00019167e4","condB","","resources/audio/wordStim/S3_AU_15_bxa_Step-10.wav","48","","","","","AU","resources/audio/wordStim/S3_AU_15_bxa_Step-10.wav","S3","15","bxa","10","MI","1","0","false"
"null","","fixation","html-keyboard-response","121","387725","0.0-8.0-0.47","5b0569619d397e00019167e4","condB","","<div class=""vertical-center"" style='width:60%;'><p style='font-weight:bold;'>Does the middle word sound more like the first word (A) or the last word (B)?</p> <br> <div class=""container""> <div id=""a-box""> <p class=""title-text"">A</h3></p> </div> <div id=""x-box""> <p class=""title-text"">X<p> </div> <div id=""b-box""> <p class=""title-text"">B</p></div> <br> <div style='float: left;padding-left:30px;'><p>Press '1' for A</p></div><div style='float: right;padding-right:30px;'><p>Press '0' for B</p> </div> </div></div>","null","","","","","","","","","","","","","",""
"3248","","test","audio-keyboard-response","122","390972","0.0-8.0-1.47","5b0569619d397e00019167e4","condB","","resources/audio/wordStim/S9_AU_18_bxa_Step-3.wav","48","","","","","AU","resources/audio/wordStim/S9_AU_18_bxa_Step-3.wav","S9","18","bxa","3","CN","1","0","false"
"null","","fixation","html-keyboard-response","123","391975","0.0-8.0-0.48","5b0569619d397e00019167e4","condB","","<div class=""vertical-center"" style='width:60%;'><p style='font-weight:bold;'>Does the middle word sound more like the first word (A) or the last word (B)?</p> <br> <div class=""container""> <div id=""a-box""> <p class=""title-text"">A</h3></p> </div> <div id=""x-box""> <p class=""title-text"">X<p> </div> <div id=""b-box""> <p class=""title-text"">B</p></div> <br> <div style='float: left;padding-left:30px;'><p>Press '1' for A</p></div><div style='float: right;padding-right:30px;'><p>Press '0' for B</p> </div> </div></div>","null","","","","","","","","","","","","","",""
"3480","","test","audio-keyboard-response","124","395453","0.0-8.0-1.48","5b0569619d397e00019167e4","condB","","resources/audio/wordStim/S3_AU_17_axb_Step-6.wav","49","","","","","AU","resources/audio/wordStim/S3_AU_17_axb_Step-6.wav","S3","17","axb","6","MI","0","1","false"
"null","","fixation","html-keyboard-response","125","396456","0.0-8.0-0.49","5b0569619d397e00019167e4","condB","","<div class=""vertical-center"" style='width:60%;'><p style='font-weight:bold;'>Does the middle word sound more like the first word (A) or the last word (B)?</p> <br> <div class=""container""> <div id=""a-box""> <p class=""title-text"">A</h3></p> </div> <div id=""x-box""> <p class=""title-text"">X<p> </div> <div id=""b-box""> <p class=""title-text"">B</p></div> <br> <div style='float: left;padding-left:30px;'><p>Press '1' for A</p></div><div style='float: right;padding-right:30px;'><p>Press '0' for B</p> </div> </div></div>","null","","","","","","","","","","","","","",""
"3944","","test","audio-keyboard-response","126","400401","0.0-8.0-1.49","5b0569619d397e00019167e4","condB","","resources/audio/wordStim/S9_AI_22_axb_Step-8.wav","48","","","","","AI","resources/audio/wordStim/S9_AI_22_axb_Step-8.wav","S9","22","axb","8","CN","0","0","true"
"null","","fixation","html-keyboard-response","127","401404","0.0-8.0-0.50","5b0569619d397e00019167e4","condB","","<div class=""vertical-center"" style='width:60%;'><p style='font-weight:bold;'>Does the middle word sound more like the first word (A) or the last word (B)?</p> <br> <div class=""container""> <div id=""a-box""> <p class=""title-text"">A</h3></p> </div> <div id=""x-box""> <p class=""title-text"">X<p> </div> <div id=""b-box""> <p class=""title-text"">B</p></div> <br> <div style='float: left;padding-left:30px;'><p>Press '1' for A</p></div><div style='float: right;padding-right:30px;'><p>Press '0' for B</p> </div> </div></div>","null","","","","","","","","","","","","","",""
"2630","","test","audio-keyboard-response","128","404034","0.0-8.0-1.50","5b0569619d397e00019167e4","condB","","resources/audio/wordStim/S9_AU_16_axb_Step-8.wav","48","","","","","AU","resources/audio/wordStim/S9_AU_16_axb_Step-8.wav","S9","16","axb","8","CN","0","0","true"
"null","","fixation","html-keyboard-response","129","405036","0.0-8.0-0.51","5b0569619d397e00019167e4","condB","","<div class=""vertical-center"" style='width:60%;'><p style='font-weight:bold;'>Does the middle word sound more like the first word (A) or the last word (B)?</p> <br> <div class=""container""> <div id=""a-box""> <p class=""title-text"">A</h3></p> </div> <div id=""x-box""> <p class=""title-text"">X<p> </div> <div id=""b-box""> <p class=""title-text"">B</p></div> <br> <div style='float: left;padding-left:30px;'><p>Press '1' for A</p></div><div style='float: right;padding-right:30px;'><p>Press '0' for B</p> </div> </div></div>","null","","","","","","","","","","","","","",""
"2650","","test","audio-keyboard-response","130","407683","0.0-8.0-1.51","5b0569619d397e00019167e4","condB","","resources/audio/wordStim/S9_AU_16_bxa_Step-3.wav","48","","","","","AU","resources/audio/wordStim/S9_AU_16_bxa_Step-3.wav","S9","16","bxa","3","CN","1","0","false"
"null","","fixation","html-keyboard-response","131","408685","0.0-8.0-0.52","5b0569619d397e00019167e4","condB","","<div class=""vertical-center"" style='width:60%;'><p style='font-weight:bold;'>Does the middle word sound more like the first word (A) or the last word (B)?</p> <br> <div class=""container""> <div id=""a-box""> <p class=""title-text"">A</h3></p> </div> <div id=""x-box""> <p class=""title-text"">X<p> </div> <div id=""b-box""> <p class=""title-text"">B</p></div> <br> <div style='float: left;padding-left:30px;'><p>Press '1' for A</p></div><div style='float: right;padding-right:30px;'><p>Press '0' for B</p> </div> </div></div>","null","","","","","","","","","","","","","",""
"2961","","test","audio-keyboard-response","132","411648","0.0-8.0-1.52","5b0569619d397e00019167e4","condB","","resources/audio/wordStim/S9_AI_25_axb_Step-6.wav","49","","","","","AI","resources/audio/wordStim/S9_AI_25_axb_Step-6.wav","S9","25","axb","6","CN","0","1","false"
"null","","fixation","html-keyboard-response","133","412649","0.0-8.0-0.53","5b0569619d397e00019167e4","condB","","<div class=""vertical-center"" style='width:60%;'><p style='font-weight:bold;'>Does the middle word sound more like the first word (A) or the last word (B)?</p> <br> <div class=""container""> <div id=""a-box""> <p class=""title-text"">A</h3></p> </div> <div id=""x-box""> <p class=""title-text"">X<p> </div> <div id=""b-box""> <p class=""title-text"">B</p></div> <br> <div style='float: left;padding-left:30px;'><p>Press '1' for A</p></div><div style='float: right;padding-right:30px;'><p>Press '0' for B</p> </div> </div></div>","null","","","","","","","","","","","","","",""
"3170","","test","audio-keyboard-response","134","415816","0.0-8.0-1.53","5b0569619d397e00019167e4","condB","","resources/audio/wordStim/S9_AU_11_axb_Step-4.wav","48","","","","","AU","resources/audio/wordStim/S9_AU_11_axb_Step-4.wav","S9","11","axb","4","CN","0","0","true"
"2572","","break","html-keyboard-response","135","418889","0.0-8.0-2.53-0.53","5b0569619d397e00019167e4","condB","","<div class=""vertical-center""><p>Feel free to take a break!</p><i>When you're ready to continue, press SPACE to begin the next trial.</i></p></div>","32","","","","","","","","","","","","","",""
"null","","fixation","html-keyboard-response","136","419390","0.0-8.0-0.54","5b0569619d397e00019167e4","condB","","<div class=""vertical-center"" style='width:60%;'><p style='font-weight:bold;'>Does the middle word sound more like the first word (A) or the last word (B)?</p> <br> <div class=""container""> <div id=""a-box""> <p class=""title-text"">A</h3></p> </div> <div id=""x-box""> <p class=""title-text"">X<p> </div> <div id=""b-box""> <p class=""title-text"">B</p></div> <br> <div style='float: left;padding-left:30px;'><p>Press '1' for A</p></div><div style='float: right;padding-right:30px;'><p>Press '0' for B</p> </div> </div></div>","null","","","","","","","","","","","","","",""
"3181","","test","audio-keyboard-response","137","422570","0.0-8.0-1.54","5b0569619d397e00019167e4","condB","","resources/audio/wordStim/S9_AI_25_bxa_Step-3.wav","48","","","","","AI","resources/audio/wordStim/S9_AI_25_bxa_Step-3.wav","S9","25","bxa","3","CN","1","0","false"
"null","","fixation","html-keyboard-response","138","423573","0.0-8.0-0.55","5b0569619d397e00019167e4","condB","","<div class=""vertical-center"" style='width:60%;'><p style='font-weight:bold;'>Does the middle word sound more like the first word (A) or the last word (B)?</p> <br> <div class=""container""> <div id=""a-box""> <p class=""title-text"">A</h3></p> </div> <div id=""x-box""> <p class=""title-text"">X<p> </div> <div id=""b-box""> <p class=""title-text"">B</p></div> <br> <div style='float: left;padding-left:30px;'><p>Press '1' for A</p></div><div style='float: right;padding-right:30px;'><p>Press '0' for B</p> </div> </div></div>","null","","","","","","","","","","","","","",""
"3161","","test","audio-keyboard-response","139","426735","0.0-8.0-1.55","5b0569619d397e00019167e4","condB","","resources/audio/wordStim/S3_AU_11_bxa_Step-3.wav","48","","","","","AU","resources/audio/wordStim/S3_AU_11_bxa_Step-3.wav","S3","11","bxa","3","MI","1","0","false"
"null","","fixation","html-keyboard-response","140","427739","0.0-8.0-0.56","5b0569619d397e00019167e4","condB","","<div class=""vertical-center"" style='width:60%;'><p style='font-weight:bold;'>Does the middle word sound more like the first word (A) or the last word (B)?</p> <br> <div class=""container""> <div id=""a-box""> <p class=""title-text"">A</h3></p> </div> <div id=""x-box""> <p class=""title-text"">X<p> </div> <div id=""b-box""> <p class=""title-text"">B</p></div> <br> <div style='float: left;padding-left:30px;'><p>Press '1' for A</p></div><div style='float: right;padding-right:30px;'><p>Press '0' for B</p> </div> </div></div>","null","","","","","","","","","","","","","",""
"2929","","test","audio-keyboard-response","141","430664","0.0-8.0-1.56","5b0569619d397e00019167e4","condB","","resources/audio/wordStim/S9_AI_27_bxa_Step-7.wav","48","","","","","AI","resources/audio/wordStim/S9_AI_27_bxa_Step-7.wav","S9","27","bxa","7","CN","1","0","false"
"null","","fixation","html-keyboard-response","142","431667","0.0-8.0-0.57","5b0569619d397e00019167e4","condB","","<div class=""vertical-center"" style='width:60%;'><p style='font-weight:bold;'>Does the middle word sound more like the first word (A) or the last word (B)?</p> <br> <div class=""container""> <div id=""a-box""> <p class=""title-text"">A</h3></p> </div> <div id=""x-box""> <p class=""title-text"">X<p> </div> <div id=""b-box""> <p class=""title-text"">B</p></div> <br> <div style='float: left;padding-left:30px;'><p>Press '1' for A</p></div><div style='float: right;padding-right:30px;'><p>Press '0' for B</p> </div> </div></div>","null","","","","","","","","","","","","","",""
"2998","","test","audio-keyboard-response","143","434660","0.0-8.0-1.57","5b0569619d397e00019167e4","condB","","resources/audio/wordStim/S3_AI_23_bxa_Step-3.wav","48","","","","","AI","resources/audio/wordStim/S3_AI_23_bxa_Step-3.wav","S3","23","bxa","3","MI","1","0","false"
"null","","fixation","html-keyboard-response","144","435662","0.0-8.0-0.58","5b0569619d397e00019167e4","condB","","<div class=""vertical-center"" style='width:60%;'><p style='font-weight:bold;'>Does the middle word sound more like the first word (A) or the last word (B)?</p> <br> <div class=""container""> <div id=""a-box""> <p class=""title-text"">A</h3></p> </div> <div id=""x-box""> <p class=""title-text"">X<p> </div> <div id=""b-box""> <p class=""title-text"">B</p></div> <br> <div style='float: left;padding-left:30px;'><p>Press '1' for A</p></div><div style='float: right;padding-right:30px;'><p>Press '0' for B</p> </div> </div></div>","null","","","","","","","","","","","","","",""
"2810","","test","audio-keyboard-response","145","438477","0.0-8.0-1.58","5b0569619d397e00019167e4","condB","","resources/audio/wordStim/S3_AU_14_axb_Step-4.wav","49","","","","","AU","resources/audio/wordStim/S3_AU_14_axb_Step-4.wav","S3","14","axb","4","MI","0","1","false"
"null","","fixation","html-keyboard-response","146","439479","0.0-8.0-0.59","5b0569619d397e00019167e4","condB","","<div class=""vertical-center"" style='width:60%;'><p style='font-weight:bold;'>Does the middle word sound more like the first word (A) or the last word (B)?</p> <br> <div class=""container""> <div id=""a-box""> <p class=""title-text"">A</h3></p> </div> <div id=""x-box""> <p class=""title-text"">X<p> </div> <div id=""b-box""> <p class=""title-text"">B</p></div> <br> <div style='float: left;padding-left:30px;'><p>Press '1' for A</p></div><div style='float: right;padding-right:30px;'><p>Press '0' for B</p> </div> </div></div>","null","","","","","","","","","","","","","",""
"3100","","test","audio-keyboard-response","147","442578","0.0-8.0-1.59","5b0569619d397e00019167e4","condB","","resources/audio/wordStim/S9_AI_23_bxa_Step-10.wav","49","","","","","AI","resources/audio/wordStim/S9_AI_23_bxa_Step-10.wav","S9","23","bxa","10","CN","1","1","true"
"null","","fixation","html-keyboard-response","148","443581","0.0-8.0-0.60","5b0569619d397e00019167e4","condB","","<div class=""vertical-center"" style='width:60%;'><p style='font-weight:bold;'>Does the middle word sound more like the first word (A) or the last word (B)?</p> <br> <div class=""container""> <div id=""a-box""> <p class=""title-text"">A</h3></p> </div> <div id=""x-box""> <p class=""title-text"">X<p> </div> <div id=""b-box""> <p class=""title-text"">B</p></div> <br> <div style='float: left;padding-left:30px;'><p>Press '1' for A</p></div><div style='float: right;padding-right:30px;'><p>Press '0' for B</p> </div> </div></div>","null","","","","","","","","","","","","","",""
"2902","","test","audio-keyboard-response","149","446487","0.0-8.0-1.60","5b0569619d397e00019167e4","condB","","resources/audio/wordStim/S3_AU_19_axb_Step-4.wav","49","","","","","AU","resources/audio/wordStim/S3_AU_19_axb_Step-4.wav","S3","19","axb","4","MI","0","1","false"
"null","","fixation","html-keyboard-response","150","447491","0.0-8.0-0.61","5b0569619d397e00019167e4","condB","","<div class=""vertical-center"" style='width:60%;'><p style='font-weight:bold;'>Does the middle word sound more like the first word (A) or the last word (B)?</p> <br> <div class=""container""> <div id=""a-box""> <p class=""title-text"">A</h3></p> </div> <div id=""x-box""> <p class=""title-text"">X<p> </div> <div id=""b-box""> <p class=""title-text"">B</p></div> <br> <div style='float: left;padding-left:30px;'><p>Press '1' for A</p></div><div style='float: right;padding-right:30px;'><p>Press '0' for B</p> </div> </div></div>","null","","","","","","","","","","","","","",""
"3390","","test","audio-keyboard-response","151","450889","0.0-8.0-1.61","5b0569619d397e00019167e4","condB","","resources/audio/wordStim/S9_AU_16_bxa_Step-7.wav","49","","","","","AU","resources/audio/wordStim/S9_AU_16_bxa_Step-7.wav","S9","16","bxa","7","CN","1","1","true"
"null","","fixation","html-keyboard-response","152","451891","0.0-8.0-0.62","5b0569619d397e00019167e4","condB","","<div class=""vertical-center"" style='width:60%;'><p style='font-weight:bold;'>Does the middle word sound more like the first word (A) or the last word (B)?</p> <br> <div class=""container""> <div id=""a-box""> <p class=""title-text"">A</h3></p> </div> <div id=""x-box""> <p class=""title-text"">X<p> </div> <div id=""b-box""> <p class=""title-text"">B</p></div> <br> <div style='float: left;padding-left:30px;'><p>Press '1' for A</p></div><div style='float: right;padding-right:30px;'><p>Press '0' for B</p> </div> </div></div>","null","","","","","","","","","","","","","",""
"3059","","test","audio-keyboard-response","153","454949","0.0-8.0-1.62","5b0569619d397e00019167e4","condB","","resources/audio/wordStim/S3_AI_29_axb_Step-8.wav","48","","","","","AI","resources/audio/wordStim/S3_AI_29_axb_Step-8.wav","S3","29","axb","8","MI","0","0","true"
"null","","fixation","html-keyboard-response","154","455950","0.0-8.0-0.63","5b0569619d397e00019167e4","condB","","<div class=""vertical-center"" style='width:60%;'><p style='font-weight:bold;'>Does the middle word sound more like the first word (A) or the last word (B)?</p> <br> <div class=""container""> <div id=""a-box""> <p class=""title-text"">A</h3></p> </div> <div id=""x-box""> <p class=""title-text"">X<p> </div> <div id=""b-box""> <p class=""title-text"">B</p></div> <br> <div style='float: left;padding-left:30px;'><p>Press '1' for A</p></div><div style='float: right;padding-right:30px;'><p>Press '0' for B</p> </div> </div></div>","null","","","","","","","","","","","","","",""
"3111","","test","audio-keyboard-response","155","459066","0.0-8.0-1.63","5b0569619d397e00019167e4","condB","","resources/audio/wordStim/S3_AI_30_axb_Step-4.wav","48","","","","","AI","resources/audio/wordStim/S3_AI_30_axb_Step-4.wav","S3","30","axb","4","MI","0","0","true"
"null","","fixation","html-keyboard-response","156","460066","0.0-8.0-0.64","5b0569619d397e00019167e4","condB","","<div class=""vertical-center"" style='width:60%;'><p style='font-weight:bold;'>Does the middle word sound more like the first word (A) or the last word (B)?</p> <br> <div class=""container""> <div id=""a-box""> <p class=""title-text"">A</h3></p> </div> <div id=""x-box""> <p class=""title-text"">X<p> </div> <div id=""b-box""> <p class=""title-text"">B</p></div> <br> <div style='float: left;padding-left:30px;'><p>Press '1' for A</p></div><div style='float: right;padding-right:30px;'><p>Press '0' for B</p> </div> </div></div>","null","","","","","","","","","","","","","",""
"3172","","test","audio-keyboard-response","157","463235","0.0-8.0-1.64","5b0569619d397e00019167e4","condB","","resources/audio/wordStim/S9_AU_11_bxa_Step-7.wav","49","","","","","AU","resources/audio/wordStim/S9_AU_11_bxa_Step-7.wav","S9","11","bxa","7","CN","1","1","true"
"null","","fixation","html-keyboard-response","158","464237","0.0-8.0-0.65","5b0569619d397e00019167e4","condB","","<div class=""vertical-center"" style='width:60%;'><p style='font-weight:bold;'>Does the middle word sound more like the first word (A) or the last word (B)?</p> <br> <div class=""container""> <div id=""a-box""> <p class=""title-text"">A</h3></p> </div> <div id=""x-box""> <p class=""title-text"">X<p> </div> <div id=""b-box""> <p class=""title-text"">B</p></div> <br> <div style='float: left;padding-left:30px;'><p>Press '1' for A</p></div><div style='float: right;padding-right:30px;'><p>Press '0' for B</p> </div> </div></div>","null","","","","","","","","","","","","","",""
"2380","","test","audio-keyboard-response","159","466615","0.0-8.0-1.65","5b0569619d397e00019167e4","condB","","resources/audio/wordStim/S3_AI_25_axb_Step-4.wav","48","","","","","AI","resources/audio/wordStim/S3_AI_25_axb_Step-4.wav","S3","25","axb","4","MI","0","0","true"
"null","","fixation","html-keyboard-response","160","467617","0.0-8.0-0.66","5b0569619d397e00019167e4","condB","","<div class=""vertical-center"" style='width:60%;'><p style='font-weight:bold;'>Does the middle word sound more like the first word (A) or the last word (B)?</p> <br> <div class=""container""> <div id=""a-box""> <p class=""title-text"">A</h3></p> </div> <div id=""x-box""> <p class=""title-text"">X<p> </div> <div id=""b-box""> <p class=""title-text"">B</p></div> <br> <div style='float: left;padding-left:30px;'><p>Press '1' for A</p></div><div style='float: right;padding-right:30px;'><p>Press '0' for B</p> </div> </div></div>","null","","","","","","","","","","","","","",""
"2609","","test","audio-keyboard-response","161","470220","0.0-8.0-1.66","5b0569619d397e00019167e4","condB","","resources/audio/wordStim/S3_AU_15_axb_Step-6.wav","49","","","","","AU","resources/audio/wordStim/S3_AU_15_axb_Step-6.wav","S3","15","axb","6","MI","0","1","false"
"null","","fixation","html-keyboard-response","162","471222","0.0-8.0-0.67","5b0569619d397e00019167e4","condB","","<div class=""vertical-center"" style='width:60%;'><p style='font-weight:bold;'>Does the middle word sound more like the first word (A) or the last word (B)?</p> <br> <div class=""container""> <div id=""a-box""> <p class=""title-text"">A</h3></p> </div> <div id=""x-box""> <p class=""title-text"">X<p> </div> <div id=""b-box""> <p class=""title-text"">B</p></div> <br> <div style='float: left;padding-left:30px;'><p>Press '1' for A</p></div><div style='float: right;padding-right:30px;'><p>Press '0' for B</p> </div> </div></div>","null","","","","","","","","","","","","","",""
"2972","","test","audio-keyboard-response","163","474189","0.0-8.0-1.67","5b0569619d397e00019167e4","condB","","resources/audio/wordStim/S9_AU_14_bxa_Step-5.wav","49","","","","","AU","resources/audio/wordStim/S9_AU_14_bxa_Step-5.wav","S9","14","bxa","5","CN","1","1","true"
"null","","fixation","html-keyboard-response","164","475192","0.0-8.0-0.68","5b0569619d397e00019167e4","condB","","<div class=""vertical-center"" style='width:60%;'><p style='font-weight:bold;'>Does the middle word sound more like the first word (A) or the last word (B)?</p> <br> <div class=""container""> <div id=""a-box""> <p class=""title-text"">A</h3></p> </div> <div id=""x-box""> <p class=""title-text"">X<p> </div> <div id=""b-box""> <p class=""title-text"">B</p></div> <br> <div style='float: left;padding-left:30px;'><p>Press '1' for A</p></div><div style='float: right;padding-right:30px;'><p>Press '0' for B</p> </div> </div></div>","null","","","","","","","","","","","","","",""
"2920","","test","audio-keyboard-response","165","478117","0.0-8.0-1.68","5b0569619d397e00019167e4","condB","","resources/audio/wordStim/S9_AU_14_axb_Step-2.wav","49","","","","","AU","resources/audio/wordStim/S9_AU_14_axb_Step-2.wav","S9","14","axb","2","CN","0","1","false"
"null","","fixation","html-keyboard-response","166","479120","0.0-8.0-0.69","5b0569619d397e00019167e4","condB","","<div class=""vertical-center"" style='width:60%;'><p style='font-weight:bold;'>Does the middle word sound more like the first word (A) or the last word (B)?</p> <br> <div class=""container""> <div id=""a-box""> <p class=""title-text"">A</h3></p> </div> <div id=""x-box""> <p class=""title-text"">X<p> </div> <div id=""b-box""> <p class=""title-text"">B</p></div> <br> <div style='float: left;padding-left:30px;'><p>Press '1' for A</p></div><div style='float: right;padding-right:30px;'><p>Press '0' for B</p> </div> </div></div>","null","","","","","","","","","","","","","",""
"2769","","test","audio-keyboard-response","167","481895","0.0-8.0-1.69","5b0569619d397e00019167e4","condB","","resources/audio/wordStim/S9_AU_20_axb_Step-2.wav","49","","","","","AU","resources/audio/wordStim/S9_AU_20_axb_Step-2.wav","S9","20","axb","2","CN","0","1","false"
"null","","fixation","html-keyboard-response","168","482898","0.0-8.0-0.70","5b0569619d397e00019167e4","condB","","<div class=""vertical-center"" style='width:60%;'><p style='font-weight:bold;'>Does the middle word sound more like the first word (A) or the last word (B)?</p> <br> <div class=""container""> <div id=""a-box""> <p class=""title-text"">A</h3></p> </div> <div id=""x-box""> <p class=""title-text"">X<p> </div> <div id=""b-box""> <p class=""title-text"">B</p></div> <br> <div style='float: left;padding-left:30px;'><p>Press '1' for A</p></div><div style='float: right;padding-right:30px;'><p>Press '0' for B</p> </div> </div></div>","null","","","","","","","","","","","","","",""
"3071","","test","audio-keyboard-response","169","485960","0.0-8.0-1.70","5b0569619d397e00019167e4","condB","","resources/audio/wordStim/S3_AU_20_axb_Step-6.wav","48","","","","","AU","resources/audio/wordStim/S3_AU_20_axb_Step-6.wav","S3","20","axb","6","MI","0","0","true"
"null","","fixation","html-keyboard-response","170","486962","0.0-8.0-0.71","5b0569619d397e00019167e4","condB","","<div class=""vertical-center"" style='width:60%;'><p style='font-weight:bold;'>Does the middle word sound more like the first word (A) or the last word (B)?</p> <br> <div class=""container""> <div id=""a-box""> <p class=""title-text"">A</h3></p> </div> <div id=""x-box""> <p class=""title-text"">X<p> </div> <div id=""b-box""> <p class=""title-text"">B</p></div> <br> <div style='float: left;padding-left:30px;'><p>Press '1' for A</p></div><div style='float: right;padding-right:30px;'><p>Press '0' for B</p> </div> </div></div>","null","","","","","","","","","","","","","",""
"2789","","test","audio-keyboard-response","171","489752","0.0-8.0-1.71","5b0569619d397e00019167e4","condB","","resources/audio/wordStim/S3_AU_19_bxa_Step-9.wav","49","","","","","AU","resources/audio/wordStim/S3_AU_19_bxa_Step-9.wav","S3","19","bxa","9","MI","1","1","true"
"null","","fixation","html-keyboard-response","172","490756","0.0-8.0-0.72","5b0569619d397e00019167e4","condB","","<div class=""vertical-center"" style='width:60%;'><p style='font-weight:bold;'>Does the middle word sound more like the first word (A) or the last word (B)?</p> <br> <div class=""container""> <div id=""a-box""> <p class=""title-text"">A</h3></p> </div> <div id=""x-box""> <p class=""title-text"">X<p> </div> <div id=""b-box""> <p class=""title-text"">B</p></div> <br> <div style='float: left;padding-left:30px;'><p>Press '1' for A</p></div><div style='float: right;padding-right:30px;'><p>Press '0' for B</p> </div> </div></div>","null","","","","","","","","","","","","","",""
"3541","","test","audio-keyboard-response","173","494289","0.0-8.0-1.72","5b0569619d397e00019167e4","condB","","resources/audio/wordStim/S3_AU_18_bxa_Step-5.wav","49","","","","","AU","resources/audio/wordStim/S3_AU_18_bxa_Step-5.wav","S3","18","bxa","5","MI","1","1","true"
"null","","fixation","html-keyboard-response","174","495292","0.0-8.0-0.73","5b0569619d397e00019167e4","condB","","<div class=""vertical-center"" style='width:60%;'><p style='font-weight:bold;'>Does the middle word sound more like the first word (A) or the last word (B)?</p> <br> <div class=""container""> <div id=""a-box""> <p class=""title-text"">A</h3></p> </div> <div id=""x-box""> <p class=""title-text"">X<p> </div> <div id=""b-box""> <p class=""title-text"">B</p></div> <br> <div style='float: left;padding-left:30px;'><p>Press '1' for A</p></div><div style='float: right;padding-right:30px;'><p>Press '0' for B</p> </div> </div></div>","null","","","","","","","","","","","","","",""
"3210","","test","audio-keyboard-response","175","498503","0.0-8.0-1.73","5b0569619d397e00019167e4","condB","","resources/audio/wordStim/S9_AI_30_axb_Step-6.wav","49","","","","","AI","resources/audio/wordStim/S9_AI_30_axb_Step-6.wav","S9","30","axb","6","CN","0","1","false"
"null","","fixation","html-keyboard-response","176","499504","0.0-8.0-0.74","5b0569619d397e00019167e4","condB","","<div class=""vertical-center"" style='width:60%;'><p style='font-weight:bold;'>Does the middle word sound more like the first word (A) or the last word (B)?</p> <br> <div class=""container""> <div id=""a-box""> <p class=""title-text"">A</h3></p> </div> <div id=""x-box""> <p class=""title-text"">X<p> </div> <div id=""b-box""> <p class=""title-text"">B</p></div> <br> <div style='float: left;padding-left:30px;'><p>Press '1' for A</p></div><div style='float: right;padding-right:30px;'><p>Press '0' for B</p> </div> </div></div>","null","","","","","","","","","","","","","",""
"3019","","test","audio-keyboard-response","177","502524","0.0-8.0-1.74","5b0569619d397e00019167e4","condB","","resources/audio/wordStim/S3_AI_29_axb_Step-2.wav","48","","","","","AI","resources/audio/wordStim/S3_AI_29_axb_Step-2.wav","S3","29","axb","2","MI","0","0","true"
"null","","fixation","html-keyboard-response","178","503527","0.0-8.0-0.75","5b0569619d397e00019167e4","condB","","<div class=""vertical-center"" style='width:60%;'><p style='font-weight:bold;'>Does the middle word sound more like the first word (A) or the last word (B)?</p> <br> <div class=""container""> <div id=""a-box""> <p class=""title-text"">A</h3></p> </div> <div id=""x-box""> <p class=""title-text"">X<p> </div> <div id=""b-box""> <p class=""title-text"">B</p></div> <br> <div style='float: left;padding-left:30px;'><p>Press '1' for A</p></div><div style='float: right;padding-right:30px;'><p>Press '0' for B</p> </div> </div></div>","null","","","","","","","","","","","","","",""
"2839","","test","audio-keyboard-response","179","506368","0.0-8.0-1.75","5b0569619d397e00019167e4","condB","","resources/audio/wordStim/S3_AI_23_axb_Step-4.wav","48","","","","","AI","resources/audio/wordStim/S3_AI_23_axb_Step-4.wav","S3","23","axb","4","MI","0","0","true"
"null","","fixation","html-keyboard-response","180","507369","0.0-8.0-0.76","5b0569619d397e00019167e4","condB","","<div class=""vertical-center"" style='width:60%;'><p style='font-weight:bold;'>Does the middle word sound more like the first word (A) or the last word (B)?</p> <br> <div class=""container""> <div id=""a-box""> <p class=""title-text"">A</h3></p> </div> <div id=""x-box""> <p class=""title-text"">X<p> </div> <div id=""b-box""> <p class=""title-text"">B</p></div> <br> <div style='float: left;padding-left:30px;'><p>Press '1' for A</p></div><div style='float: right;padding-right:30px;'><p>Press '0' for B</p> </div> </div></div>","null","","","","","","","","","","","","","",""
"3051","","test","audio-keyboard-response","181","510421","0.0-8.0-1.76","5b0569619d397e00019167e4","condB","","resources/audio/wordStim/S3_AI_22_bxa_Step-10.wav","49","","","","","AI","resources/audio/wordStim/S3_AI_22_bxa_Step-10.wav","S3","22","bxa","10","MI","1","1","true"
"null","","fixation","html-keyboard-response","182","511424","0.0-8.0-0.77","5b0569619d397e00019167e4","condB","","<div class=""vertical-center"" style='width:60%;'><p style='font-weight:bold;'>Does the middle word sound more like the first word (A) or the last word (B)?</p> <br> <div class=""container""> <div id=""a-box""> <p class=""title-text"">A</h3></p> </div> <div id=""x-box""> <p class=""title-text"">X<p> </div> <div id=""b-box""> <p class=""title-text"">B</p></div> <br> <div style='float: left;padding-left:30px;'><p>Press '1' for A</p></div><div style='float: right;padding-right:30px;'><p>Press '0' for B</p> </div> </div></div>","null","","","","","","","","","","","","","",""
"3091","","test","audio-keyboard-response","183","514510","0.0-8.0-1.77","5b0569619d397e00019167e4","condB","","resources/audio/wordStim/S9_AU_19_axb_Step-6.wav","48","","","","","AU","resources/audio/wordStim/S9_AU_19_axb_Step-6.wav","S9","19","axb","6","CN","0","0","true"
"null","","fixation","html-keyboard-response","184","515513","0.0-8.0-0.78","5b0569619d397e00019167e4","condB","","<div class=""vertical-center"" style='width:60%;'><p style='font-weight:bold;'>Does the middle word sound more like the first word (A) or the last word (B)?</p> <br> <div class=""container""> <div id=""a-box""> <p class=""title-text"">A</h3></p> </div> <div id=""x-box""> <p class=""title-text"">X<p> </div> <div id=""b-box""> <p class=""title-text"">B</p></div> <br> <div style='float: left;padding-left:30px;'><p>Press '1' for A</p></div><div style='float: right;padding-right:30px;'><p>Press '0' for B</p> </div> </div></div>","null","","","","","","","","","","","","","",""
"3178","","test","audio-keyboard-response","185","518694","0.0-8.0-1.78","5b0569619d397e00019167e4","condB","","resources/audio/wordStim/S9_AU_18_axb_Step-6.wav","49","","","","","AU","resources/audio/wordStim/S9_AU_18_axb_Step-6.wav","S9","18","axb","6","CN","0","1","false"
"null","","fixation","html-keyboard-response","186","519697","0.0-8.0-0.79","5b0569619d397e00019167e4","condB","","<div class=""vertical-center"" style='width:60%;'><p style='font-weight:bold;'>Does the middle word sound more like the first word (A) or the last word (B)?</p> <br> <div class=""container""> <div id=""a-box""> <p class=""title-text"">A</h3></p> </div> <div id=""x-box""> <p class=""title-text"">X<p> </div> <div id=""b-box""> <p class=""title-text"">B</p></div> <br> <div style='float: left;padding-left:30px;'><p>Press '1' for A</p></div><div style='float: right;padding-right:30px;'><p>Press '0' for B</p> </div> </div></div>","null","","","","","","","","","","","","","",""
"2978","","test","audio-keyboard-response","187","522676","0.0-8.0-1.79","5b0569619d397e00019167e4","condB","","resources/audio/wordStim/S3_AI_22_bxa_Step-5.wav","48","","","","","AI","resources/audio/wordStim/S3_AI_22_bxa_Step-5.wav","S3","22","bxa","5","MI","1","0","false"
"null","","fixation","html-keyboard-response","188","523679","0.0-8.0-0.80","5b0569619d397e00019167e4","condB","","<div class=""vertical-center"" style='width:60%;'><p style='font-weight:bold;'>Does the middle word sound more like the first word (A) or the last word (B)?</p> <br> <div class=""container""> <div id=""a-box""> <p class=""title-text"">A</h3></p> </div> <div id=""x-box""> <p class=""title-text"">X<p> </div> <div id=""b-box""> <p class=""title-text"">B</p></div> <br> <div style='float: left;padding-left:30px;'><p>Press '1' for A</p></div><div style='float: right;padding-right:30px;'><p>Press '0' for B</p> </div> </div></div>","null","","","","","","","","","","","","","",""
"3332","","test","audio-keyboard-response","189","527017","0.0-8.0-1.80","5b0569619d397e00019167e4","condB","","resources/audio/wordStim/S9_AI_24_axb_Step-8.wav","48","","","","","AI","resources/audio/wordStim/S9_AI_24_axb_Step-8.wav","S9","24","axb","8","CN","0","0","true"
"1360","","break","html-keyboard-response","190","528877","0.0-8.0-2.80-0.80","5b0569619d397e00019167e4","condB","","<div class=""vertical-center""><p>Feel free to take a break!</p><i>When you're ready to continue, press SPACE to begin the next trial.</i></p></div>","32","","","","","","","","","","","","","",""
"null","","fixation","html-keyboard-response","191","529378","0.0-8.0-0.81","5b0569619d397e00019167e4","condB","","<div class=""vertical-center"" style='width:60%;'><p style='font-weight:bold;'>Does the middle word sound more like the first word (A) or the last word (B)?</p> <br> <div class=""container""> <div id=""a-box""> <p class=""title-text"">A</h3></p> </div> <div id=""x-box""> <p class=""title-text"">X<p> </div> <div id=""b-box""> <p class=""title-text"">B</p></div> <br> <div style='float: left;padding-left:30px;'><p>Press '1' for A</p></div><div style='float: right;padding-right:30px;'><p>Press '0' for B</p> </div> </div></div>","null","","","","","","","","","","","","","",""
"2981","","test","audio-keyboard-response","192","532353","0.0-8.0-1.81","5b0569619d397e00019167e4","condB","","resources/audio/wordStim/S3_AU_11_axb_Step-2.wav","49","","","","","AU","resources/audio/wordStim/S3_AU_11_axb_Step-2.wav","S3","11","axb","2","MI","0","1","false"
"null","","fixation","html-keyboard-response","193","533356","0.0-8.0-0.82","5b0569619d397e00019167e4","condB","","<div class=""vertical-center"" style='width:60%;'><p style='font-weight:bold;'>Does the middle word sound more like the first word (A) or the last word (B)?</p> <br> <div class=""container""> <div id=""a-box""> <p class=""title-text"">A</h3></p> </div> <div id=""x-box""> <p class=""title-text"">X<p> </div> <div id=""b-box""> <p class=""title-text"">B</p></div> <br> <div style='float: left;padding-left:30px;'><p>Press '1' for A</p></div><div style='float: right;padding-right:30px;'><p>Press '0' for B</p> </div> </div></div>","null","","","","","","","","","","","","","",""
"2911","","test","audio-keyboard-response","194","536267","0.0-8.0-1.82","5b0569619d397e00019167e4","condB","","resources/audio/wordStim/S9_AI_23_axb_Step-6.wav","49","","","","","AI","resources/audio/wordStim/S9_AI_23_axb_Step-6.wav","S9","23","axb","6","CN","0","1","false"
"null","","fixation","html-keyboard-response","195","537270","0.0-8.0-0.83","5b0569619d397e00019167e4","condB","","<div class=""vertical-center"" style='width:60%;'><p style='font-weight:bold;'>Does the middle word sound more like the first word (A) or the last word (B)?</p> <br> <div class=""container""> <div id=""a-box""> <p class=""title-text"">A</h3></p> </div> <div id=""x-box""> <p class=""title-text"">X<p> </div> <div id=""b-box""> <p class=""title-text"">B</p></div> <br> <div style='float: left;padding-left:30px;'><p>Press '1' for A</p></div><div style='float: right;padding-right:30px;'><p>Press '0' for B</p> </div> </div></div>","null","","","","","","","","","","","","","",""
"2850","","test","audio-keyboard-response","196","540124","0.0-8.0-1.83","5b0569619d397e00019167e4","condB","","resources/audio/wordStim/S3_AI_28_bxa_Step-10.wav","49","","","","","AI","resources/audio/wordStim/S3_AI_28_bxa_Step-10.wav","S3","28","bxa","10","MI","1","1","true"
"null","","fixation","html-keyboard-response","197","541127","0.0-8.0-0.84","5b0569619d397e00019167e4","condB","","<div class=""vertical-center"" style='width:60%;'><p style='font-weight:bold;'>Does the middle word sound more like the first word (A) or the last word (B)?</p> <br> <div class=""container""> <div id=""a-box""> <p class=""title-text"">A</h3></p> </div> <div id=""x-box""> <p class=""title-text"">X<p> </div> <div id=""b-box""> <p class=""title-text"">B</p></div> <br> <div style='float: left;padding-left:30px;'><p>Press '1' for A</p></div><div style='float: right;padding-right:30px;'><p>Press '0' for B</p> </div> </div></div>","null","","","","","","","","","","","","","",""
"2830","","test","audio-keyboard-response","198","543953","0.0-8.0-1.84","5b0569619d397e00019167e4","condB","","resources/audio/wordStim/S9_AU_13_axb_Step-2.wav","49","","","","","AU","resources/audio/wordStim/S9_AU_13_axb_Step-2.wav","S9","13","axb","2","CN","0","1","false"
"null","","fixation","html-keyboard-response","199","544956","0.0-8.0-0.85","5b0569619d397e00019167e4","condB","","<div class=""vertical-center"" style='width:60%;'><p style='font-weight:bold;'>Does the middle word sound more like the first word (A) or the last word (B)?</p> <br> <div class=""container""> <div id=""a-box""> <p class=""title-text"">A</h3></p> </div> <div id=""x-box""> <p class=""title-text"">X<p> </div> <div id=""b-box""> <p class=""title-text"">B</p></div> <br> <div style='float: left;padding-left:30px;'><p>Press '1' for A</p></div><div style='float: right;padding-right:30px;'><p>Press '0' for B</p> </div> </div></div>","null","","","","","","","","","","","","","",""
"2609","","test","audio-keyboard-response","200","547562","0.0-8.0-1.85","5b0569619d397e00019167e4","condB","","resources/audio/wordStim/S3_AU_19_bxa_Step-3.wav","48","","","","","AU","resources/audio/wordStim/S3_AU_19_bxa_Step-3.wav","S3","19","bxa","3","MI","1","0","false"
"null","","fixation","html-keyboard-response","201","548565","0.0-8.0-0.86","5b0569619d397e00019167e4","condB","","<div class=""vertical-center"" style='width:60%;'><p style='font-weight:bold;'>Does the middle word sound more like the first word (A) or the last word (B)?</p> <br> <div class=""container""> <div id=""a-box""> <p class=""title-text"">A</h3></p> </div> <div id=""x-box""> <p class=""title-text"">X<p> </div> <div id=""b-box""> <p class=""title-text"">B</p></div> <br> <div style='float: left;padding-left:30px;'><p>Press '1' for A</p></div><div style='float: right;padding-right:30px;'><p>Press '0' for B</p> </div> </div></div>","null","","","","","","","","","","","","","",""
"3541","","test","audio-keyboard-response","202","552106","0.0-8.0-1.86","5b0569619d397e00019167e4","condB","","resources/audio/wordStim/S9_AI_22_axb_Step-6.wav","48","","","","","AI","resources/audio/wordStim/S9_AI_22_axb_Step-6.wav","S9","22","axb","6","CN","0","0","true"
"null","","fixation","html-keyboard-response","203","553109","0.0-8.0-0.87","5b0569619d397e00019167e4","condB","","<div class=""vertical-center"" style='width:60%;'><p style='font-weight:bold;'>Does the middle word sound more like the first word (A) or the last word (B)?</p> <br> <div class=""container""> <div id=""a-box""> <p class=""title-text"">A</h3></p> </div> <div id=""x-box""> <p class=""title-text"">X<p> </div> <div id=""b-box""> <p class=""title-text"">B</p></div> <br> <div style='float: left;padding-left:30px;'><p>Press '1' for A</p></div><div style='float: right;padding-right:30px;'><p>Press '0' for B</p> </div> </div></div>","null","","","","","","","","","","","","","",""
"3199","","test","audio-keyboard-response","204","556300","0.0-8.0-1.87","5b0569619d397e00019167e4","condB","","resources/audio/wordStim/S9_AI_24_bxa_Step-3.wav","48","","","","","AI","resources/audio/wordStim/S9_AI_24_bxa_Step-3.wav","S9","24","bxa","3","CN","1","0","false"
"null","","fixation","html-keyboard-response","205","557301","0.0-8.0-0.88","5b0569619d397e00019167e4","condB","","<div class=""vertical-center"" style='width:60%;'><p style='font-weight:bold;'>Does the middle word sound more like the first word (A) or the last word (B)?</p> <br> <div class=""container""> <div id=""a-box""> <p class=""title-text"">A</h3></p> </div> <div id=""x-box""> <p class=""title-text"">X<p> </div> <div id=""b-box""> <p class=""title-text"">B</p></div> <br> <div style='float: left;padding-left:30px;'><p>Press '1' for A</p></div><div style='float: right;padding-right:30px;'><p>Press '0' for B</p> </div> </div></div>","null","","","","","","","","","","","","","",""
"2789","","test","audio-keyboard-response","206","560096","0.0-8.0-1.88","5b0569619d397e00019167e4","condB","","resources/audio/wordStim/S3_AU_14_axb_Step-6.wav","49","","","","","AU","resources/audio/wordStim/S3_AU_14_axb_Step-6.wav","S3","14","axb","6","MI","0","1","false"
"null","","fixation","html-keyboard-response","207","561099","0.0-8.0-0.89","5b0569619d397e00019167e4","condB","","<div class=""vertical-center"" style='width:60%;'><p style='font-weight:bold;'>Does the middle word sound more like the first word (A) or the last word (B)?</p> <br> <div class=""container""> <div id=""a-box""> <p class=""title-text"">A</h3></p> </div> <div id=""x-box""> <p class=""title-text"">X<p> </div> <div id=""b-box""> <p class=""title-text"">B</p></div> <br> <div style='float: left;padding-left:30px;'><p>Press '1' for A</p></div><div style='float: right;padding-right:30px;'><p>Press '0' for B</p> </div> </div></div>","null","","","","","","","","","","","","","",""
"3062","","test","audio-keyboard-response","208","564154","0.0-8.0-1.89","5b0569619d397e00019167e4","condB","","resources/audio/wordStim/S9_AI_27_axb_Step-2.wav","49","","","","","AI","resources/audio/wordStim/S9_AI_27_axb_Step-2.wav","S9","27","axb","2","CN","0","1","false"
"null","","fixation","html-keyboard-response","209","565157","0.0-8.0-0.90","5b0569619d397e00019167e4","condB","","<div class=""vertical-center"" style='width:60%;'><p style='font-weight:bold;'>Does the middle word sound more like the first word (A) or the last word (B)?</p> <br> <div class=""container""> <div id=""a-box""> <p class=""title-text"">A</h3></p> </div> <div id=""x-box""> <p class=""title-text"">X<p> </div> <div id=""b-box""> <p class=""title-text"">B</p></div> <br> <div style='float: left;padding-left:30px;'><p>Press '1' for A</p></div><div style='float: right;padding-right:30px;'><p>Press '0' for B</p> </div> </div></div>","null","","","","","","","","","","","","","",""
"3271","","test","audio-keyboard-response","210","568423","0.0-8.0-1.90","5b0569619d397e00019167e4","condB","","resources/audio/wordStim/S3_AI_22_bxa_Step-9.wav","49","","","","","AI","resources/audio/wordStim/S3_AI_22_bxa_Step-9.wav","S3","22","bxa","9","MI","1","1","true"
"null","","fixation","html-keyboard-response","211","569425","0.0-8.0-0.91","5b0569619d397e00019167e4","condB","","<div class=""vertical-center"" style='width:60%;'><p style='font-weight:bold;'>Does the middle word sound more like the first word (A) or the last word (B)?</p> <br> <div class=""container""> <div id=""a-box""> <p class=""title-text"">A</h3></p> </div> <div id=""x-box""> <p class=""title-text"">X<p> </div> <div id=""b-box""> <p class=""title-text"">B</p></div> <br> <div style='float: left;padding-left:30px;'><p>Press '1' for A</p></div><div style='float: right;padding-right:30px;'><p>Press '0' for B</p> </div> </div></div>","null","","","","","","","","","","","","","",""
"2380","","test","audio-keyboard-response","212","571803","0.0-8.0-1.91","5b0569619d397e00019167e4","condB","","resources/audio/wordStim/S3_AI_21_axb_Step-2.wav","49","","","","","AI","resources/audio/wordStim/S3_AI_21_axb_Step-2.wav","S3","21","axb","2","MI","0","1","false"
"null","","fixation","html-keyboard-response","213","572805","0.0-8.0-0.92","5b0569619d397e00019167e4","condB","","<div class=""vertical-center"" style='width:60%;'><p style='font-weight:bold;'>Does the middle word sound more like the first word (A) or the last word (B)?</p> <br> <div class=""container""> <div id=""a-box""> <p class=""title-text"">A</h3></p> </div> <div id=""x-box""> <p class=""title-text"">X<p> </div> <div id=""b-box""> <p class=""title-text"">B</p></div> <br> <div style='float: left;padding-left:30px;'><p>Press '1' for A</p></div><div style='float: right;padding-right:30px;'><p>Press '0' for B</p> </div> </div></div>","null","","","","","","","","","","","","","",""
"3010","","test","audio-keyboard-response","214","575812","0.0-8.0-1.92","5b0569619d397e00019167e4","condB","","resources/audio/wordStim/S3_AI_29_bxa_Step-10.wav","49","","","","","AI","resources/audio/wordStim/S3_AI_29_bxa_Step-10.wav","S3","29","bxa","10","MI","1","1","true"
"null","","fixation","html-keyboard-response","215","576816","0.0-8.0-0.93","5b0569619d397e00019167e4","condB","","<div class=""vertical-center"" style='width:60%;'><p style='font-weight:bold;'>Does the middle word sound more like the first word (A) or the last word (B)?</p> <br> <div class=""container""> <div id=""a-box""> <p class=""title-text"">A</h3></p> </div> <div id=""x-box""> <p class=""title-text"">X<p> </div> <div id=""b-box""> <p class=""title-text"">B</p></div> <br> <div style='float: left;padding-left:30px;'><p>Press '1' for A</p></div><div style='float: right;padding-right:30px;'><p>Press '0' for B</p> </div> </div></div>","null","","","","","","","","","","","","","",""
