"rt","url","trial_role","trial_type","trial_index","time_elapsed","internal_node_id","participantId","condition","view_history","stimulus","key_press","button_pressed","correct_answer","correct_response","success","vowel","wordStim","speaker","sentNum","order","step","speakerIdentity","raised_answer","key_response","raised_response"
"1809362.5050000846","micr.con.consent.html","consent","external-html","0","1809434","0.0-0.0","5ceb685da7afdc00166f8391","condB","","","","","","","","","","","","","","","","",""
"232186.73999980092","","instructions","instructions","1","2041632","0.0-1.0","5ceb685da7afdc00166f8391","condB","[{""page_index"":0,""viewing_time"":26091.544999741018},{""page_index"":1,""viewing_time"":176770.86000004783},{""page_index"":2,""viewing_time"":29321.715000085533}]","","","","","","","","","","","","","","","",""
"null","","fixation","html-keyboard-response","2","2042148","0.0-2.0-0.0","5ceb685da7afdc00166f8391","condB","","<div class=""vertical-center"" style=""font-size:60px;"">+</div>","null","","","","","","","","","","","","","",""
"19702.609999570996","","tonetest","audio-button-response","3","2061868","0.0-2.0-1.0","5ceb685da7afdc00166f8391","condB","","../../src/audio/toneTest_1.wav","","2","2","true","","","","","","","","","","",""
"null","","fixation","html-keyboard-response","4","2062375","0.0-2.0-0.1","5ceb685da7afdc00166f8391","condB","","<div class=""vertical-center"" style=""font-size:60px;"">+</div>","null","","","","","","","","","","","","","",""
"11385.560000315309","","tonetest","audio-button-response","5","2073763","0.0-2.0-1.1","5ceb685da7afdc00166f8391","condB","","../../src/audio/toneTest_6.wav","","0","0","true","","","","","","","","","","",""
"null","","fixation","html-keyboard-response","6","2074266","0.0-2.0-0.2","5ceb685da7afdc00166f8391","condB","","<div class=""vertical-center"" style=""font-size:60px;"">+</div>","null","","","","","","","","","","","","","",""
"12514.125000219792","","tonetest","audio-button-response","7","2086785","0.0-2.0-1.2","5ceb685da7afdc00166f8391","condB","","../../src/audio/toneTest_5.wav","","0","0","true","","","","","","","","","","",""
"null","","fixation","html-keyboard-response","8","2087289","0.0-2.0-0.3","5ceb685da7afdc00166f8391","condB","","<div class=""vertical-center"" style=""font-size:60px;"">+</div>","null","","","","","","","","","","","","","",""
"5580.275000073016","","tonetest","audio-button-response","9","2092871","0.0-2.0-1.3","5ceb685da7afdc00166f8391","condB","","../../src/audio/toneTest_5.wav","","0","0","true","","","","","","","","","","",""
"null","","fixation","html-keyboard-response","10","2093374","0.0-2.0-0.4","5ceb685da7afdc00166f8391","condB","","<div class=""vertical-center"" style=""font-size:60px;"">+</div>","null","","","","","","","","","","","","","",""
"5963.339999783784","","tonetest","audio-button-response","11","2099346","0.0-2.0-1.4","5ceb685da7afdc00166f8391","condB","","../../src/audio/toneTest_4.wav","","0","1","false","","","","","","","","","","",""
"null","","fixation","html-keyboard-response","12","2099849","0.0-2.0-0.5","5ceb685da7afdc00166f8391","condB","","<div class=""vertical-center"" style=""font-size:60px;"">+</div>","null","","","","","","","","","","","","","",""
"3778.080000076443","","tonetest","audio-button-response","13","2103629","0.0-2.0-1.5","5ceb685da7afdc00166f8391","condB","","../../src/audio/toneTest_5.wav","","0","0","true","","","","","","","","","","",""
"229663.9950000681","","instructions","html-keyboard-response","14","2333296","0.0-3.0","5ceb685da7afdc00166f8391","condB","","<div class=""vertical-center""><p><b>Your score was 5/6.</b></p><p>If you scored below 6, please ensure that you are wearing headphones and in a quiet location free of distractions.</p><p><i>To continue to the main experiment, press SPACE.</i></p></div>","32","","","","","","","","","","","","","",""
"","","","fullscreen","15","2338497","0.0-4.0","5ceb685da7afdc00166f8391","condB","","","","","","","true","","","","","","","","","",""
"47331.49000024423","","instructions","instructions","16","2385830","0.0-5.0","5ceb685da7afdc00166f8391","condB","[{""page_index"":0,""viewing_time"":47331.18999982253}]","","","","","","","","","","","","","","","",""
"null","","fixation","html-keyboard-response","17","2386332","0.0-6.0-0.0","5ceb685da7afdc00166f8391","condB","","<div class=""vertical-center"" style='width:60%;'><p style='font-weight:bold;'>Does the middle word sound more like the first word (A) or the last word (B)?</p> <br> <div class=""container""> <div id=""a-box""> <p class=""title-text"">A</h3></p> </div> <div id=""x-box""> <p class=""title-text"">X<p> </div> <div id=""b-box""> <p class=""title-text"">B</p></div> <br> <div style='float: left;padding-left:30px;'><p>Press '1' for A</p></div><div style='float: right;padding-right:30px;'><p>Press '0' for B</p> </div> </div></div>","null","","","","","","","","","","","","","",""
"3451","","practice","audio-keyboard-response","18","2389765","0.0-6.0-1.0","5ceb685da7afdc00166f8391","condB","","resources/audio/practiceStim/S1_AU_14_axb_Step-6.wav","49","","","","","","","","","","","","","",""
"null","","fixation","html-keyboard-response","19","2390768","0.0-6.0-0.1","5ceb685da7afdc00166f8391","condB","","<div class=""vertical-center"" style='width:60%;'><p style='font-weight:bold;'>Does the middle word sound more like the first word (A) or the last word (B)?</p> <br> <div class=""container""> <div id=""a-box""> <p class=""title-text"">A</h3></p> </div> <div id=""x-box""> <p class=""title-text"">X<p> </div> <div id=""b-box""> <p class=""title-text"">B</p></div> <br> <div style='float: left;padding-left:30px;'><p>Press '1' for A</p></div><div style='float: right;padding-right:30px;'><p>Press '0' for B</p> </div> </div></div>","null","","","","","","","","","","","","","",""
"3349","","practice","audio-keyboard-response","20","2394126","0.0-6.0-1.1","5ceb685da7afdc00166f8391","condB","","resources/audio/practiceStim/S1_AI_21_axb_Step-6.wav","49","","","","","","","","","","","","","",""
"null","","fixation","html-keyboard-response","21","2395128","0.0-6.0-0.2","5ceb685da7afdc00166f8391","condB","","<div class=""vertical-center"" style='width:60%;'><p style='font-weight:bold;'>Does the middle word sound more like the first word (A) or the last word (B)?</p> <br> <div class=""container""> <div id=""a-box""> <p class=""title-text"">A</h3></p> </div> <div id=""x-box""> <p class=""title-text"">X<p> </div> <div id=""b-box""> <p class=""title-text"">B</p></div> <br> <div style='float: left;padding-left:30px;'><p>Press '1' for A</p></div><div style='float: right;padding-right:30px;'><p>Press '0' for B</p> </div> </div></div>","null","","","","","","","","","","","","","",""
"2491","","practice","audio-keyboard-response","22","2397630","0.0-6.0-1.2","5ceb685da7afdc00166f8391","condB","","resources/audio/practiceStim/S1_AU_14_bxa_Step-6.wav","48","","","","","","","","","","","","","",""
"null","","fixation","html-keyboard-response","23","2398632","0.0-6.0-0.3","5ceb685da7afdc00166f8391","condB","","<div class=""vertical-center"" style='width:60%;'><p style='font-weight:bold;'>Does the middle word sound more like the first word (A) or the last word (B)?</p> <br> <div class=""container""> <div id=""a-box""> <p class=""title-text"">A</h3></p> </div> <div id=""x-box""> <p class=""title-text"">X<p> </div> <div id=""b-box""> <p class=""title-text"">B</p></div> <br> <div style='float: left;padding-left:30px;'><p>Press '1' for A</p></div><div style='float: right;padding-right:30px;'><p>Press '0' for B</p> </div> </div></div>","null","","","","","","","","","","","","","",""
"2939","","practice","audio-keyboard-response","24","2401574","0.0-6.0-1.3","5ceb685da7afdc00166f8391","condB","","resources/audio/practiceStim/S1_AI_21_bxa_Step-6.wav","48","","","","","","","","","","","","","",""
"4300.354999955744","","instructions","instructions","25","2406376","0.0-7.0","5ceb685da7afdc00166f8391","condB","[{""page_index"":0,""viewing_time"":4300.1950001344085}]","","","","","","","","","","","","","","","",""
"null","","fixation","html-keyboard-response","26","2406878","0.0-8.0-0.0","5ceb685da7afdc00166f8391","condB","","<div class=""vertical-center"" style='width:60%;'><p style='font-weight:bold;'>Does the middle word sound more like the first word (A) or the last word (B)?</p> <br> <div class=""container""> <div id=""a-box""> <p class=""title-text"">A</h3></p> </div> <div id=""x-box""> <p class=""title-text"">X<p> </div> <div id=""b-box""> <p class=""title-text"">B</p></div> <br> <div style='float: left;padding-left:30px;'><p>Press '1' for A</p></div><div style='float: right;padding-right:30px;'><p>Press '0' for B</p> </div> </div></div>","null","","","","","","","","","","","","","",""
"2880","","test","audio-keyboard-response","27","2409764","0.0-8.0-1.0","5ceb685da7afdc00166f8391","condB","","resources/audio/wordStim/S3_AU_20_axb_Step-4.wav","49","","","","","AU","resources/audio/wordStim/S3_AU_20_axb_Step-4.wav","S3","20","axb","4","MI","0","1","false"
"null","","fixation","html-keyboard-response","28","2410767","0.0-8.0-0.1","5ceb685da7afdc00166f8391","condB","","<div class=""vertical-center"" style='width:60%;'><p style='font-weight:bold;'>Does the middle word sound more like the first word (A) or the last word (B)?</p> <br> <div class=""container""> <div id=""a-box""> <p class=""title-text"">A</h3></p> </div> <div id=""x-box""> <p class=""title-text"">X<p> </div> <div id=""b-box""> <p class=""title-text"">B</p></div> <br> <div style='float: left;padding-left:30px;'><p>Press '1' for A</p></div><div style='float: right;padding-right:30px;'><p>Press '0' for B</p> </div> </div></div>","null","","","","","","","","","","","","","",""
"2669","","test","audio-keyboard-response","29","2413429","0.0-8.0-1.1","5ceb685da7afdc00166f8391","condB","","resources/audio/wordStim/S9_AU_16_bxa_Step-3.wav","48","","","","","AU","resources/audio/wordStim/S9_AU_16_bxa_Step-3.wav","S9","16","bxa","3","CN","1","0","false"
"null","","fixation","html-keyboard-response","30","2414432","0.0-8.0-0.2","5ceb685da7afdc00166f8391","condB","","<div class=""vertical-center"" style='width:60%;'><p style='font-weight:bold;'>Does the middle word sound more like the first word (A) or the last word (B)?</p> <br> <div class=""container""> <div id=""a-box""> <p class=""title-text"">A</h3></p> </div> <div id=""x-box""> <p class=""title-text"">X<p> </div> <div id=""b-box""> <p class=""title-text"">B</p></div> <br> <div style='float: left;padding-left:30px;'><p>Press '1' for A</p></div><div style='float: right;padding-right:30px;'><p>Press '0' for B</p> </div> </div></div>","null","","","","","","","","","","","","","",""
"3128","","test","audio-keyboard-response","31","2417561","0.0-8.0-1.2","5ceb685da7afdc00166f8391","condB","","resources/audio/wordStim/S3_AI_28_bxa_Step-3.wav","49","","","","","AI","resources/audio/wordStim/S3_AI_28_bxa_Step-3.wav","S3","28","bxa","3","MI","1","1","true"
"null","","fixation","html-keyboard-response","32","2418563","0.0-8.0-0.3","5ceb685da7afdc00166f8391","condB","","<div class=""vertical-center"" style='width:60%;'><p style='font-weight:bold;'>Does the middle word sound more like the first word (A) or the last word (B)?</p> <br> <div class=""container""> <div id=""a-box""> <p class=""title-text"">A</h3></p> </div> <div id=""x-box""> <p class=""title-text"">X<p> </div> <div id=""b-box""> <p class=""title-text"">B</p></div> <br> <div style='float: left;padding-left:30px;'><p>Press '1' for A</p></div><div style='float: right;padding-right:30px;'><p>Press '0' for B</p> </div> </div></div>","null","","","","","","","","","","","","","",""
"3149","","test","audio-keyboard-response","33","2421713","0.0-8.0-1.3","5ceb685da7afdc00166f8391","condB","","resources/audio/wordStim/S3_AI_30_bxa_Step-9.wav","49","","","","","AI","resources/audio/wordStim/S3_AI_30_bxa_Step-9.wav","S3","30","bxa","9","MI","1","1","true"
"null","","fixation","html-keyboard-response","34","2422719","0.0-8.0-0.4","5ceb685da7afdc00166f8391","condB","","<div class=""vertical-center"" style='width:60%;'><p style='font-weight:bold;'>Does the middle word sound more like the first word (A) or the last word (B)?</p> <br> <div class=""container""> <div id=""a-box""> <p class=""title-text"">A</h3></p> </div> <div id=""x-box""> <p class=""title-text"">X<p> </div> <div id=""b-box""> <p class=""title-text"">B</p></div> <br> <div style='float: left;padding-left:30px;'><p>Press '1' for A</p></div><div style='float: right;padding-right:30px;'><p>Press '0' for B</p> </div> </div></div>","null","","","","","","","","","","","","","",""
"3232","","test","audio-keyboard-response","35","2425948","0.0-8.0-1.4","5ceb685da7afdc00166f8391","condB","","resources/audio/wordStim/S3_AI_29_axb_Step-8.wav","48","","","","","AI","resources/audio/wordStim/S3_AI_29_axb_Step-8.wav","S3","29","axb","8","MI","0","0","true"
"null","","fixation","html-keyboard-response","36","2426951","0.0-8.0-0.5","5ceb685da7afdc00166f8391","condB","","<div class=""vertical-center"" style='width:60%;'><p style='font-weight:bold;'>Does the middle word sound more like the first word (A) or the last word (B)?</p> <br> <div class=""container""> <div id=""a-box""> <p class=""title-text"">A</h3></p> </div> <div id=""x-box""> <p class=""title-text"">X<p> </div> <div id=""b-box""> <p class=""title-text"">B</p></div> <br> <div style='float: left;padding-left:30px;'><p>Press '1' for A</p></div><div style='float: right;padding-right:30px;'><p>Press '0' for B</p> </div> </div></div>","null","","","","","","","","","","","","","",""
"3240","","test","audio-keyboard-response","37","2430197","0.0-8.0-1.5","5ceb685da7afdc00166f8391","condB","","resources/audio/wordStim/S9_AU_18_axb_Step-2.wav","49","","","","","AU","resources/audio/wordStim/S9_AU_18_axb_Step-2.wav","S9","18","axb","2","CN","0","1","false"
"null","","fixation","html-keyboard-response","38","2431201","0.0-8.0-0.6","5ceb685da7afdc00166f8391","condB","","<div class=""vertical-center"" style='width:60%;'><p style='font-weight:bold;'>Does the middle word sound more like the first word (A) or the last word (B)?</p> <br> <div class=""container""> <div id=""a-box""> <p class=""title-text"">A</h3></p> </div> <div id=""x-box""> <p class=""title-text"">X<p> </div> <div id=""b-box""> <p class=""title-text"">B</p></div> <br> <div style='float: left;padding-left:30px;'><p>Press '1' for A</p></div><div style='float: right;padding-right:30px;'><p>Press '0' for B</p> </div> </div></div>","null","","","","","","","","","","","","","",""
"3600","","test","audio-keyboard-response","39","2434809","0.0-8.0-1.6","5ceb685da7afdc00166f8391","condB","","resources/audio/wordStim/S3_AU_18_bxa_Step-9.wav","49","","","","","AU","resources/audio/wordStim/S3_AU_18_bxa_Step-9.wav","S3","18","bxa","9","MI","1","1","true"
"null","","fixation","html-keyboard-response","40","2435812","0.0-8.0-0.7","5ceb685da7afdc00166f8391","condB","","<div class=""vertical-center"" style='width:60%;'><p style='font-weight:bold;'>Does the middle word sound more like the first word (A) or the last word (B)?</p> <br> <div class=""container""> <div id=""a-box""> <p class=""title-text"">A</h3></p> </div> <div id=""x-box""> <p class=""title-text"">X<p> </div> <div id=""b-box""> <p class=""title-text"">B</p></div> <br> <div style='float: left;padding-left:30px;'><p>Press '1' for A</p></div><div style='float: right;padding-right:30px;'><p>Press '0' for B</p> </div> </div></div>","null","","","","","","","","","","","","","",""
"3720","","test","audio-keyboard-response","41","2439546","0.0-8.0-1.7","5ceb685da7afdc00166f8391","condB","","resources/audio/wordStim/S3_AU_16_bxa_Step-10.wav","49","","","","","AU","resources/audio/wordStim/S3_AU_16_bxa_Step-10.wav","S3","16","bxa","10","MI","1","1","true"
"null","","fixation","html-keyboard-response","42","2440551","0.0-8.0-0.8","5ceb685da7afdc00166f8391","condB","","<div class=""vertical-center"" style='width:60%;'><p style='font-weight:bold;'>Does the middle word sound more like the first word (A) or the last word (B)?</p> <br> <div class=""container""> <div id=""a-box""> <p class=""title-text"">A</h3></p> </div> <div id=""x-box""> <p class=""title-text"">X<p> </div> <div id=""b-box""> <p class=""title-text"">B</p></div> <br> <div style='float: left;padding-left:30px;'><p>Press '1' for A</p></div><div style='float: right;padding-right:30px;'><p>Press '0' for B</p> </div> </div></div>","null","","","","","","","","","","","","","",""
"3552","","test","audio-keyboard-response","43","2444113","0.0-8.0-1.8","5ceb685da7afdc00166f8391","condB","","resources/audio/wordStim/S9_AI_29_bxa_Step-5.wav","49","","","","","AI","resources/audio/wordStim/S9_AI_29_bxa_Step-5.wav","S9","29","bxa","5","CN","1","1","true"
"null","","fixation","html-keyboard-response","44","2445117","0.0-8.0-0.9","5ceb685da7afdc00166f8391","condB","","<div class=""vertical-center"" style='width:60%;'><p style='font-weight:bold;'>Does the middle word sound more like the first word (A) or the last word (B)?</p> <br> <div class=""container""> <div id=""a-box""> <p class=""title-text"">A</h3></p> </div> <div id=""x-box""> <p class=""title-text"">X<p> </div> <div id=""b-box""> <p class=""title-text"">B</p></div> <br> <div style='float: left;padding-left:30px;'><p>Press '1' for A</p></div><div style='float: right;padding-right:30px;'><p>Press '0' for B</p> </div> </div></div>","null","","","","","","","","","","","","","",""
"3192","","test","audio-keyboard-response","45","2448319","0.0-8.0-1.9","5ceb685da7afdc00166f8391","condB","","resources/audio/wordStim/S3_AI_23_axb_Step-6.wav","48","","","","","AI","resources/audio/wordStim/S3_AI_23_axb_Step-6.wav","S3","23","axb","6","MI","0","0","true"
"null","","fixation","html-keyboard-response","46","2449323","0.0-8.0-0.10","5ceb685da7afdc00166f8391","condB","","<div class=""vertical-center"" style='width:60%;'><p style='font-weight:bold;'>Does the middle word sound more like the first word (A) or the last word (B)?</p> <br> <div class=""container""> <div id=""a-box""> <p class=""title-text"">A</h3></p> </div> <div id=""x-box""> <p class=""title-text"">X<p> </div> <div id=""b-box""> <p class=""title-text"">B</p></div> <br> <div style='float: left;padding-left:30px;'><p>Press '1' for A</p></div><div style='float: right;padding-right:30px;'><p>Press '0' for B</p> </div> </div></div>","null","","","","","","","","","","","","","",""
"2851","","test","audio-keyboard-response","47","2452164","0.0-8.0-1.10","5ceb685da7afdc00166f8391","condB","","resources/audio/wordStim/S9_AU_16_axb_Step-6.wav","49","","","","","AU","resources/audio/wordStim/S9_AU_16_axb_Step-6.wav","S9","16","axb","6","CN","0","1","false"
"null","","fixation","html-keyboard-response","48","2453165","0.0-8.0-0.11","5ceb685da7afdc00166f8391","condB","","<div class=""vertical-center"" style='width:60%;'><p style='font-weight:bold;'>Does the middle word sound more like the first word (A) or the last word (B)?</p> <br> <div class=""container""> <div id=""a-box""> <p class=""title-text"">A</h3></p> </div> <div id=""x-box""> <p class=""title-text"">X<p> </div> <div id=""b-box""> <p class=""title-text"">B</p></div> <br> <div style='float: left;padding-left:30px;'><p>Press '1' for A</p></div><div style='float: right;padding-right:30px;'><p>Press '0' for B</p> </div> </div></div>","null","","","","","","","","","","","","","",""
"3152","","test","audio-keyboard-response","49","2456318","0.0-8.0-1.11","5ceb685da7afdc00166f8391","condB","","resources/audio/wordStim/S9_AI_23_axb_Step-4.wav","49","","","","","AI","resources/audio/wordStim/S9_AI_23_axb_Step-4.wav","S9","23","axb","4","CN","0","1","false"
"null","","fixation","html-keyboard-response","50","2457321","0.0-8.0-0.12","5ceb685da7afdc00166f8391","condB","","<div class=""vertical-center"" style='width:60%;'><p style='font-weight:bold;'>Does the middle word sound more like the first word (A) or the last word (B)?</p> <br> <div class=""container""> <div id=""a-box""> <p class=""title-text"">A</h3></p> </div> <div id=""x-box""> <p class=""title-text"">X<p> </div> <div id=""b-box""> <p class=""title-text"">B</p></div> <br> <div style='float: left;padding-left:30px;'><p>Press '1' for A</p></div><div style='float: right;padding-right:30px;'><p>Press '0' for B</p> </div> </div></div>","null","","","","","","","","","","","","","",""
"3000","","test","audio-keyboard-response","51","2460332","0.0-8.0-1.12","5ceb685da7afdc00166f8391","condB","","resources/audio/wordStim/S3_AI_25_axb_Step-8.wav","48","","","","","AI","resources/audio/wordStim/S3_AI_25_axb_Step-8.wav","S3","25","axb","8","MI","0","0","true"
"null","","fixation","html-keyboard-response","52","2461336","0.0-8.0-0.13","5ceb685da7afdc00166f8391","condB","","<div class=""vertical-center"" style='width:60%;'><p style='font-weight:bold;'>Does the middle word sound more like the first word (A) or the last word (B)?</p> <br> <div class=""container""> <div id=""a-box""> <p class=""title-text"">A</h3></p> </div> <div id=""x-box""> <p class=""title-text"">X<p> </div> <div id=""b-box""> <p class=""title-text"">B</p></div> <br> <div style='float: left;padding-left:30px;'><p>Press '1' for A</p></div><div style='float: right;padding-right:30px;'><p>Press '0' for B</p> </div> </div></div>","null","","","","","","","","","","","","","",""
"3000","","test","audio-keyboard-response","53","2464331","0.0-8.0-1.13","5ceb685da7afdc00166f8391","condB","","resources/audio/wordStim/S9_AU_16_bxa_Step-5.wav","48","","","","","AU","resources/audio/wordStim/S9_AU_16_bxa_Step-5.wav","S9","16","bxa","5","CN","1","0","false"
"null","","fixation","html-keyboard-response","54","2465332","0.0-8.0-0.14","5ceb685da7afdc00166f8391","condB","","<div class=""vertical-center"" style='width:60%;'><p style='font-weight:bold;'>Does the middle word sound more like the first word (A) or the last word (B)?</p> <br> <div class=""container""> <div id=""a-box""> <p class=""title-text"">A</h3></p> </div> <div id=""x-box""> <p class=""title-text"">X<p> </div> <div id=""b-box""> <p class=""title-text"">B</p></div> <br> <div style='float: left;padding-left:30px;'><p>Press '1' for A</p></div><div style='float: right;padding-right:30px;'><p>Press '0' for B</p> </div> </div></div>","null","","","","","","","","","","","","","",""
"4651","","test","audio-keyboard-response","55","2469981","0.0-8.0-1.14","5ceb685da7afdc00166f8391","condB","","resources/audio/wordStim/S3_AU_18_axb_Step-2.wav","49","","","","","AU","resources/audio/wordStim/S3_AU_18_axb_Step-2.wav","S3","18","axb","2","MI","0","1","false"
"null","","fixation","html-keyboard-response","56","2470984","0.0-8.0-0.15","5ceb685da7afdc00166f8391","condB","","<div class=""vertical-center"" style='width:60%;'><p style='font-weight:bold;'>Does the middle word sound more like the first word (A) or the last word (B)?</p> <br> <div class=""container""> <div id=""a-box""> <p class=""title-text"">A</h3></p> </div> <div id=""x-box""> <p class=""title-text"">X<p> </div> <div id=""b-box""> <p class=""title-text"">B</p></div> <br> <div style='float: left;padding-left:30px;'><p>Press '1' for A</p></div><div style='float: right;padding-right:30px;'><p>Press '0' for B</p> </div> </div></div>","null","","","","","","","","","","","","","",""
"3269","","test","audio-keyboard-response","57","2474240","0.0-8.0-1.15","5ceb685da7afdc00166f8391","condB","","resources/audio/wordStim/S9_AU_14_bxa_Step-7.wav","49","","","","","AU","resources/audio/wordStim/S9_AU_14_bxa_Step-7.wav","S9","14","bxa","7","CN","1","1","true"
"null","","fixation","html-keyboard-response","58","2475243","0.0-8.0-0.16","5ceb685da7afdc00166f8391","condB","","<div class=""vertical-center"" style='width:60%;'><p style='font-weight:bold;'>Does the middle word sound more like the first word (A) or the last word (B)?</p> <br> <div class=""container""> <div id=""a-box""> <p class=""title-text"">A</h3></p> </div> <div id=""x-box""> <p class=""title-text"">X<p> </div> <div id=""b-box""> <p class=""title-text"">B</p></div> <br> <div style='float: left;padding-left:30px;'><p>Press '1' for A</p></div><div style='float: right;padding-right:30px;'><p>Press '0' for B</p> </div> </div></div>","null","","","","","","","","","","","","","",""
"3000","","test","audio-keyboard-response","59","2478230","0.0-8.0-1.16","5ceb685da7afdc00166f8391","condB","","resources/audio/wordStim/S9_AU_17_axb_Step-6.wav","48","","","","","AU","resources/audio/wordStim/S9_AU_17_axb_Step-6.wav","S9","17","axb","6","CN","0","0","true"
"null","","fixation","html-keyboard-response","60","2479232","0.0-8.0-0.17","5ceb685da7afdc00166f8391","condB","","<div class=""vertical-center"" style='width:60%;'><p style='font-weight:bold;'>Does the middle word sound more like the first word (A) or the last word (B)?</p> <br> <div class=""container""> <div id=""a-box""> <p class=""title-text"">A</h3></p> </div> <div id=""x-box""> <p class=""title-text"">X<p> </div> <div id=""b-box""> <p class=""title-text"">B</p></div> <br> <div style='float: left;padding-left:30px;'><p>Press '1' for A</p></div><div style='float: right;padding-right:30px;'><p>Press '0' for B</p> </div> </div></div>","null","","","","","","","","","","","","","",""
"3248","","test","audio-keyboard-response","61","2482481","0.0-8.0-1.17","5ceb685da7afdc00166f8391","condB","","resources/audio/wordStim/S9_AI_30_axb_Step-4.wav","48","","","","","AI","resources/audio/wordStim/S9_AI_30_axb_Step-4.wav","S9","30","axb","4","CN","0","0","true"
"null","","fixation","html-keyboard-response","62","2483498","0.0-8.0-0.18","5ceb685da7afdc00166f8391","condB","","<div class=""vertical-center"" style='width:60%;'><p style='font-weight:bold;'>Does the middle word sound more like the first word (A) or the last word (B)?</p> <br> <div class=""container""> <div id=""a-box""> <p class=""title-text"">A</h3></p> </div> <div id=""x-box""> <p class=""title-text"">X<p> </div> <div id=""b-box""> <p class=""title-text"">B</p></div> <br> <div style='float: left;padding-left:30px;'><p>Press '1' for A</p></div><div style='float: right;padding-right:30px;'><p>Press '0' for B</p> </div> </div></div>","null","","","","","","","","","","","","","",""
"3259","","test","audio-keyboard-response","63","2486768","0.0-8.0-1.18","5ceb685da7afdc00166f8391","condB","","resources/audio/wordStim/S3_AI_29_bxa_Step-7.wav","49","","","","","AI","resources/audio/wordStim/S3_AI_29_bxa_Step-7.wav","S3","29","bxa","7","MI","1","1","true"
"null","","fixation","html-keyboard-response","64","2487770","0.0-8.0-0.19","5ceb685da7afdc00166f8391","condB","","<div class=""vertical-center"" style='width:60%;'><p style='font-weight:bold;'>Does the middle word sound more like the first word (A) or the last word (B)?</p> <br> <div class=""container""> <div id=""a-box""> <p class=""title-text"">A</h3></p> </div> <div id=""x-box""> <p class=""title-text"">X<p> </div> <div id=""b-box""> <p class=""title-text"">B</p></div> <br> <div style='float: left;padding-left:30px;'><p>Press '1' for A</p></div><div style='float: right;padding-right:30px;'><p>Press '0' for B</p> </div> </div></div>","null","","","","","","","","","","","","","",""
"2949","","test","audio-keyboard-response","65","2490736","0.0-8.0-1.19","5ceb685da7afdc00166f8391","condB","","resources/audio/wordStim/S3_AU_19_bxa_Step-7.wav","49","","","","","AU","resources/audio/wordStim/S3_AU_19_bxa_Step-7.wav","S3","19","bxa","7","MI","1","1","true"
"null","","fixation","html-keyboard-response","66","2491739","0.0-8.0-0.20","5ceb685da7afdc00166f8391","condB","","<div class=""vertical-center"" style='width:60%;'><p style='font-weight:bold;'>Does the middle word sound more like the first word (A) or the last word (B)?</p> <br> <div class=""container""> <div id=""a-box""> <p class=""title-text"">A</h3></p> </div> <div id=""x-box""> <p class=""title-text"">X<p> </div> <div id=""b-box""> <p class=""title-text"">B</p></div> <br> <div style='float: left;padding-left:30px;'><p>Press '1' for A</p></div><div style='float: right;padding-right:30px;'><p>Press '0' for B</p> </div> </div></div>","null","","","","","","","","","","","","","",""
"3179","","test","audio-keyboard-response","67","2494925","0.0-8.0-1.20","5ceb685da7afdc00166f8391","condB","","resources/audio/wordStim/S3_AU_11_axb_Step-8.wav","48","","","","","AU","resources/audio/wordStim/S3_AU_11_axb_Step-8.wav","S3","11","axb","8","MI","0","0","true"
"null","","fixation","html-keyboard-response","68","2495927","0.0-8.0-0.21","5ceb685da7afdc00166f8391","condB","","<div class=""vertical-center"" style='width:60%;'><p style='font-weight:bold;'>Does the middle word sound more like the first word (A) or the last word (B)?</p> <br> <div class=""container""> <div id=""a-box""> <p class=""title-text"">A</h3></p> </div> <div id=""x-box""> <p class=""title-text"">X<p> </div> <div id=""b-box""> <p class=""title-text"">B</p></div> <br> <div style='float: left;padding-left:30px;'><p>Press '1' for A</p></div><div style='float: right;padding-right:30px;'><p>Press '0' for B</p> </div> </div></div>","null","","","","","","","","","","","","","",""
"3112","","test","audio-keyboard-response","69","2499029","0.0-8.0-1.21","5ceb685da7afdc00166f8391","condB","","resources/audio/wordStim/S9_AI_27_bxa_Step-9.wav","49","","","","","AI","resources/audio/wordStim/S9_AI_27_bxa_Step-9.wav","S9","27","bxa","9","CN","1","1","true"
"null","","fixation","html-keyboard-response","70","2500032","0.0-8.0-0.22","5ceb685da7afdc00166f8391","condB","","<div class=""vertical-center"" style='width:60%;'><p style='font-weight:bold;'>Does the middle word sound more like the first word (A) or the last word (B)?</p> <br> <div class=""container""> <div id=""a-box""> <p class=""title-text"">A</h3></p> </div> <div id=""x-box""> <p class=""title-text"">X<p> </div> <div id=""b-box""> <p class=""title-text"">B</p></div> <br> <div style='float: left;padding-left:30px;'><p>Press '1' for A</p></div><div style='float: right;padding-right:30px;'><p>Press '0' for B</p> </div> </div></div>","null","","","","","","","","","","","","","",""
"3709","","test","audio-keyboard-response","71","2503739","0.0-8.0-1.22","5ceb685da7afdc00166f8391","condB","","resources/audio/wordStim/S3_AU_17_bxa_Step-9.wav","49","","","","","AU","resources/audio/wordStim/S3_AU_17_bxa_Step-9.wav","S3","17","bxa","9","MI","1","1","true"
"null","","fixation","html-keyboard-response","72","2504742","0.0-8.0-0.23","5ceb685da7afdc00166f8391","condB","","<div class=""vertical-center"" style='width:60%;'><p style='font-weight:bold;'>Does the middle word sound more like the first word (A) or the last word (B)?</p> <br> <div class=""container""> <div id=""a-box""> <p class=""title-text"">A</h3></p> </div> <div id=""x-box""> <p class=""title-text"">X<p> </div> <div id=""b-box""> <p class=""title-text"">B</p></div> <br> <div style='float: left;padding-left:30px;'><p>Press '1' for A</p></div><div style='float: right;padding-right:30px;'><p>Press '0' for B</p> </div> </div></div>","null","","","","","","","","","","","","","",""
"3299","","test","audio-keyboard-response","73","2508043","0.0-8.0-1.23","5ceb685da7afdc00166f8391","condB","","resources/audio/wordStim/S9_AU_19_bxa_Step-3.wav","48","","","","","AU","resources/audio/wordStim/S9_AU_19_bxa_Step-3.wav","S9","19","bxa","3","CN","1","0","false"
"null","","fixation","html-keyboard-response","74","2509046","0.0-8.0-0.24","5ceb685da7afdc00166f8391","condB","","<div class=""vertical-center"" style='width:60%;'><p style='font-weight:bold;'>Does the middle word sound more like the first word (A) or the last word (B)?</p> <br> <div class=""container""> <div id=""a-box""> <p class=""title-text"">A</h3></p> </div> <div id=""x-box""> <p class=""title-text"">X<p> </div> <div id=""b-box""> <p class=""title-text"">B</p></div> <br> <div style='float: left;padding-left:30px;'><p>Press '1' for A</p></div><div style='float: right;padding-right:30px;'><p>Press '0' for B</p> </div> </div></div>","null","","","","","","","","","","","","","",""
"3181","","test","audio-keyboard-response","75","2512228","0.0-8.0-1.24","5ceb685da7afdc00166f8391","condB","","resources/audio/wordStim/S9_AU_13_bxa_Step-10.wav","49","","","","","AU","resources/audio/wordStim/S9_AU_13_bxa_Step-10.wav","S9","13","bxa","10","CN","1","1","true"
"null","","fixation","html-keyboard-response","76","2513230","0.0-8.0-0.25","5ceb685da7afdc00166f8391","condB","","<div class=""vertical-center"" style='width:60%;'><p style='font-weight:bold;'>Does the middle word sound more like the first word (A) or the last word (B)?</p> <br> <div class=""container""> <div id=""a-box""> <p class=""title-text"">A</h3></p> </div> <div id=""x-box""> <p class=""title-text"">X<p> </div> <div id=""b-box""> <p class=""title-text"">B</p></div> <br> <div style='float: left;padding-left:30px;'><p>Press '1' for A</p></div><div style='float: right;padding-right:30px;'><p>Press '0' for B</p> </div> </div></div>","null","","","","","","","","","","","","","",""
"3259","","test","audio-keyboard-response","77","2516496","0.0-8.0-1.25","5ceb685da7afdc00166f8391","condB","","resources/audio/wordStim/S9_AU_18_bxa_Step-5.wav","48","","","","","AU","resources/audio/wordStim/S9_AU_18_bxa_Step-5.wav","S9","18","bxa","5","CN","1","0","false"
"null","","fixation","html-keyboard-response","78","2517497","0.0-8.0-0.26","5ceb685da7afdc00166f8391","condB","","<div class=""vertical-center"" style='width:60%;'><p style='font-weight:bold;'>Does the middle word sound more like the first word (A) or the last word (B)?</p> <br> <div class=""container""> <div id=""a-box""> <p class=""title-text"">A</h3></p> </div> <div id=""x-box""> <p class=""title-text"">X<p> </div> <div id=""b-box""> <p class=""title-text"">B</p></div> <br> <div style='float: left;padding-left:30px;'><p>Press '1' for A</p></div><div style='float: right;padding-right:30px;'><p>Press '0' for B</p> </div> </div></div>","null","","","","","","","","","","","","","",""
"3829","","test","audio-keyboard-response","79","2521320","0.0-8.0-1.26","5ceb685da7afdc00166f8391","condB","","resources/audio/wordStim/S9_AU_19_bxa_Step-9.wav","49","","","","","AU","resources/audio/wordStim/S9_AU_19_bxa_Step-9.wav","S9","19","bxa","9","CN","1","1","true"
"20438.194999936968","","break","html-keyboard-response","80","2542259","0.0-8.0-2.26-0.26","5ceb685da7afdc00166f8391","condB","","<div class=""vertical-center""><p>Feel free to take a break!</p><i>When you're ready to continue, press SPACE to begin the next trial.</i></p></div>","32","","","","","","","","","","","","","",""
"null","","fixation","html-keyboard-response","81","2542761","0.0-8.0-0.27","5ceb685da7afdc00166f8391","condB","","<div class=""vertical-center"" style='width:60%;'><p style='font-weight:bold;'>Does the middle word sound more like the first word (A) or the last word (B)?</p> <br> <div class=""container""> <div id=""a-box""> <p class=""title-text"">A</h3></p> </div> <div id=""x-box""> <p class=""title-text"">X<p> </div> <div id=""b-box""> <p class=""title-text"">B</p></div> <br> <div style='float: left;padding-left:30px;'><p>Press '1' for A</p></div><div style='float: right;padding-right:30px;'><p>Press '0' for B</p> </div> </div></div>","null","","","","","","","","","","","","","",""
"3011","","test","audio-keyboard-response","82","2545784","0.0-8.0-1.27","5ceb685da7afdc00166f8391","condB","","resources/audio/wordStim/S3_AU_19_bxa_Step-5.wav","48","","","","","AU","resources/audio/wordStim/S3_AU_19_bxa_Step-5.wav","S3","19","bxa","5","MI","1","0","false"
"null","","fixation","html-keyboard-response","83","2546787","0.0-8.0-0.28","5ceb685da7afdc00166f8391","condB","","<div class=""vertical-center"" style='width:60%;'><p style='font-weight:bold;'>Does the middle word sound more like the first word (A) or the last word (B)?</p> <br> <div class=""container""> <div id=""a-box""> <p class=""title-text"">A</h3></p> </div> <div id=""x-box""> <p class=""title-text"">X<p> </div> <div id=""b-box""> <p class=""title-text"">B</p></div> <br> <div style='float: left;padding-left:30px;'><p>Press '1' for A</p></div><div style='float: right;padding-right:30px;'><p>Press '0' for B</p> </div> </div></div>","null","","","","","","","","","","","","","",""
"2888","","test","audio-keyboard-response","84","2549680","0.0-8.0-1.28","5ceb685da7afdc00166f8391","condB","","resources/audio/wordStim/S3_AI_29_axb_Step-4.wav","48","","","","","AI","resources/audio/wordStim/S3_AI_29_axb_Step-4.wav","S3","29","axb","4","MI","0","0","true"
"null","","fixation","html-keyboard-response","85","2550684","0.0-8.0-0.29","5ceb685da7afdc00166f8391","condB","","<div class=""vertical-center"" style='width:60%;'><p style='font-weight:bold;'>Does the middle word sound more like the first word (A) or the last word (B)?</p> <br> <div class=""container""> <div id=""a-box""> <p class=""title-text"">A</h3></p> </div> <div id=""x-box""> <p class=""title-text"">X<p> </div> <div id=""b-box""> <p class=""title-text"">B</p></div> <br> <div style='float: left;padding-left:30px;'><p>Press '1' for A</p></div><div style='float: right;padding-right:30px;'><p>Press '0' for B</p> </div> </div></div>","null","","","","","","","","","","","","","",""
"3101","","test","audio-keyboard-response","86","2553799","0.0-8.0-1.29","5ceb685da7afdc00166f8391","condB","","resources/audio/wordStim/S9_AI_25_bxa_Step-10.wav","49","","","","","AI","resources/audio/wordStim/S9_AI_25_bxa_Step-10.wav","S9","25","bxa","10","CN","1","1","true"
"null","","fixation","html-keyboard-response","87","2554801","0.0-8.0-0.30","5ceb685da7afdc00166f8391","condB","","<div class=""vertical-center"" style='width:60%;'><p style='font-weight:bold;'>Does the middle word sound more like the first word (A) or the last word (B)?</p> <br> <div class=""container""> <div id=""a-box""> <p class=""title-text"">A</h3></p> </div> <div id=""x-box""> <p class=""title-text"">X<p> </div> <div id=""b-box""> <p class=""title-text"">B</p></div> <br> <div style='float: left;padding-left:30px;'><p>Press '1' for A</p></div><div style='float: right;padding-right:30px;'><p>Press '0' for B</p> </div> </div></div>","null","","","","","","","","","","","","","",""
"2581","","test","audio-keyboard-response","88","2557388","0.0-8.0-1.30","5ceb685da7afdc00166f8391","condB","","resources/audio/wordStim/S9_AI_27_bxa_Step-5.wav","48","","","","","AI","resources/audio/wordStim/S9_AI_27_bxa_Step-5.wav","S9","27","bxa","5","CN","1","0","false"
"null","","fixation","html-keyboard-response","89","2558393","0.0-8.0-0.31","5ceb685da7afdc00166f8391","condB","","<div class=""vertical-center"" style='width:60%;'><p style='font-weight:bold;'>Does the middle word sound more like the first word (A) or the last word (B)?</p> <br> <div class=""container""> <div id=""a-box""> <p class=""title-text"">A</h3></p> </div> <div id=""x-box""> <p class=""title-text"">X<p> </div> <div id=""b-box""> <p class=""title-text"">B</p></div> <br> <div style='float: left;padding-left:30px;'><p>Press '1' for A</p></div><div style='float: right;padding-right:30px;'><p>Press '0' for B</p> </div> </div></div>","null","","","","","","","","","","","","","",""
"3120","","test","audio-keyboard-response","90","2561527","0.0-8.0-1.31","5ceb685da7afdc00166f8391","condB","","resources/audio/wordStim/S9_AI_30_bxa_Step-10.wav","49","","","","","AI","resources/audio/wordStim/S9_AI_30_bxa_Step-10.wav","S9","30","bxa","10","CN","1","1","true"
"null","","fixation","html-keyboard-response","91","2562531","0.0-8.0-0.32","5ceb685da7afdc00166f8391","condB","","<div class=""vertical-center"" style='width:60%;'><p style='font-weight:bold;'>Does the middle word sound more like the first word (A) or the last word (B)?</p> <br> <div class=""container""> <div id=""a-box""> <p class=""title-text"">A</h3></p> </div> <div id=""x-box""> <p class=""title-text"">X<p> </div> <div id=""b-box""> <p class=""title-text"">B</p></div> <br> <div style='float: left;padding-left:30px;'><p>Press '1' for A</p></div><div style='float: right;padding-right:30px;'><p>Press '0' for B</p> </div> </div></div>","null","","","","","","","","","","","","","",""
"3120","","test","audio-keyboard-response","92","2565657","0.0-8.0-1.32","5ceb685da7afdc00166f8391","condB","","resources/audio/wordStim/S9_AU_11_axb_Step-8.wav","48","","","","","AU","resources/audio/wordStim/S9_AU_11_axb_Step-8.wav","S9","11","axb","8","CN","0","0","true"
"null","","fixation","html-keyboard-response","93","2566660","0.0-8.0-0.33","5ceb685da7afdc00166f8391","condB","","<div class=""vertical-center"" style='width:60%;'><p style='font-weight:bold;'>Does the middle word sound more like the first word (A) or the last word (B)?</p> <br> <div class=""container""> <div id=""a-box""> <p class=""title-text"">A</h3></p> </div> <div id=""x-box""> <p class=""title-text"">X<p> </div> <div id=""b-box""> <p class=""title-text"">B</p></div> <br> <div style='float: left;padding-left:30px;'><p>Press '1' for A</p></div><div style='float: right;padding-right:30px;'><p>Press '0' for B</p> </div> </div></div>","null","","","","","","","","","","","","","",""
"3200","","test","audio-keyboard-response","94","2569850","0.0-8.0-1.33","5ceb685da7afdc00166f8391","condB","","resources/audio/wordStim/S3_AU_20_bxa_Step-9.wav","48","","","","","AU","resources/audio/wordStim/S3_AU_20_bxa_Step-9.wav","S3","20","bxa","9","MI","1","0","false"
"null","","fixation","html-keyboard-response","95","2570853","0.0-8.0-0.34","5ceb685da7afdc00166f8391","condB","","<div class=""vertical-center"" style='width:60%;'><p style='font-weight:bold;'>Does the middle word sound more like the first word (A) or the last word (B)?</p> <br> <div class=""container""> <div id=""a-box""> <p class=""title-text"">A</h3></p> </div> <div id=""x-box""> <p class=""title-text"">X<p> </div> <div id=""b-box""> <p class=""title-text"">B</p></div> <br> <div style='float: left;padding-left:30px;'><p>Press '1' for A</p></div><div style='float: right;padding-right:30px;'><p>Press '0' for B</p> </div> </div></div>","null","","","","","","","","","","","","","",""
"3181","","test","audio-keyboard-response","96","2574029","0.0-8.0-1.34","5ceb685da7afdc00166f8391","condB","","resources/audio/wordStim/S3_AI_30_bxa_Step-5.wav","49","","","","","AI","resources/audio/wordStim/S3_AI_30_bxa_Step-5.wav","S3","30","bxa","5","MI","1","1","true"
"null","","fixation","html-keyboard-response","97","2575033","0.0-8.0-0.35","5ceb685da7afdc00166f8391","condB","","<div class=""vertical-center"" style='width:60%;'><p style='font-weight:bold;'>Does the middle word sound more like the first word (A) or the last word (B)?</p> <br> <div class=""container""> <div id=""a-box""> <p class=""title-text"">A</h3></p> </div> <div id=""x-box""> <p class=""title-text"">X<p> </div> <div id=""b-box""> <p class=""title-text"">B</p></div> <br> <div style='float: left;padding-left:30px;'><p>Press '1' for A</p></div><div style='float: right;padding-right:30px;'><p>Press '0' for B</p> </div> </div></div>","null","","","","","","","","","","","","","",""
"3288","","test","audio-keyboard-response","98","2578312","0.0-8.0-1.35","5ceb685da7afdc00166f8391","condB","","resources/audio/wordStim/S3_AI_22_bxa_Step-10.wav","49","","","","","AI","resources/audio/wordStim/S3_AI_22_bxa_Step-10.wav","S3","22","bxa","10","MI","1","1","true"
"null","","fixation","html-keyboard-response","99","2579316","0.0-8.0-0.36","5ceb685da7afdc00166f8391","condB","","<div class=""vertical-center"" style='width:60%;'><p style='font-weight:bold;'>Does the middle word sound more like the first word (A) or the last word (B)?</p> <br> <div class=""container""> <div id=""a-box""> <p class=""title-text"">A</h3></p> </div> <div id=""x-box""> <p class=""title-text"">X<p> </div> <div id=""b-box""> <p class=""title-text"">B</p></div> <br> <div style='float: left;padding-left:30px;'><p>Press '1' for A</p></div><div style='float: right;padding-right:30px;'><p>Press '0' for B</p> </div> </div></div>","null","","","","","","","","","","","","","",""
"3189","","test","audio-keyboard-response","100","2582506","0.0-8.0-1.36","5ceb685da7afdc00166f8391","condB","","resources/audio/wordStim/S9_AI_25_bxa_Step-5.wav","49","","","","","AI","resources/audio/wordStim/S9_AI_25_bxa_Step-5.wav","S9","25","bxa","5","CN","1","1","true"
"null","","fixation","html-keyboard-response","101","2583508","0.0-8.0-0.37","5ceb685da7afdc00166f8391","condB","","<div class=""vertical-center"" style='width:60%;'><p style='font-weight:bold;'>Does the middle word sound more like the first word (A) or the last word (B)?</p> <br> <div class=""container""> <div id=""a-box""> <p class=""title-text"">A</h3></p> </div> <div id=""x-box""> <p class=""title-text"">X<p> </div> <div id=""b-box""> <p class=""title-text"">B</p></div> <br> <div style='float: left;padding-left:30px;'><p>Press '1' for A</p></div><div style='float: right;padding-right:30px;'><p>Press '0' for B</p> </div> </div></div>","null","","","","","","","","","","","","","",""
"3179","","test","audio-keyboard-response","102","2586698","0.0-8.0-1.37","5ceb685da7afdc00166f8391","condB","","resources/audio/wordStim/S3_AI_28_bxa_Step-5.wav","49","","","","","AI","resources/audio/wordStim/S3_AI_28_bxa_Step-5.wav","S3","28","bxa","5","MI","1","1","true"
"null","","fixation","html-keyboard-response","103","2587702","0.0-8.0-0.38","5ceb685da7afdc00166f8391","condB","","<div class=""vertical-center"" style='width:60%;'><p style='font-weight:bold;'>Does the middle word sound more like the first word (A) or the last word (B)?</p> <br> <div class=""container""> <div id=""a-box""> <p class=""title-text"">A</h3></p> </div> <div id=""x-box""> <p class=""title-text"">X<p> </div> <div id=""b-box""> <p class=""title-text"">B</p></div> <br> <div style='float: left;padding-left:30px;'><p>Press '1' for A</p></div><div style='float: right;padding-right:30px;'><p>Press '0' for B</p> </div> </div></div>","null","","","","","","","","","","","","","",""
"3099","","test","audio-keyboard-response","104","2590811","0.0-8.0-1.38","5ceb685da7afdc00166f8391","condB","","resources/audio/wordStim/S9_AU_17_bxa_Step-3.wav","48","","","","","AU","resources/audio/wordStim/S9_AU_17_bxa_Step-3.wav","S9","17","bxa","3","CN","1","0","false"
"null","","fixation","html-keyboard-response","105","2591814","0.0-8.0-0.39","5ceb685da7afdc00166f8391","condB","","<div class=""vertical-center"" style='width:60%;'><p style='font-weight:bold;'>Does the middle word sound more like the first word (A) or the last word (B)?</p> <br> <div class=""container""> <div id=""a-box""> <p class=""title-text"">A</h3></p> </div> <div id=""x-box""> <p class=""title-text"">X<p> </div> <div id=""b-box""> <p class=""title-text"">B</p></div> <br> <div style='float: left;padding-left:30px;'><p>Press '1' for A</p></div><div style='float: right;padding-right:30px;'><p>Press '0' for B</p> </div> </div></div>","null","","","","","","","","","","","","","",""
"3549","","test","audio-keyboard-response","106","2595375","0.0-8.0-1.39","5ceb685da7afdc00166f8391","condB","","resources/audio/wordStim/S3_AI_29_bxa_Step-9.wav","49","","","","","AI","resources/audio/wordStim/S3_AI_29_bxa_Step-9.wav","S3","29","bxa","9","MI","1","1","true"
"null","","fixation","html-keyboard-response","107","2596378","0.0-8.0-0.40","5ceb685da7afdc00166f8391","condB","","<div class=""vertical-center"" style='width:60%;'><p style='font-weight:bold;'>Does the middle word sound more like the first word (A) or the last word (B)?</p> <br> <div class=""container""> <div id=""a-box""> <p class=""title-text"">A</h3></p> </div> <div id=""x-box""> <p class=""title-text"">X<p> </div> <div id=""b-box""> <p class=""title-text"">B</p></div> <br> <div style='float: left;padding-left:30px;'><p>Press '1' for A</p></div><div style='float: right;padding-right:30px;'><p>Press '0' for B</p> </div> </div></div>","null","","","","","","","","","","","","","",""
"3691","","test","audio-keyboard-response","108","2600078","0.0-8.0-1.40","5ceb685da7afdc00166f8391","condB","","resources/audio/wordStim/S9_AI_29_axb_Step-6.wav","48","","","","","AI","resources/audio/wordStim/S9_AI_29_axb_Step-6.wav","S9","29","axb","6","CN","0","0","true"
"null","","fixation","html-keyboard-response","109","2601080","0.0-8.0-0.41","5ceb685da7afdc00166f8391","condB","","<div class=""vertical-center"" style='width:60%;'><p style='font-weight:bold;'>Does the middle word sound more like the first word (A) or the last word (B)?</p> <br> <div class=""container""> <div id=""a-box""> <p class=""title-text"">A</h3></p> </div> <div id=""x-box""> <p class=""title-text"">X<p> </div> <div id=""b-box""> <p class=""title-text"">B</p></div> <br> <div style='float: left;padding-left:30px;'><p>Press '1' for A</p></div><div style='float: right;padding-right:30px;'><p>Press '0' for B</p> </div> </div></div>","null","","","","","","","","","","","","","",""
"5189","","test","audio-keyboard-response","110","2606278","0.0-8.0-1.41","5ceb685da7afdc00166f8391","condB","","resources/audio/wordStim/S9_AI_24_bxa_Step-5.wav","49","","","","","AI","resources/audio/wordStim/S9_AI_24_bxa_Step-5.wav","S9","24","bxa","5","CN","1","1","true"
"null","","fixation","html-keyboard-response","111","2607281","0.0-8.0-0.42","5ceb685da7afdc00166f8391","condB","","<div class=""vertical-center"" style='width:60%;'><p style='font-weight:bold;'>Does the middle word sound more like the first word (A) or the last word (B)?</p> <br> <div class=""container""> <div id=""a-box""> <p class=""title-text"">A</h3></p> </div> <div id=""x-box""> <p class=""title-text"">X<p> </div> <div id=""b-box""> <p class=""title-text"">B</p></div> <br> <div style='float: left;padding-left:30px;'><p>Press '1' for A</p></div><div style='float: right;padding-right:30px;'><p>Press '0' for B</p> </div> </div></div>","null","","","","","","","","","","","","","",""
"3741","","test","audio-keyboard-response","112","2611018","0.0-8.0-1.42","5ceb685da7afdc00166f8391","condB","","resources/audio/wordStim/S9_AU_13_bxa_Step-5.wav","49","","","","","AU","resources/audio/wordStim/S9_AU_13_bxa_Step-5.wav","S9","13","bxa","5","CN","1","1","true"
"null","","fixation","html-keyboard-response","113","2612023","0.0-8.0-0.43","5ceb685da7afdc00166f8391","condB","","<div class=""vertical-center"" style='width:60%;'><p style='font-weight:bold;'>Does the middle word sound more like the first word (A) or the last word (B)?</p> <br> <div class=""container""> <div id=""a-box""> <p class=""title-text"">A</h3></p> </div> <div id=""x-box""> <p class=""title-text"">X<p> </div> <div id=""b-box""> <p class=""title-text"">B</p></div> <br> <div style='float: left;padding-left:30px;'><p>Press '1' for A</p></div><div style='float: right;padding-right:30px;'><p>Press '0' for B</p> </div> </div></div>","null","","","","","","","","","","","","","",""
"3059","","test","audio-keyboard-response","114","2615089","0.0-8.0-1.43","5ceb685da7afdc00166f8391","condB","","resources/audio/wordStim/S9_AU_14_axb_Step-6.wav","48","","","","","AU","resources/audio/wordStim/S9_AU_14_axb_Step-6.wav","S9","14","axb","6","CN","0","0","true"
"null","","fixation","html-keyboard-response","115","2616092","0.0-8.0-0.44","5ceb685da7afdc00166f8391","condB","","<div class=""vertical-center"" style='width:60%;'><p style='font-weight:bold;'>Does the middle word sound more like the first word (A) or the last word (B)?</p> <br> <div class=""container""> <div id=""a-box""> <p class=""title-text"">A</h3></p> </div> <div id=""x-box""> <p class=""title-text"">X<p> </div> <div id=""b-box""> <p class=""title-text"">B</p></div> <br> <div style='float: left;padding-left:30px;'><p>Press '1' for A</p></div><div style='float: right;padding-right:30px;'><p>Press '0' for B</p> </div> </div></div>","null","","","","","","","","","","","","","",""
"4560","","test","audio-keyboard-response","116","2620647","0.0-8.0-1.44","5ceb685da7afdc00166f8391","condB","","resources/audio/wordStim/S9_AI_23_bxa_Step-5.wav","48","","","","","AI","resources/audio/wordStim/S9_AI_23_bxa_Step-5.wav","S9","23","bxa","5","CN","1","0","false"
"null","","fixation","html-keyboard-response","117","2621660","0.0-8.0-0.45","5ceb685da7afdc00166f8391","condB","","<div class=""vertical-center"" style='width:60%;'><p style='font-weight:bold;'>Does the middle word sound more like the first word (A) or the last word (B)?</p> <br> <div class=""container""> <div id=""a-box""> <p class=""title-text"">A</h3></p> </div> <div id=""x-box""> <p class=""title-text"">X<p> </div> <div id=""b-box""> <p class=""title-text"">B</p></div> <br> <div style='float: left;padding-left:30px;'><p>Press '1' for A</p></div><div style='float: right;padding-right:30px;'><p>Press '0' for B</p> </div> </div></div>","null","","","","","","","","","","","","","",""
"2608","","test","audio-keyboard-response","118","2624285","0.0-8.0-1.45","5ceb685da7afdc00166f8391","condB","","resources/audio/wordStim/S3_AU_19_axb_Step-6.wav","48","","","","","AU","resources/audio/wordStim/S3_AU_19_axb_Step-6.wav","S3","19","axb","6","MI","0","0","true"
"null","","fixation","html-keyboard-response","119","2625289","0.0-8.0-0.46","5ceb685da7afdc00166f8391","condB","","<div class=""vertical-center"" style='width:60%;'><p style='font-weight:bold;'>Does the middle word sound more like the first word (A) or the last word (B)?</p> <br> <div class=""container""> <div id=""a-box""> <p class=""title-text"">A</h3></p> </div> <div id=""x-box""> <p class=""title-text"">X<p> </div> <div id=""b-box""> <p class=""title-text"">B</p></div> <br> <div style='float: left;padding-left:30px;'><p>Press '1' for A</p></div><div style='float: right;padding-right:30px;'><p>Press '0' for B</p> </div> </div></div>","null","","","","","","","","","","","","","",""
"2800","","test","audio-keyboard-response","120","2628100","0.0-8.0-1.46","5ceb685da7afdc00166f8391","condB","","resources/audio/wordStim/S9_AU_13_axb_Step-6.wav","48","","","","","AU","resources/audio/wordStim/S9_AU_13_axb_Step-6.wav","S9","13","axb","6","CN","0","0","true"
"null","","fixation","html-keyboard-response","121","2629101","0.0-8.0-0.47","5ceb685da7afdc00166f8391","condB","","<div class=""vertical-center"" style='width:60%;'><p style='font-weight:bold;'>Does the middle word sound more like the first word (A) or the last word (B)?</p> <br> <div class=""container""> <div id=""a-box""> <p class=""title-text"">A</h3></p> </div> <div id=""x-box""> <p class=""title-text"">X<p> </div> <div id=""b-box""> <p class=""title-text"">B</p></div> <br> <div style='float: left;padding-left:30px;'><p>Press '1' for A</p></div><div style='float: right;padding-right:30px;'><p>Press '0' for B</p> </div> </div></div>","null","","","","","","","","","","","","","",""
"3149","","test","audio-keyboard-response","122","2632264","0.0-8.0-1.47","5ceb685da7afdc00166f8391","condB","","resources/audio/wordStim/S3_AU_15_axb_Step-8.wav","49","","","","","AU","resources/audio/wordStim/S3_AU_15_axb_Step-8.wav","S3","15","axb","8","MI","0","1","false"
"null","","fixation","html-keyboard-response","123","2633265","0.0-8.0-0.48","5ceb685da7afdc00166f8391","condB","","<div class=""vertical-center"" style='width:60%;'><p style='font-weight:bold;'>Does the middle word sound more like the first word (A) or the last word (B)?</p> <br> <div class=""container""> <div id=""a-box""> <p class=""title-text"">A</h3></p> </div> <div id=""x-box""> <p class=""title-text"">X<p> </div> <div id=""b-box""> <p class=""title-text"">B</p></div> <br> <div style='float: left;padding-left:30px;'><p>Press '1' for A</p></div><div style='float: right;padding-right:30px;'><p>Press '0' for B</p> </div> </div></div>","null","","","","","","","","","","","","","",""
"2699","","test","audio-keyboard-response","124","2635959","0.0-8.0-1.48","5ceb685da7afdc00166f8391","condB","","resources/audio/wordStim/S3_AI_25_axb_Step-6.wav","49","","","","","AI","resources/audio/wordStim/S3_AI_25_axb_Step-6.wav","S3","25","axb","6","MI","0","1","false"
"null","","fixation","html-keyboard-response","125","2636963","0.0-8.0-0.49","5ceb685da7afdc00166f8391","condB","","<div class=""vertical-center"" style='width:60%;'><p style='font-weight:bold;'>Does the middle word sound more like the first word (A) or the last word (B)?</p> <br> <div class=""container""> <div id=""a-box""> <p class=""title-text"">A</h3></p> </div> <div id=""x-box""> <p class=""title-text"">X<p> </div> <div id=""b-box""> <p class=""title-text"">B</p></div> <br> <div style='float: left;padding-left:30px;'><p>Press '1' for A</p></div><div style='float: right;padding-right:30px;'><p>Press '0' for B</p> </div> </div></div>","null","","","","","","","","","","","","","",""
"3509","","test","audio-keyboard-response","126","2640478","0.0-8.0-1.49","5ceb685da7afdc00166f8391","condB","","resources/audio/wordStim/S9_AU_19_axb_Step-2.wav","49","","","","","AU","resources/audio/wordStim/S9_AU_19_axb_Step-2.wav","S9","19","axb","2","CN","0","1","false"
"null","","fixation","html-keyboard-response","127","2641481","0.0-8.0-0.50","5ceb685da7afdc00166f8391","condB","","<div class=""vertical-center"" style='width:60%;'><p style='font-weight:bold;'>Does the middle word sound more like the first word (A) or the last word (B)?</p> <br> <div class=""container""> <div id=""a-box""> <p class=""title-text"">A</h3></p> </div> <div id=""x-box""> <p class=""title-text"">X<p> </div> <div id=""b-box""> <p class=""title-text"">B</p></div> <br> <div style='float: left;padding-left:30px;'><p>Press '1' for A</p></div><div style='float: right;padding-right:30px;'><p>Press '0' for B</p> </div> </div></div>","null","","","","","","","","","","","","","",""
"3352","","test","audio-keyboard-response","128","2644837","0.0-8.0-1.50","5ceb685da7afdc00166f8391","condB","","resources/audio/wordStim/S9_AU_19_bxa_Step-10.wav","49","","","","","AU","resources/audio/wordStim/S9_AU_19_bxa_Step-10.wav","S9","19","bxa","10","CN","1","1","true"
"null","","fixation","html-keyboard-response","129","2645840","0.0-8.0-0.51","5ceb685da7afdc00166f8391","condB","","<div class=""vertical-center"" style='width:60%;'><p style='font-weight:bold;'>Does the middle word sound more like the first word (A) or the last word (B)?</p> <br> <div class=""container""> <div id=""a-box""> <p class=""title-text"">A</h3></p> </div> <div id=""x-box""> <p class=""title-text"">X<p> </div> <div id=""b-box""> <p class=""title-text"">B</p></div> <br> <div style='float: left;padding-left:30px;'><p>Press '1' for A</p></div><div style='float: right;padding-right:30px;'><p>Press '0' for B</p> </div> </div></div>","null","","","","","","","","","","","","","",""
"3749","","test","audio-keyboard-response","130","2649598","0.0-8.0-1.51","5ceb685da7afdc00166f8391","condB","","resources/audio/wordStim/S3_AI_30_axb_Step-4.wav","48","","","","","AI","resources/audio/wordStim/S3_AI_30_axb_Step-4.wav","S3","30","axb","4","MI","0","0","true"
"null","","fixation","html-keyboard-response","131","2650604","0.0-8.0-0.52","5ceb685da7afdc00166f8391","condB","","<div class=""vertical-center"" style='width:60%;'><p style='font-weight:bold;'>Does the middle word sound more like the first word (A) or the last word (B)?</p> <br> <div class=""container""> <div id=""a-box""> <p class=""title-text"">A</h3></p> </div> <div id=""x-box""> <p class=""title-text"">X<p> </div> <div id=""b-box""> <p class=""title-text"">B</p></div> <br> <div style='float: left;padding-left:30px;'><p>Press '1' for A</p></div><div style='float: right;padding-right:30px;'><p>Press '0' for B</p> </div> </div></div>","null","","","","","","","","","","","","","",""
"5152","","test","audio-keyboard-response","132","2655743","0.0-8.0-1.52","5ceb685da7afdc00166f8391","condB","","resources/audio/wordStim/S9_AI_27_axb_Step-6.wav","49","","","","","AI","resources/audio/wordStim/S9_AI_27_axb_Step-6.wav","S9","27","axb","6","CN","0","1","false"
"null","","fixation","html-keyboard-response","133","2656747","0.0-8.0-0.53","5ceb685da7afdc00166f8391","condB","","<div class=""vertical-center"" style='width:60%;'><p style='font-weight:bold;'>Does the middle word sound more like the first word (A) or the last word (B)?</p> <br> <div class=""container""> <div id=""a-box""> <p class=""title-text"">A</h3></p> </div> <div id=""x-box""> <p class=""title-text"">X<p> </div> <div id=""b-box""> <p class=""title-text"">B</p></div> <br> <div style='float: left;padding-left:30px;'><p>Press '1' for A</p></div><div style='float: right;padding-right:30px;'><p>Press '0' for B</p> </div> </div></div>","null","","","","","","","","","","","","","",""
"2840","","test","audio-keyboard-response","134","2659597","0.0-8.0-1.53","5ceb685da7afdc00166f8391","condB","","resources/audio/wordStim/S9_AU_20_axb_Step-2.wav","49","","","","","AU","resources/audio/wordStim/S9_AU_20_axb_Step-2.wav","S9","20","axb","2","CN","0","1","false"
"142959.7599999979","","break","html-keyboard-response","135","2803059","0.0-8.0-2.53-0.53","5ceb685da7afdc00166f8391","condB","","<div class=""vertical-center""><p>Feel free to take a break!</p><i>When you're ready to continue, press SPACE to begin the next trial.</i></p></div>","32","","","","","","","","","","","","","",""
"null","","fixation","html-keyboard-response","136","2803562","0.0-8.0-0.54","5ceb685da7afdc00166f8391","condB","","<div class=""vertical-center"" style='width:60%;'><p style='font-weight:bold;'>Does the middle word sound more like the first word (A) or the last word (B)?</p> <br> <div class=""container""> <div id=""a-box""> <p class=""title-text"">A</h3></p> </div> <div id=""x-box""> <p class=""title-text"">X<p> </div> <div id=""b-box""> <p class=""title-text"">B</p></div> <br> <div style='float: left;padding-left:30px;'><p>Press '1' for A</p></div><div style='float: right;padding-right:30px;'><p>Press '0' for B</p> </div> </div></div>","null","","","","","","","","","","","","","",""
"2669","","test","audio-keyboard-response","137","2806229","0.0-8.0-1.54","5ceb685da7afdc00166f8391","condB","","resources/audio/wordStim/S3_AU_14_bxa_Step-9.wav","49","","","","","AU","resources/audio/wordStim/S3_AU_14_bxa_Step-9.wav","S3","14","bxa","9","MI","1","1","true"
"null","","fixation","html-keyboard-response","138","2807232","0.0-8.0-0.55","5ceb685da7afdc00166f8391","condB","","<div class=""vertical-center"" style='width:60%;'><p style='font-weight:bold;'>Does the middle word sound more like the first word (A) or the last word (B)?</p> <br> <div class=""container""> <div id=""a-box""> <p class=""title-text"">A</h3></p> </div> <div id=""x-box""> <p class=""title-text"">X<p> </div> <div id=""b-box""> <p class=""title-text"">B</p></div> <br> <div style='float: left;padding-left:30px;'><p>Press '1' for A</p></div><div style='float: right;padding-right:30px;'><p>Press '0' for B</p> </div> </div></div>","null","","","","","","","","","","","","","",""
"3560","","test","audio-keyboard-response","139","2810794","0.0-8.0-1.55","5ceb685da7afdc00166f8391","condB","","resources/audio/wordStim/S3_AU_18_axb_Step-4.wav","48","","","","","AU","resources/audio/wordStim/S3_AU_18_axb_Step-4.wav","S3","18","axb","4","MI","0","0","true"
"null","","fixation","html-keyboard-response","140","2811798","0.0-8.0-0.56","5ceb685da7afdc00166f8391","condB","","<div class=""vertical-center"" style='width:60%;'><p style='font-weight:bold;'>Does the middle word sound more like the first word (A) or the last word (B)?</p> <br> <div class=""container""> <div id=""a-box""> <p class=""title-text"">A</h3></p> </div> <div id=""x-box""> <p class=""title-text"">X<p> </div> <div id=""b-box""> <p class=""title-text"">B</p></div> <br> <div style='float: left;padding-left:30px;'><p>Press '1' for A</p></div><div style='float: right;padding-right:30px;'><p>Press '0' for B</p> </div> </div></div>","null","","","","","","","","","","","","","",""
"3411","","test","audio-keyboard-response","141","2815193","0.0-8.0-1.56","5ceb685da7afdc00166f8391","condB","","resources/audio/wordStim/S9_AI_22_bxa_Step-7.wav","49","","","","","AI","resources/audio/wordStim/S9_AI_22_bxa_Step-7.wav","S9","22","bxa","7","CN","1","1","true"
"null","","fixation","html-keyboard-response","142","2816195","0.0-8.0-0.57","5ceb685da7afdc00166f8391","condB","","<div class=""vertical-center"" style='width:60%;'><p style='font-weight:bold;'>Does the middle word sound more like the first word (A) or the last word (B)?</p> <br> <div class=""container""> <div id=""a-box""> <p class=""title-text"">A</h3></p> </div> <div id=""x-box""> <p class=""title-text"">X<p> </div> <div id=""b-box""> <p class=""title-text"">B</p></div> <br> <div style='float: left;padding-left:30px;'><p>Press '1' for A</p></div><div style='float: right;padding-right:30px;'><p>Press '0' for B</p> </div> </div></div>","null","","","","","","","","","","","","","",""
"2672","","test","audio-keyboard-response","143","2818864","0.0-8.0-1.57","5ceb685da7afdc00166f8391","condB","","resources/audio/wordStim/S3_AI_25_bxa_Step-10.wav","49","","","","","AI","resources/audio/wordStim/S3_AI_25_bxa_Step-10.wav","S3","25","bxa","10","MI","1","1","true"
"null","","fixation","html-keyboard-response","144","2819866","0.0-8.0-0.58","5ceb685da7afdc00166f8391","condB","","<div class=""vertical-center"" style='width:60%;'><p style='font-weight:bold;'>Does the middle word sound more like the first word (A) or the last word (B)?</p> <br> <div class=""container""> <div id=""a-box""> <p class=""title-text"">A</h3></p> </div> <div id=""x-box""> <p class=""title-text"">X<p> </div> <div id=""b-box""> <p class=""title-text"">B</p></div> <br> <div style='float: left;padding-left:30px;'><p>Press '1' for A</p></div><div style='float: right;padding-right:30px;'><p>Press '0' for B</p> </div> </div></div>","null","","","","","","","","","","","","","",""
"3168","","test","audio-keyboard-response","145","2823031","0.0-8.0-1.58","5ceb685da7afdc00166f8391","condB","","resources/audio/wordStim/S3_AI_30_bxa_Step-10.wav","49","","","","","AI","resources/audio/wordStim/S3_AI_30_bxa_Step-10.wav","S3","30","bxa","10","MI","1","1","true"
"null","","fixation","html-keyboard-response","146","2824032","0.0-8.0-0.59","5ceb685da7afdc00166f8391","condB","","<div class=""vertical-center"" style='width:60%;'><p style='font-weight:bold;'>Does the middle word sound more like the first word (A) or the last word (B)?</p> <br> <div class=""container""> <div id=""a-box""> <p class=""title-text"">A</h3></p> </div> <div id=""x-box""> <p class=""title-text"">X<p> </div> <div id=""b-box""> <p class=""title-text"">B</p></div> <br> <div style='float: left;padding-left:30px;'><p>Press '1' for A</p></div><div style='float: right;padding-right:30px;'><p>Press '0' for B</p> </div> </div></div>","null","","","","","","","","","","","","","",""
"3472","","test","audio-keyboard-response","147","2827490","0.0-8.0-1.59","5ceb685da7afdc00166f8391","condB","","resources/audio/wordStim/S3_AU_18_bxa_Step-3.wav","48","","","","","AU","resources/audio/wordStim/S3_AU_18_bxa_Step-3.wav","S3","18","bxa","3","MI","1","0","false"
"null","","fixation","html-keyboard-response","148","2828491","0.0-8.0-0.60","5ceb685da7afdc00166f8391","condB","","<div class=""vertical-center"" style='width:60%;'><p style='font-weight:bold;'>Does the middle word sound more like the first word (A) or the last word (B)?</p> <br> <div class=""container""> <div id=""a-box""> <p class=""title-text"">A</h3></p> </div> <div id=""x-box""> <p class=""title-text"">X<p> </div> <div id=""b-box""> <p class=""title-text"">B</p></div> <br> <div style='float: left;padding-left:30px;'><p>Press '1' for A</p></div><div style='float: right;padding-right:30px;'><p>Press '0' for B</p> </div> </div></div>","null","","","","","","","","","","","","","",""
"3389","","test","audio-keyboard-response","149","2831870","0.0-8.0-1.60","5ceb685da7afdc00166f8391","condB","","resources/audio/wordStim/S3_AU_18_bxa_Step-5.wav","49","","","","","AU","resources/audio/wordStim/S3_AU_18_bxa_Step-5.wav","S3","18","bxa","5","MI","1","1","true"
"null","","fixation","html-keyboard-response","150","2832874","0.0-8.0-0.61","5ceb685da7afdc00166f8391","condB","","<div class=""vertical-center"" style='width:60%;'><p style='font-weight:bold;'>Does the middle word sound more like the first word (A) or the last word (B)?</p> <br> <div class=""container""> <div id=""a-box""> <p class=""title-text"">A</h3></p> </div> <div id=""x-box""> <p class=""title-text"">X<p> </div> <div id=""b-box""> <p class=""title-text"">B</p></div> <br> <div style='float: left;padding-left:30px;'><p>Press '1' for A</p></div><div style='float: right;padding-right:30px;'><p>Press '0' for B</p> </div> </div></div>","null","","","","","","","","","","","","","",""
"3061","","test","audio-keyboard-response","151","2835919","0.0-8.0-1.61","5ceb685da7afdc00166f8391","condB","","resources/audio/wordStim/S9_AI_30_axb_Step-6.wav","49","","","","","AI","resources/audio/wordStim/S9_AI_30_axb_Step-6.wav","S9","30","axb","6","CN","0","1","false"
"null","","fixation","html-keyboard-response","152","2836922","0.0-8.0-0.62","5ceb685da7afdc00166f8391","condB","","<div class=""vertical-center"" style='width:60%;'><p style='font-weight:bold;'>Does the middle word sound more like the first word (A) or the last word (B)?</p> <br> <div class=""container""> <div id=""a-box""> <p class=""title-text"">A</h3></p> </div> <div id=""x-box""> <p class=""title-text"">X<p> </div> <div id=""b-box""> <p class=""title-text"">B</p></div> <br> <div style='float: left;padding-left:30px;'><p>Press '1' for A</p></div><div style='float: right;padding-right:30px;'><p>Press '0' for B</p> </div> </div></div>","null","","","","","","","","","","","","","",""
"2611","","test","audio-keyboard-response","153","2839535","0.0-8.0-1.62","5ceb685da7afdc00166f8391","condB","","resources/audio/wordStim/S3_AU_15_bxa_Step-10.wav","49","","","","","AU","resources/audio/wordStim/S3_AU_15_bxa_Step-10.wav","S3","15","bxa","10","MI","1","1","true"
"null","","fixation","html-keyboard-response","154","2840537","0.0-8.0-0.63","5ceb685da7afdc00166f8391","condB","","<div class=""vertical-center"" style='width:60%;'><p style='font-weight:bold;'>Does the middle word sound more like the first word (A) or the last word (B)?</p> <br> <div class=""container""> <div id=""a-box""> <p class=""title-text"">A</h3></p> </div> <div id=""x-box""> <p class=""title-text"">X<p> </div> <div id=""b-box""> <p class=""title-text"">B</p></div> <br> <div style='float: left;padding-left:30px;'><p>Press '1' for A</p></div><div style='float: right;padding-right:30px;'><p>Press '0' for B</p> </div> </div></div>","null","","","","","","","","","","","","","",""
"3411","","test","audio-keyboard-response","155","2843936","0.0-8.0-1.63","5ceb685da7afdc00166f8391","condB","","resources/audio/wordStim/S9_AI_30_bxa_Step-3.wav","48","","","","","AI","resources/audio/wordStim/S9_AI_30_bxa_Step-3.wav","S9","30","bxa","3","CN","1","0","false"
"null","","fixation","html-keyboard-response","156","2844938","0.0-8.0-0.64","5ceb685da7afdc00166f8391","condB","","<div class=""vertical-center"" style='width:60%;'><p style='font-weight:bold;'>Does the middle word sound more like the first word (A) or the last word (B)?</p> <br> <div class=""container""> <div id=""a-box""> <p class=""title-text"">A</h3></p> </div> <div id=""x-box""> <p class=""title-text"">X<p> </div> <div id=""b-box""> <p class=""title-text"">B</p></div> <br> <div style='float: left;padding-left:30px;'><p>Press '1' for A</p></div><div style='float: right;padding-right:30px;'><p>Press '0' for B</p> </div> </div></div>","null","","","","","","","","","","","","","",""
"3979","","test","audio-keyboard-response","157","2848919","0.0-8.0-1.64","5ceb685da7afdc00166f8391","condB","","resources/audio/wordStim/S3_AU_14_bxa_Step-3.wav","49","","","","","AU","resources/audio/wordStim/S3_AU_14_bxa_Step-3.wav","S3","14","bxa","3","MI","1","1","true"
"null","","fixation","html-keyboard-response","158","2849923","0.0-8.0-0.65","5ceb685da7afdc00166f8391","condB","","<div class=""vertical-center"" style='width:60%;'><p style='font-weight:bold;'>Does the middle word sound more like the first word (A) or the last word (B)?</p> <br> <div class=""container""> <div id=""a-box""> <p class=""title-text"">A</h3></p> </div> <div id=""x-box""> <p class=""title-text"">X<p> </div> <div id=""b-box""> <p class=""title-text"">B</p></div> <br> <div style='float: left;padding-left:30px;'><p>Press '1' for A</p></div><div style='float: right;padding-right:30px;'><p>Press '0' for B</p> </div> </div></div>","null","","","","","","","","","","","","","",""
"3291","","test","audio-keyboard-response","159","2853203","0.0-8.0-1.65","5ceb685da7afdc00166f8391","condB","","resources/audio/wordStim/S3_AI_21_axb_Step-8.wav","49","","","","","AI","resources/audio/wordStim/S3_AI_21_axb_Step-8.wav","S3","21","axb","8","MI","0","1","false"
"null","","fixation","html-keyboard-response","160","2854206","0.0-8.0-0.66","5ceb685da7afdc00166f8391","condB","","<div class=""vertical-center"" style='width:60%;'><p style='font-weight:bold;'>Does the middle word sound more like the first word (A) or the last word (B)?</p> <br> <div class=""container""> <div id=""a-box""> <p class=""title-text"">A</h3></p> </div> <div id=""x-box""> <p class=""title-text"">X<p> </div> <div id=""b-box""> <p class=""title-text"">B</p></div> <br> <div style='float: left;padding-left:30px;'><p>Press '1' for A</p></div><div style='float: right;padding-right:30px;'><p>Press '0' for B</p> </div> </div></div>","null","","","","","","","","","","","","","",""
"2920","","test","audio-keyboard-response","161","2857125","0.0-8.0-1.66","5ceb685da7afdc00166f8391","condB","","resources/audio/wordStim/S3_AI_21_bxa_Step-5.wav","49","","","","","AI","resources/audio/wordStim/S3_AI_21_bxa_Step-5.wav","S3","21","bxa","5","MI","1","1","true"
"null","","fixation","html-keyboard-response","162","2858128","0.0-8.0-0.67","5ceb685da7afdc00166f8391","condB","","<div class=""vertical-center"" style='width:60%;'><p style='font-weight:bold;'>Does the middle word sound more like the first word (A) or the last word (B)?</p> <br> <div class=""container""> <div id=""a-box""> <p class=""title-text"">A</h3></p> </div> <div id=""x-box""> <p class=""title-text"">X<p> </div> <div id=""b-box""> <p class=""title-text"">B</p></div> <br> <div style='float: left;padding-left:30px;'><p>Press '1' for A</p></div><div style='float: right;padding-right:30px;'><p>Press '0' for B</p> </div> </div></div>","null","","","","","","","","","","","","","",""
"3069","","test","audio-keyboard-response","163","2861209","0.0-8.0-1.67","5ceb685da7afdc00166f8391","condB","","resources/audio/wordStim/S3_AI_25_axb_Step-4.wav","49","","","","","AI","resources/audio/wordStim/S3_AI_25_axb_Step-4.wav","S3","25","axb","4","MI","0","1","false"
"null","","fixation","html-keyboard-response","164","2862212","0.0-8.0-0.68","5ceb685da7afdc00166f8391","condB","","<div class=""vertical-center"" style='width:60%;'><p style='font-weight:bold;'>Does the middle word sound more like the first word (A) or the last word (B)?</p> <br> <div class=""container""> <div id=""a-box""> <p class=""title-text"">A</h3></p> </div> <div id=""x-box""> <p class=""title-text"">X<p> </div> <div id=""b-box""> <p class=""title-text"">B</p></div> <br> <div style='float: left;padding-left:30px;'><p>Press '1' for A</p></div><div style='float: right;padding-right:30px;'><p>Press '0' for B</p> </div> </div></div>","null","","","","","","","","","","","","","",""
"2819","","test","audio-keyboard-response","165","2865021","0.0-8.0-1.68","5ceb685da7afdc00166f8391","condB","","resources/audio/wordStim/S3_AI_25_bxa_Step-9.wav","49","","","","","AI","resources/audio/wordStim/S3_AI_25_bxa_Step-9.wav","S3","25","bxa","9","MI","1","1","true"
"null","","fixation","html-keyboard-response","166","2866023","0.0-8.0-0.69","5ceb685da7afdc00166f8391","condB","","<div class=""vertical-center"" style='width:60%;'><p style='font-weight:bold;'>Does the middle word sound more like the first word (A) or the last word (B)?</p> <br> <div class=""container""> <div id=""a-box""> <p class=""title-text"">A</h3></p> </div> <div id=""x-box""> <p class=""title-text"">X<p> </div> <div id=""b-box""> <p class=""title-text"">B</p></div> <br> <div style='float: left;padding-left:30px;'><p>Press '1' for A</p></div><div style='float: right;padding-right:30px;'><p>Press '0' for B</p> </div> </div></div>","null","","","","","","","","","","","","","",""
"2819","","test","audio-keyboard-response","167","2868832","0.0-8.0-1.69","5ceb685da7afdc00166f8391","condB","","resources/audio/wordStim/S9_AU_16_axb_Step-2.wav","49","","","","","AU","resources/audio/wordStim/S9_AU_16_axb_Step-2.wav","S9","16","axb","2","CN","0","1","false"
"null","","fixation","html-keyboard-response","168","2869835","0.0-8.0-0.70","5ceb685da7afdc00166f8391","condB","","<div class=""vertical-center"" style='width:60%;'><p style='font-weight:bold;'>Does the middle word sound more like the first word (A) or the last word (B)?</p> <br> <div class=""container""> <div id=""a-box""> <p class=""title-text"">A</h3></p> </div> <div id=""x-box""> <p class=""title-text"">X<p> </div> <div id=""b-box""> <p class=""title-text"">B</p></div> <br> <div style='float: left;padding-left:30px;'><p>Press '1' for A</p></div><div style='float: right;padding-right:30px;'><p>Press '0' for B</p> </div> </div></div>","null","","","","","","","","","","","","","",""
"3032","","test","audio-keyboard-response","169","2872852","0.0-8.0-1.70","5ceb685da7afdc00166f8391","condB","","resources/audio/wordStim/S3_AI_23_bxa_Step-5.wav","49","","","","","AI","resources/audio/wordStim/S3_AI_23_bxa_Step-5.wav","S3","23","bxa","5","MI","1","1","true"
"null","","fixation","html-keyboard-response","170","2873855","0.0-8.0-0.71","5ceb685da7afdc00166f8391","condB","","<div class=""vertical-center"" style='width:60%;'><p style='font-weight:bold;'>Does the middle word sound more like the first word (A) or the last word (B)?</p> <br> <div class=""container""> <div id=""a-box""> <p class=""title-text"">A</h3></p> </div> <div id=""x-box""> <p class=""title-text"">X<p> </div> <div id=""b-box""> <p class=""title-text"">B</p></div> <br> <div style='float: left;padding-left:30px;'><p>Press '1' for A</p></div><div style='float: right;padding-right:30px;'><p>Press '0' for B</p> </div> </div></div>","null","","","","","","","","","","","","","",""
"6539","","test","audio-keyboard-response","171","2880382","0.0-8.0-1.71","5ceb685da7afdc00166f8391","condB","","resources/audio/wordStim/S3_AU_15_bxa_Step-7.wav","49","","","","","AU","resources/audio/wordStim/S3_AU_15_bxa_Step-7.wav","S3","15","bxa","7","MI","1","1","true"
"null","","fixation","html-keyboard-response","172","2881386","0.0-8.0-0.72","5ceb685da7afdc00166f8391","condB","","<div class=""vertical-center"" style='width:60%;'><p style='font-weight:bold;'>Does the middle word sound more like the first word (A) or the last word (B)?</p> <br> <div class=""container""> <div id=""a-box""> <p class=""title-text"">A</h3></p> </div> <div id=""x-box""> <p class=""title-text"">X<p> </div> <div id=""b-box""> <p class=""title-text"">B</p></div> <br> <div style='float: left;padding-left:30px;'><p>Press '1' for A</p></div><div style='float: right;padding-right:30px;'><p>Press '0' for B</p> </div> </div></div>","null","","","","","","","","","","","","","",""
"3699","","test","audio-keyboard-response","173","2885079","0.0-8.0-1.72","5ceb685da7afdc00166f8391","condB","","resources/audio/wordStim/S3_AU_11_axb_Step-6.wav","48","","","","","AU","resources/audio/wordStim/S3_AU_11_axb_Step-6.wav","S3","11","axb","6","MI","0","0","true"
"null","","fixation","html-keyboard-response","174","2886082","0.0-8.0-0.73","5ceb685da7afdc00166f8391","condB","","<div class=""vertical-center"" style='width:60%;'><p style='font-weight:bold;'>Does the middle word sound more like the first word (A) or the last word (B)?</p> <br> <div class=""container""> <div id=""a-box""> <p class=""title-text"">A</h3></p> </div> <div id=""x-box""> <p class=""title-text"">X<p> </div> <div id=""b-box""> <p class=""title-text"">B</p></div> <br> <div style='float: left;padding-left:30px;'><p>Press '1' for A</p></div><div style='float: right;padding-right:30px;'><p>Press '0' for B</p> </div> </div></div>","null","","","","","","","","","","","","","",""
"2939","","test","audio-keyboard-response","175","2889023","0.0-8.0-1.73","5ceb685da7afdc00166f8391","condB","","resources/audio/wordStim/S9_AI_27_bxa_Step-7.wav","49","","","","","AI","resources/audio/wordStim/S9_AI_27_bxa_Step-7.wav","S9","27","bxa","7","CN","1","1","true"
"null","","fixation","html-keyboard-response","176","2890027","0.0-8.0-0.74","5ceb685da7afdc00166f8391","condB","","<div class=""vertical-center"" style='width:60%;'><p style='font-weight:bold;'>Does the middle word sound more like the first word (A) or the last word (B)?</p> <br> <div class=""container""> <div id=""a-box""> <p class=""title-text"">A</h3></p> </div> <div id=""x-box""> <p class=""title-text"">X<p> </div> <div id=""b-box""> <p class=""title-text"">B</p></div> <br> <div style='float: left;padding-left:30px;'><p>Press '1' for A</p></div><div style='float: right;padding-right:30px;'><p>Press '0' for B</p> </div> </div></div>","null","","","","","","","","","","","","","",""
"3400","","test","audio-keyboard-response","177","2893426","0.0-8.0-1.74","5ceb685da7afdc00166f8391","condB","","resources/audio/wordStim/S9_AU_11_bxa_Step-10.wav","49","","","","","AU","resources/audio/wordStim/S9_AU_11_bxa_Step-10.wav","S9","11","bxa","10","CN","1","1","true"
"null","","fixation","html-keyboard-response","178","2894429","0.0-8.0-0.75","5ceb685da7afdc00166f8391","condB","","<div class=""vertical-center"" style='width:60%;'><p style='font-weight:bold;'>Does the middle word sound more like the first word (A) or the last word (B)?</p> <br> <div class=""container""> <div id=""a-box""> <p class=""title-text"">A</h3></p> </div> <div id=""x-box""> <p class=""title-text"">X<p> </div> <div id=""b-box""> <p class=""title-text"">B</p></div> <br> <div style='float: left;padding-left:30px;'><p>Press '1' for A</p></div><div style='float: right;padding-right:30px;'><p>Press '0' for B</p> </div> </div></div>","null","","","","","","","","","","","","","",""
"3600","","test","audio-keyboard-response","179","2898020","0.0-8.0-1.75","5ceb685da7afdc00166f8391","condB","","resources/audio/wordStim/S3_AU_17_axb_Step-6.wav","49","","","","","AU","resources/audio/wordStim/S3_AU_17_axb_Step-6.wav","S3","17","axb","6","MI","0","1","false"
"null","","fixation","html-keyboard-response","180","2899022","0.0-8.0-0.76","5ceb685da7afdc00166f8391","condB","","<div class=""vertical-center"" style='width:60%;'><p style='font-weight:bold;'>Does the middle word sound more like the first word (A) or the last word (B)?</p> <br> <div class=""container""> <div id=""a-box""> <p class=""title-text"">A</h3></p> </div> <div id=""x-box""> <p class=""title-text"">X<p> </div> <div id=""b-box""> <p class=""title-text"">B</p></div> <br> <div style='float: left;padding-left:30px;'><p>Press '1' for A</p></div><div style='float: right;padding-right:30px;'><p>Press '0' for B</p> </div> </div></div>","null","","","","","","","","","","","","","",""
"3448","","test","audio-keyboard-response","181","2902466","0.0-8.0-1.76","5ceb685da7afdc00166f8391","condB","","resources/audio/wordStim/S9_AI_24_bxa_Step-3.wav","49","","","","","AI","resources/audio/wordStim/S9_AI_24_bxa_Step-3.wav","S9","24","bxa","3","CN","1","1","true"
"null","","fixation","html-keyboard-response","182","2903470","0.0-8.0-0.77","5ceb685da7afdc00166f8391","condB","","<div class=""vertical-center"" style='width:60%;'><p style='font-weight:bold;'>Does the middle word sound more like the first word (A) or the last word (B)?</p> <br> <div class=""container""> <div id=""a-box""> <p class=""title-text"">A</h3></p> </div> <div id=""x-box""> <p class=""title-text"">X<p> </div> <div id=""b-box""> <p class=""title-text"">B</p></div> <br> <div style='float: left;padding-left:30px;'><p>Press '1' for A</p></div><div style='float: right;padding-right:30px;'><p>Press '0' for B</p> </div> </div></div>","null","","","","","","","","","","","","","",""
"3381","","test","audio-keyboard-response","183","2906840","0.0-8.0-1.77","5ceb685da7afdc00166f8391","condB","","resources/audio/wordStim/S9_AU_11_bxa_Step-7.wav","48","","","","","AU","resources/audio/wordStim/S9_AU_11_bxa_Step-7.wav","S9","11","bxa","7","CN","1","0","false"
"null","","fixation","html-keyboard-response","184","2907843","0.0-8.0-0.78","5ceb685da7afdc00166f8391","condB","","<div class=""vertical-center"" style='width:60%;'><p style='font-weight:bold;'>Does the middle word sound more like the first word (A) or the last word (B)?</p> <br> <div class=""container""> <div id=""a-box""> <p class=""title-text"">A</h3></p> </div> <div id=""x-box""> <p class=""title-text"">X<p> </div> <div id=""b-box""> <p class=""title-text"">B</p></div> <br> <div style='float: left;padding-left:30px;'><p>Press '1' for A</p></div><div style='float: right;padding-right:30px;'><p>Press '0' for B</p> </div> </div></div>","null","","","","","","","","","","","","","",""
"3000","","test","audio-keyboard-response","185","2910829","0.0-8.0-1.78","5ceb685da7afdc00166f8391","condB","","resources/audio/wordStim/S9_AI_27_axb_Step-4.wav","49","","","","","AI","resources/audio/wordStim/S9_AI_27_axb_Step-4.wav","S9","27","axb","4","CN","0","1","false"
"null","","fixation","html-keyboard-response","186","2911834","0.0-8.0-0.79","5ceb685da7afdc00166f8391","condB","","<div class=""vertical-center"" style='width:60%;'><p style='font-weight:bold;'>Does the middle word sound more like the first word (A) or the last word (B)?</p> <br> <div class=""container""> <div id=""a-box""> <p class=""title-text"">A</h3></p> </div> <div id=""x-box""> <p class=""title-text"">X<p> </div> <div id=""b-box""> <p class=""title-text"">B</p></div> <br> <div style='float: left;padding-left:30px;'><p>Press '1' for A</p></div><div style='float: right;padding-right:30px;'><p>Press '0' for B</p> </div> </div></div>","null","","","","","","","","","","","","","",""
"3571","","test","audio-keyboard-response","187","2915396","0.0-8.0-1.79","5ceb685da7afdc00166f8391","condB","","resources/audio/wordStim/S3_AU_15_bxa_Step-5.wav","49","","","","","AU","resources/audio/wordStim/S3_AU_15_bxa_Step-5.wav","S3","15","bxa","5","MI","1","1","true"
"null","","fixation","html-keyboard-response","188","2916400","0.0-8.0-0.80","5ceb685da7afdc00166f8391","condB","","<div class=""vertical-center"" style='width:60%;'><p style='font-weight:bold;'>Does the middle word sound more like the first word (A) or the last word (B)?</p> <br> <div class=""container""> <div id=""a-box""> <p class=""title-text"">A</h3></p> </div> <div id=""x-box""> <p class=""title-text"">X<p> </div> <div id=""b-box""> <p class=""title-text"">B</p></div> <br> <div style='float: left;padding-left:30px;'><p>Press '1' for A</p></div><div style='float: right;padding-right:30px;'><p>Press '0' for B</p> </div> </div></div>","null","","","","","","","","","","","","","",""
"2989","","test","audio-keyboard-response","189","2919384","0.0-8.0-1.80","5ceb685da7afdc00166f8391","condB","","resources/audio/wordStim/S9_AI_29_bxa_Step-9.wav","49","","","","","AI","resources/audio/wordStim/S9_AI_29_bxa_Step-9.wav","S9","29","bxa","9","CN","1","1","true"
"4450.095000211149","","break","html-keyboard-response","190","2924336","0.0-8.0-2.80-0.80","5ceb685da7afdc00166f8391","condB","","<div class=""vertical-center""><p>Feel free to take a break!</p><i>When you're ready to continue, press SPACE to begin the next trial.</i></p></div>","32","","","","","","","","","","","","","",""
"null","","fixation","html-keyboard-response","191","2924837","0.0-8.0-0.81","5ceb685da7afdc00166f8391","condB","","<div class=""vertical-center"" style='width:60%;'><p style='font-weight:bold;'>Does the middle word sound more like the first word (A) or the last word (B)?</p> <br> <div class=""container""> <div id=""a-box""> <p class=""title-text"">A</h3></p> </div> <div id=""x-box""> <p class=""title-text"">X<p> </div> <div id=""b-box""> <p class=""title-text"">B</p></div> <br> <div style='float: left;padding-left:30px;'><p>Press '1' for A</p></div><div style='float: right;padding-right:30px;'><p>Press '0' for B</p> </div> </div></div>","null","","","","","","","","","","","","","",""
"2840","","test","audio-keyboard-response","192","2927675","0.0-8.0-1.81","5ceb685da7afdc00166f8391","condB","","resources/audio/wordStim/S9_AI_23_bxa_Step-7.wav","49","","","","","AI","resources/audio/wordStim/S9_AI_23_bxa_Step-7.wav","S9","23","bxa","7","CN","1","1","true"
"null","","fixation","html-keyboard-response","193","2928678","0.0-8.0-0.82","5ceb685da7afdc00166f8391","condB","","<div class=""vertical-center"" style='width:60%;'><p style='font-weight:bold;'>Does the middle word sound more like the first word (A) or the last word (B)?</p> <br> <div class=""container""> <div id=""a-box""> <p class=""title-text"">A</h3></p> </div> <div id=""x-box""> <p class=""title-text"">X<p> </div> <div id=""b-box""> <p class=""title-text"">B</p></div> <br> <div style='float: left;padding-left:30px;'><p>Press '1' for A</p></div><div style='float: right;padding-right:30px;'><p>Press '0' for B</p> </div> </div></div>","null","","","","","","","","","","","","","",""
"3280","","test","audio-keyboard-response","194","2931961","0.0-8.0-1.82","5ceb685da7afdc00166f8391","condB","","resources/audio/wordStim/S3_AU_11_bxa_Step-9.wav","49","","","","","AU","resources/audio/wordStim/S3_AU_11_bxa_Step-9.wav","S3","11","bxa","9","MI","1","1","true"
"null","","fixation","html-keyboard-response","195","2932963","0.0-8.0-0.83","5ceb685da7afdc00166f8391","condB","","<div class=""vertical-center"" style='width:60%;'><p style='font-weight:bold;'>Does the middle word sound more like the first word (A) or the last word (B)?</p> <br> <div class=""container""> <div id=""a-box""> <p class=""title-text"">A</h3></p> </div> <div id=""x-box""> <p class=""title-text"">X<p> </div> <div id=""b-box""> <p class=""title-text"">B</p></div> <br> <div style='float: left;padding-left:30px;'><p>Press '1' for A</p></div><div style='float: right;padding-right:30px;'><p>Press '0' for B</p> </div> </div></div>","null","","","","","","","","","","","","","",""
"3200","","test","audio-keyboard-response","196","2936161","0.0-8.0-1.83","5ceb685da7afdc00166f8391","condB","","resources/audio/wordStim/S9_AI_30_axb_Step-2.wav","49","","","","","AI","resources/audio/wordStim/S9_AI_30_axb_Step-2.wav","S9","30","axb","2","CN","0","1","false"
"null","","fixation","html-keyboard-response","197","2937163","0.0-8.0-0.84","5ceb685da7afdc00166f8391","condB","","<div class=""vertical-center"" style='width:60%;'><p style='font-weight:bold;'>Does the middle word sound more like the first word (A) or the last word (B)?</p> <br> <div class=""container""> <div id=""a-box""> <p class=""title-text"">A</h3></p> </div> <div id=""x-box""> <p class=""title-text"">X<p> </div> <div id=""b-box""> <p class=""title-text"">B</p></div> <br> <div style='float: left;padding-left:30px;'><p>Press '1' for A</p></div><div style='float: right;padding-right:30px;'><p>Press '0' for B</p> </div> </div></div>","null","","","","","","","","","","","","","",""
"3389","","test","audio-keyboard-response","198","2940555","0.0-8.0-1.84","5ceb685da7afdc00166f8391","condB","","resources/audio/wordStim/S9_AI_27_axb_Step-2.wav","49","","","","","AI","resources/audio/wordStim/S9_AI_27_axb_Step-2.wav","S9","27","axb","2","CN","0","1","false"
"null","","fixation","html-keyboard-response","199","2941557","0.0-8.0-0.85","5ceb685da7afdc00166f8391","condB","","<div class=""vertical-center"" style='width:60%;'><p style='font-weight:bold;'>Does the middle word sound more like the first word (A) or the last word (B)?</p> <br> <div class=""container""> <div id=""a-box""> <p class=""title-text"">A</h3></p> </div> <div id=""x-box""> <p class=""title-text"">X<p> </div> <div id=""b-box""> <p class=""title-text"">B</p></div> <br> <div style='float: left;padding-left:30px;'><p>Press '1' for A</p></div><div style='float: right;padding-right:30px;'><p>Press '0' for B</p> </div> </div></div>","null","","","","","","","","","","","","","",""
"3989","","test","audio-keyboard-response","200","2945557","0.0-8.0-1.85","5ceb685da7afdc00166f8391","condB","","resources/audio/wordStim/S9_AI_23_axb_Step-6.wav","49","","","","","AI","resources/audio/wordStim/S9_AI_23_axb_Step-6.wav","S9","23","axb","6","CN","0","1","false"
"null","","fixation","html-keyboard-response","201","2946560","0.0-8.0-0.86","5ceb685da7afdc00166f8391","condB","","<div class=""vertical-center"" style='width:60%;'><p style='font-weight:bold;'>Does the middle word sound more like the first word (A) or the last word (B)?</p> <br> <div class=""container""> <div id=""a-box""> <p class=""title-text"">A</h3></p> </div> <div id=""x-box""> <p class=""title-text"">X<p> </div> <div id=""b-box""> <p class=""title-text"">B</p></div> <br> <div style='float: left;padding-left:30px;'><p>Press '1' for A</p></div><div style='float: right;padding-right:30px;'><p>Press '0' for B</p> </div> </div></div>","null","","","","","","","","","","","","","",""
"2909","","test","audio-keyboard-response","202","2949481","0.0-8.0-1.86","5ceb685da7afdc00166f8391","condB","","resources/audio/wordStim/S3_AU_11_bxa_Step-5.wav","48","","","","","AU","resources/audio/wordStim/S3_AU_11_bxa_Step-5.wav","S3","11","bxa","5","MI","1","0","false"
"null","","fixation","html-keyboard-response","203","2950484","0.0-8.0-0.87","5ceb685da7afdc00166f8391","condB","","<div class=""vertical-center"" style='width:60%;'><p style='font-weight:bold;'>Does the middle word sound more like the first word (A) or the last word (B)?</p> <br> <div class=""container""> <div id=""a-box""> <p class=""title-text"">A</h3></p> </div> <div id=""x-box""> <p class=""title-text"">X<p> </div> <div id=""b-box""> <p class=""title-text"">B</p></div> <br> <div style='float: left;padding-left:30px;'><p>Press '1' for A</p></div><div style='float: right;padding-right:30px;'><p>Press '0' for B</p> </div> </div></div>","null","","","","","","","","","","","","","",""
"4891","","test","audio-keyboard-response","204","2955373","0.0-8.0-1.87","5ceb685da7afdc00166f8391","condB","","resources/audio/wordStim/S3_AI_23_axb_Step-2.wav","49","","","","","AI","resources/audio/wordStim/S3_AI_23_axb_Step-2.wav","S3","23","axb","2","MI","0","1","false"
"null","","fixation","html-keyboard-response","205","2956377","0.0-8.0-0.88","5ceb685da7afdc00166f8391","condB","","<div class=""vertical-center"" style='width:60%;'><p style='font-weight:bold;'>Does the middle word sound more like the first word (A) or the last word (B)?</p> <br> <div class=""container""> <div id=""a-box""> <p class=""title-text"">A</h3></p> </div> <div id=""x-box""> <p class=""title-text"">X<p> </div> <div id=""b-box""> <p class=""title-text"">B</p></div> <br> <div style='float: left;padding-left:30px;'><p>Press '1' for A</p></div><div style='float: right;padding-right:30px;'><p>Press '0' for B</p> </div> </div></div>","null","","","","","","","","","","","","","",""
"3419","","test","audio-keyboard-response","206","2959797","0.0-8.0-1.88","5ceb685da7afdc00166f8391","condB","","resources/audio/wordStim/S3_AU_16_bxa_Step-7.wav","48","","","","","AU","resources/audio/wordStim/S3_AU_16_bxa_Step-7.wav","S3","16","bxa","7","MI","1","0","false"
"null","","fixation","html-keyboard-response","207","2960798","0.0-8.0-0.89","5ceb685da7afdc00166f8391","condB","","<div class=""vertical-center"" style='width:60%;'><p style='font-weight:bold;'>Does the middle word sound more like the first word (A) or the last word (B)?</p> <br> <div class=""container""> <div id=""a-box""> <p class=""title-text"">A</h3></p> </div> <div id=""x-box""> <p class=""title-text"">X<p> </div> <div id=""b-box""> <p class=""title-text"">B</p></div> <br> <div style='float: left;padding-left:30px;'><p>Press '1' for A</p></div><div style='float: right;padding-right:30px;'><p>Press '0' for B</p> </div> </div></div>","null","","","","","","","","","","","","","",""
"3709","","test","audio-keyboard-response","208","2964513","0.0-8.0-1.89","5ceb685da7afdc00166f8391","condB","","resources/audio/wordStim/S3_AU_16_axb_Step-4.wav","48","","","","","AU","resources/audio/wordStim/S3_AU_16_axb_Step-4.wav","S3","16","axb","4","MI","0","0","true"
"null","","fixation","html-keyboard-response","209","2965517","0.0-8.0-0.90","5ceb685da7afdc00166f8391","condB","","<div class=""vertical-center"" style='width:60%;'><p style='font-weight:bold;'>Does the middle word sound more like the first word (A) or the last word (B)?</p> <br> <div class=""container""> <div id=""a-box""> <p class=""title-text"">A</h3></p> </div> <div id=""x-box""> <p class=""title-text"">X<p> </div> <div id=""b-box""> <p class=""title-text"">B</p></div> <br> <div style='float: left;padding-left:30px;'><p>Press '1' for A</p></div><div style='float: right;padding-right:30px;'><p>Press '0' for B</p> </div> </div></div>","null","","","","","","","","","","","","","",""
"3509","","test","audio-keyboard-response","210","2969047","0.0-8.0-1.90","5ceb685da7afdc00166f8391","condB","","resources/audio/wordStim/S9_AI_25_bxa_Step-3.wav","48","","","","","AI","resources/audio/wordStim/S9_AI_25_bxa_Step-3.wav","S9","25","bxa","3","CN","1","0","false"
"null","","fixation","html-keyboard-response","211","2970049","0.0-8.0-0.91","5ceb685da7afdc00166f8391","condB","","<div class=""vertical-center"" style='width:60%;'><p style='font-weight:bold;'>Does the middle word sound more like the first word (A) or the last word (B)?</p> <br> <div class=""container""> <div id=""a-box""> <p class=""title-text"">A</h3></p> </div> <div id=""x-box""> <p class=""title-text"">X<p> </div> <div id=""b-box""> <p class=""title-text"">B</p></div> <br> <div style='float: left;padding-left:30px;'><p>Press '1' for A</p></div><div style='float: right;padding-right:30px;'><p>Press '0' for B</p> </div> </div></div>","null","","","","","","","","","","","","","",""
"3640","","test","audio-keyboard-response","212","2973702","0.0-8.0-1.91","5ceb685da7afdc00166f8391","condB","","resources/audio/wordStim/S9_AI_24_axb_Step-2.wav","48","","","","","AI","resources/audio/wordStim/S9_AI_24_axb_Step-2.wav","S9","24","axb","2","CN","0","0","true"
"null","","fixation","html-keyboard-response","213","2974704","0.0-8.0-0.92","5ceb685da7afdc00166f8391","condB","","<div class=""vertical-center"" style='width:60%;'><p style='font-weight:bold;'>Does the middle word sound more like the first word (A) or the last word (B)?</p> <br> <div class=""container""> <div id=""a-box""> <p class=""title-text"">A</h3></p> </div> <div id=""x-box""> <p class=""title-text"">X<p> </div> <div id=""b-box""> <p class=""title-text"">B</p></div> <br> <div style='float: left;padding-left:30px;'><p>Press '1' for A</p></div><div style='float: right;padding-right:30px;'><p>Press '0' for B</p> </div> </div></div>","null","","","","","","","","","","","","","",""
"3421","","test","audio-keyboard-response","214","2978132","0.0-8.0-1.92","5ceb685da7afdc00166f8391","condB","","resources/audio/wordStim/S3_AI_28_bxa_Step-9.wav","48","","","","","AI","resources/audio/wordStim/S3_AI_28_bxa_Step-9.wav","S3","28","bxa","9","MI","1","0","false"
