"rt","url","trial_role","trial_type","trial_index","time_elapsed","internal_node_id","participantId","condition","view_history","stimulus","key_press","button_pressed","correct_answer","correct_response","success","vowel","wordStim","speaker","sentNum","order","step","speakerIdentity","raised_answer","key_response","raised_response"
"4762.695000001258","micr.con.consent.html","consent","external-html","0","5476","0.0-0.0","5db37bb9da032c000f9e04fa","condB","","","","","","","","","","","","","","","","",""
"28155.210000000807","","instructions","instructions","1","33636","0.0-1.0","5db37bb9da032c000f9e04fa","condB","[{""page_index"":0,""viewing_time"":12441.130000002886},{""page_index"":1,""viewing_time"":4914.279999997234},{""page_index"":2,""viewing_time"":10798.450000002049}]","","","","","","","","","","","","","","","",""
"null","","fixation","html-keyboard-response","2","34139","0.0-2.0-0.0","5db37bb9da032c000f9e04fa","condB","","<div class=""vertical-center"" style=""font-size:60px;"">+</div>","null","","","","","","","","","","","","","",""
"5817.074999999022","","tonetest","audio-button-response","3","39961","0.0-2.0-1.0","5db37bb9da032c000f9e04fa","condB","","../../src/audio/toneTest_6.wav","","0","0","true","","","","","","","","","","",""
"null","","fixation","html-keyboard-response","4","40463","0.0-2.0-0.1","5db37bb9da032c000f9e04fa","condB","","<div class=""vertical-center"" style=""font-size:60px;"">+</div>","null","","","","","","","","","","","","","",""
"4568.849999999657","","tonetest","audio-button-response","5","45034","0.0-2.0-1.1","5db37bb9da032c000f9e04fa","condB","","../../src/audio/toneTest_3.wav","","2","2","true","","","","","","","","","","",""
"null","","fixation","html-keyboard-response","6","45536","0.0-2.0-0.2","5db37bb9da032c000f9e04fa","condB","","<div class=""vertical-center"" style=""font-size:60px;"">+</div>","null","","","","","","","","","","","","","",""
"4505.4999999993015","","tonetest","audio-button-response","7","50044","0.0-2.0-1.2","5db37bb9da032c000f9e04fa","condB","","../../src/audio/toneTest_1.wav","","2","2","true","","","","","","","","","","",""
"null","","fixation","html-keyboard-response","8","50545","0.0-2.0-0.3","5db37bb9da032c000f9e04fa","condB","","<div class=""vertical-center"" style=""font-size:60px;"">+</div>","null","","","","","","","","","","","","","",""
"4499.13000000015","","tonetest","audio-button-response","9","55047","0.0-2.0-1.3","5db37bb9da032c000f9e04fa","condB","","../../src/audio/toneTest_6.wav","","0","0","true","","","","","","","","","","",""
"null","","fixation","html-keyboard-response","10","55548","0.0-2.0-0.4","5db37bb9da032c000f9e04fa","condB","","<div class=""vertical-center"" style=""font-size:60px;"">+</div>","null","","","","","","","","","","","","","",""
"4627.389999997831","","tonetest","audio-button-response","11","60177","0.0-2.0-1.4","5db37bb9da032c000f9e04fa","condB","","../../src/audio/toneTest_5.wav","","0","0","true","","","","","","","","","","",""
"null","","fixation","html-keyboard-response","12","60679","0.0-2.0-0.5","5db37bb9da032c000f9e04fa","condB","","<div class=""vertical-center"" style=""font-size:60px;"">+</div>","null","","","","","","","","","","","","","",""
"4970.015000002604","","tonetest","audio-button-response","13","65651","0.0-2.0-1.5","5db37bb9da032c000f9e04fa","condB","","../../src/audio/toneTest_6.wav","","0","0","true","","","","","","","","","","",""
"4595.665000000736","","instructions","html-keyboard-response","14","70250","0.0-3.0","5db37bb9da032c000f9e04fa","condB","","<div class=""vertical-center""><p><b>Your score was 6/6.</b></p><p>If you scored below 6, please ensure that you are wearing headphones and in a quiet location free of distractions.</p><p><i>To continue to the main experiment, press SPACE.</i></p></div>","32","","","","","","","","","","","","","",""
"","","","fullscreen","15","73971","0.0-4.0","5db37bb9da032c000f9e04fa","condB","","","","","","","true","","","","","","","","","",""
"17939.11500000104","","instructions","instructions","16","91911","0.0-5.0","5db37bb9da032c000f9e04fa","condB","[{""page_index"":0,""viewing_time"":17938.954999997804}]","","","","","","","","","","","","","","","",""
"null","","fixation","html-keyboard-response","17","92412","0.0-6.0-0.0","5db37bb9da032c000f9e04fa","condB","","<div class=""vertical-center"" style='width:60%;'><p style='font-weight:bold;'>Does the middle word sound more like the first word (A) or the last word (B)?</p> <br> <div class=""container""> <div id=""a-box""> <p class=""title-text"">A</h3></p> </div> <div id=""x-box""> <p class=""title-text"">X<p> </div> <div id=""b-box""> <p class=""title-text"">B</p></div> <br> <div style='float: left;padding-left:30px;'><p>Press '1' for A</p></div><div style='float: right;padding-right:30px;'><p>Press '0' for B</p> </div> </div></div>","null","","","","","","","","","","","","","",""
"3796","","practice","audio-keyboard-response","18","96213","0.0-6.0-1.0","5db37bb9da032c000f9e04fa","condB","","resources/audio/practiceStim/S1_AI_21_bxa_Step-6.wav","48","","","","","","","","","","","","","",""
"null","","fixation","html-keyboard-response","19","97217","0.0-6.0-0.1","5db37bb9da032c000f9e04fa","condB","","<div class=""vertical-center"" style='width:60%;'><p style='font-weight:bold;'>Does the middle word sound more like the first word (A) or the last word (B)?</p> <br> <div class=""container""> <div id=""a-box""> <p class=""title-text"">A</h3></p> </div> <div id=""x-box""> <p class=""title-text"">X<p> </div> <div id=""b-box""> <p class=""title-text"">B</p></div> <br> <div style='float: left;padding-left:30px;'><p>Press '1' for A</p></div><div style='float: right;padding-right:30px;'><p>Press '0' for B</p> </div> </div></div>","null","","","","","","","","","","","","","",""
"2630","","practice","audio-keyboard-response","20","99850","0.0-6.0-1.1","5db37bb9da032c000f9e04fa","condB","","resources/audio/practiceStim/S1_AU_14_axb_Step-6.wav","48","","","","","","","","","","","","","",""
"null","","fixation","html-keyboard-response","21","100855","0.0-6.0-0.2","5db37bb9da032c000f9e04fa","condB","","<div class=""vertical-center"" style='width:60%;'><p style='font-weight:bold;'>Does the middle word sound more like the first word (A) or the last word (B)?</p> <br> <div class=""container""> <div id=""a-box""> <p class=""title-text"">A</h3></p> </div> <div id=""x-box""> <p class=""title-text"">X<p> </div> <div id=""b-box""> <p class=""title-text"">B</p></div> <br> <div style='float: left;padding-left:30px;'><p>Press '1' for A</p></div><div style='float: right;padding-right:30px;'><p>Press '0' for B</p> </div> </div></div>","null","","","","","","","","","","","","","",""
"3233","","practice","audio-keyboard-response","22","104089","0.0-6.0-1.2","5db37bb9da032c000f9e04fa","condB","","resources/audio/practiceStim/S1_AI_21_axb_Step-6.wav","49","","","","","","","","","","","","","",""
"null","","fixation","html-keyboard-response","23","105094","0.0-6.0-0.3","5db37bb9da032c000f9e04fa","condB","","<div class=""vertical-center"" style='width:60%;'><p style='font-weight:bold;'>Does the middle word sound more like the first word (A) or the last word (B)?</p> <br> <div class=""container""> <div id=""a-box""> <p class=""title-text"">A</h3></p> </div> <div id=""x-box""> <p class=""title-text"">X<p> </div> <div id=""b-box""> <p class=""title-text"">B</p></div> <br> <div style='float: left;padding-left:30px;'><p>Press '1' for A</p></div><div style='float: right;padding-right:30px;'><p>Press '0' for B</p> </div> </div></div>","null","","","","","","","","","","","","","",""
"2972","","practice","audio-keyboard-response","24","108066","0.0-6.0-1.3","5db37bb9da032c000f9e04fa","condB","","resources/audio/practiceStim/S1_AU_14_bxa_Step-6.wav","49","","","","","","","","","","","","","",""
"1651.3800000029732","","instructions","instructions","25","110221","0.0-7.0","5db37bb9da032c000f9e04fa","condB","[{""page_index"":0,""viewing_time"":1651.110000002518}]","","","","","","","","","","","","","","","",""
"null","","fixation","html-keyboard-response","26","110723","0.0-8.0-0.0","5db37bb9da032c000f9e04fa","condB","","<div class=""vertical-center"" style='width:60%;'><p style='font-weight:bold;'>Does the middle word sound more like the first word (A) or the last word (B)?</p> <br> <div class=""container""> <div id=""a-box""> <p class=""title-text"">A</h3></p> </div> <div id=""x-box""> <p class=""title-text"">X<p> </div> <div id=""b-box""> <p class=""title-text"">B</p></div> <br> <div style='float: left;padding-left:30px;'><p>Press '1' for A</p></div><div style='float: right;padding-right:30px;'><p>Press '0' for B</p> </div> </div></div>","null","","","","","","","","","","","","","",""
"2827","","test","audio-keyboard-response","27","113555","0.0-8.0-1.0","5db37bb9da032c000f9e04fa","condB","","resources/audio/wordStim/S9_AI_25_bxa_Step-3.wav","49","","","","","AI","resources/audio/wordStim/S9_AI_25_bxa_Step-3.wav","S9","25","bxa","3","CN","1","1","true"
"null","","fixation","html-keyboard-response","28","114557","0.0-8.0-0.1","5db37bb9da032c000f9e04fa","condB","","<div class=""vertical-center"" style='width:60%;'><p style='font-weight:bold;'>Does the middle word sound more like the first word (A) or the last word (B)?</p> <br> <div class=""container""> <div id=""a-box""> <p class=""title-text"">A</h3></p> </div> <div id=""x-box""> <p class=""title-text"">X<p> </div> <div id=""b-box""> <p class=""title-text"">B</p></div> <br> <div style='float: left;padding-left:30px;'><p>Press '1' for A</p></div><div style='float: right;padding-right:30px;'><p>Press '0' for B</p> </div> </div></div>","null","","","","","","","","","","","","","",""
"2850","","test","audio-keyboard-response","29","117408","0.0-8.0-1.1","5db37bb9da032c000f9e04fa","condB","","resources/audio/wordStim/S9_AI_23_axb_Step-4.wav","49","","","","","AI","resources/audio/wordStim/S9_AI_23_axb_Step-4.wav","S9","23","axb","4","CN","0","1","false"
"null","","fixation","html-keyboard-response","30","118413","0.0-8.0-0.2","5db37bb9da032c000f9e04fa","condB","","<div class=""vertical-center"" style='width:60%;'><p style='font-weight:bold;'>Does the middle word sound more like the first word (A) or the last word (B)?</p> <br> <div class=""container""> <div id=""a-box""> <p class=""title-text"">A</h3></p> </div> <div id=""x-box""> <p class=""title-text"">X<p> </div> <div id=""b-box""> <p class=""title-text"">B</p></div> <br> <div style='float: left;padding-left:30px;'><p>Press '1' for A</p></div><div style='float: right;padding-right:30px;'><p>Press '0' for B</p> </div> </div></div>","null","","","","","","","","","","","","","",""
"3077","","test","audio-keyboard-response","31","121489","0.0-8.0-1.2","5db37bb9da032c000f9e04fa","condB","","resources/audio/wordStim/S9_AI_29_axb_Step-8.wav","48","","","","","AI","resources/audio/wordStim/S9_AI_29_axb_Step-8.wav","S9","29","axb","8","CN","0","0","true"
"null","","fixation","html-keyboard-response","32","122491","0.0-8.0-0.3","5db37bb9da032c000f9e04fa","condB","","<div class=""vertical-center"" style='width:60%;'><p style='font-weight:bold;'>Does the middle word sound more like the first word (A) or the last word (B)?</p> <br> <div class=""container""> <div id=""a-box""> <p class=""title-text"">A</h3></p> </div> <div id=""x-box""> <p class=""title-text"">X<p> </div> <div id=""b-box""> <p class=""title-text"">B</p></div> <br> <div style='float: left;padding-left:30px;'><p>Press '1' for A</p></div><div style='float: right;padding-right:30px;'><p>Press '0' for B</p> </div> </div></div>","null","","","","","","","","","","","","","",""
"3233","","test","audio-keyboard-response","33","125726","0.0-8.0-1.3","5db37bb9da032c000f9e04fa","condB","","resources/audio/wordStim/S3_AI_22_axb_Step-2.wav","49","","","","","AI","resources/audio/wordStim/S3_AI_22_axb_Step-2.wav","S3","22","axb","2","MI","0","1","false"
"null","","fixation","html-keyboard-response","34","126731","0.0-8.0-0.4","5db37bb9da032c000f9e04fa","condB","","<div class=""vertical-center"" style='width:60%;'><p style='font-weight:bold;'>Does the middle word sound more like the first word (A) or the last word (B)?</p> <br> <div class=""container""> <div id=""a-box""> <p class=""title-text"">A</h3></p> </div> <div id=""x-box""> <p class=""title-text"">X<p> </div> <div id=""b-box""> <p class=""title-text"">B</p></div> <br> <div style='float: left;padding-left:30px;'><p>Press '1' for A</p></div><div style='float: right;padding-right:30px;'><p>Press '0' for B</p> </div> </div></div>","null","","","","","","","","","","","","","",""
"2972","","test","audio-keyboard-response","35","129703","0.0-8.0-1.4","5db37bb9da032c000f9e04fa","condB","","resources/audio/wordStim/S9_AU_19_bxa_Step-5.wav","49","","","","","AU","resources/audio/wordStim/S9_AU_19_bxa_Step-5.wav","S9","19","bxa","5","CN","1","1","true"
"null","","fixation","html-keyboard-response","36","130707","0.0-8.0-0.5","5db37bb9da032c000f9e04fa","condB","","<div class=""vertical-center"" style='width:60%;'><p style='font-weight:bold;'>Does the middle word sound more like the first word (A) or the last word (B)?</p> <br> <div class=""container""> <div id=""a-box""> <p class=""title-text"">A</h3></p> </div> <div id=""x-box""> <p class=""title-text"">X<p> </div> <div id=""b-box""> <p class=""title-text"">B</p></div> <br> <div style='float: left;padding-left:30px;'><p>Press '1' for A</p></div><div style='float: right;padding-right:30px;'><p>Press '0' for B</p> </div> </div></div>","null","","","","","","","","","","","","","",""
"2914","","test","audio-keyboard-response","37","133620","0.0-8.0-1.5","5db37bb9da032c000f9e04fa","condB","","resources/audio/wordStim/S3_AI_28_axb_Step-4.wav","49","","","","","AI","resources/audio/wordStim/S3_AI_28_axb_Step-4.wav","S3","28","axb","4","MI","0","1","false"
"null","","fixation","html-keyboard-response","38","134625","0.0-8.0-0.6","5db37bb9da032c000f9e04fa","condB","","<div class=""vertical-center"" style='width:60%;'><p style='font-weight:bold;'>Does the middle word sound more like the first word (A) or the last word (B)?</p> <br> <div class=""container""> <div id=""a-box""> <p class=""title-text"">A</h3></p> </div> <div id=""x-box""> <p class=""title-text"">X<p> </div> <div id=""b-box""> <p class=""title-text"">B</p></div> <br> <div style='float: left;padding-left:30px;'><p>Press '1' for A</p></div><div style='float: right;padding-right:30px;'><p>Press '0' for B</p> </div> </div></div>","null","","","","","","","","","","","","","",""
"2961","","test","audio-keyboard-response","39","137585","0.0-8.0-1.6","5db37bb9da032c000f9e04fa","condB","","resources/audio/wordStim/S3_AI_25_bxa_Step-5.wav","48","","","","","AI","resources/audio/wordStim/S3_AI_25_bxa_Step-5.wav","S3","25","bxa","5","MI","1","0","false"
"null","","fixation","html-keyboard-response","40","138590","0.0-8.0-0.7","5db37bb9da032c000f9e04fa","condB","","<div class=""vertical-center"" style='width:60%;'><p style='font-weight:bold;'>Does the middle word sound more like the first word (A) or the last word (B)?</p> <br> <div class=""container""> <div id=""a-box""> <p class=""title-text"">A</h3></p> </div> <div id=""x-box""> <p class=""title-text"">X<p> </div> <div id=""b-box""> <p class=""title-text"">B</p></div> <br> <div style='float: left;padding-left:30px;'><p>Press '1' for A</p></div><div style='float: right;padding-right:30px;'><p>Press '0' for B</p> </div> </div></div>","null","","","","","","","","","","","","","",""
"3094","","test","audio-keyboard-response","41","141684","0.0-8.0-1.7","5db37bb9da032c000f9e04fa","condB","","resources/audio/wordStim/S3_AU_15_bxa_Step-9.wav","48","","","","","AU","resources/audio/wordStim/S3_AU_15_bxa_Step-9.wav","S3","15","bxa","9","MI","1","0","false"
"null","","fixation","html-keyboard-response","42","142689","0.0-8.0-0.8","5db37bb9da032c000f9e04fa","condB","","<div class=""vertical-center"" style='width:60%;'><p style='font-weight:bold;'>Does the middle word sound more like the first word (A) or the last word (B)?</p> <br> <div class=""container""> <div id=""a-box""> <p class=""title-text"">A</h3></p> </div> <div id=""x-box""> <p class=""title-text"">X<p> </div> <div id=""b-box""> <p class=""title-text"">B</p></div> <br> <div style='float: left;padding-left:30px;'><p>Press '1' for A</p></div><div style='float: right;padding-right:30px;'><p>Press '0' for B</p> </div> </div></div>","null","","","","","","","","","","","","","",""
"2932","","test","audio-keyboard-response","43","145618","0.0-8.0-1.8","5db37bb9da032c000f9e04fa","condB","","resources/audio/wordStim/S9_AU_20_axb_Step-6.wav","49","","","","","AU","resources/audio/wordStim/S9_AU_20_axb_Step-6.wav","S9","20","axb","6","CN","0","1","false"
"null","","fixation","html-keyboard-response","44","146625","0.0-8.0-0.9","5db37bb9da032c000f9e04fa","condB","","<div class=""vertical-center"" style='width:60%;'><p style='font-weight:bold;'>Does the middle word sound more like the first word (A) or the last word (B)?</p> <br> <div class=""container""> <div id=""a-box""> <p class=""title-text"">A</h3></p> </div> <div id=""x-box""> <p class=""title-text"">X<p> </div> <div id=""b-box""> <p class=""title-text"">B</p></div> <br> <div style='float: left;padding-left:30px;'><p>Press '1' for A</p></div><div style='float: right;padding-right:30px;'><p>Press '0' for B</p> </div> </div></div>","null","","","","","","","","","","","","","",""
"2676","","test","audio-keyboard-response","45","149301","0.0-8.0-1.9","5db37bb9da032c000f9e04fa","condB","","resources/audio/wordStim/S3_AI_25_bxa_Step-10.wav","49","","","","","AI","resources/audio/wordStim/S3_AI_25_bxa_Step-10.wav","S3","25","bxa","10","MI","1","1","true"
"null","","fixation","html-keyboard-response","46","150305","0.0-8.0-0.10","5db37bb9da032c000f9e04fa","condB","","<div class=""vertical-center"" style='width:60%;'><p style='font-weight:bold;'>Does the middle word sound more like the first word (A) or the last word (B)?</p> <br> <div class=""container""> <div id=""a-box""> <p class=""title-text"">A</h3></p> </div> <div id=""x-box""> <p class=""title-text"">X<p> </div> <div id=""b-box""> <p class=""title-text"">B</p></div> <br> <div style='float: left;padding-left:30px;'><p>Press '1' for A</p></div><div style='float: right;padding-right:30px;'><p>Press '0' for B</p> </div> </div></div>","null","","","","","","","","","","","","","",""
"3884","","test","audio-keyboard-response","47","154187","0.0-8.0-1.10","5db37bb9da032c000f9e04fa","condB","","resources/audio/wordStim/S3_AU_17_bxa_Step-5.wav","48","","","","","AU","resources/audio/wordStim/S3_AU_17_bxa_Step-5.wav","S3","17","bxa","5","MI","1","0","false"
"null","","fixation","html-keyboard-response","48","155191","0.0-8.0-0.11","5db37bb9da032c000f9e04fa","condB","","<div class=""vertical-center"" style='width:60%;'><p style='font-weight:bold;'>Does the middle word sound more like the first word (A) or the last word (B)?</p> <br> <div class=""container""> <div id=""a-box""> <p class=""title-text"">A</h3></p> </div> <div id=""x-box""> <p class=""title-text"">X<p> </div> <div id=""b-box""> <p class=""title-text"">B</p></div> <br> <div style='float: left;padding-left:30px;'><p>Press '1' for A</p></div><div style='float: right;padding-right:30px;'><p>Press '0' for B</p> </div> </div></div>","null","","","","","","","","","","","","","",""
"3529","","test","audio-keyboard-response","49","158723","0.0-8.0-1.11","5db37bb9da032c000f9e04fa","condB","","resources/audio/wordStim/S3_AU_17_axb_Step-4.wav","48","","","","","AU","resources/audio/wordStim/S3_AU_17_axb_Step-4.wav","S3","17","axb","4","MI","0","0","true"
"null","","fixation","html-keyboard-response","50","159727","0.0-8.0-0.12","5db37bb9da032c000f9e04fa","condB","","<div class=""vertical-center"" style='width:60%;'><p style='font-weight:bold;'>Does the middle word sound more like the first word (A) or the last word (B)?</p> <br> <div class=""container""> <div id=""a-box""> <p class=""title-text"">A</h3></p> </div> <div id=""x-box""> <p class=""title-text"">X<p> </div> <div id=""b-box""> <p class=""title-text"">B</p></div> <br> <div style='float: left;padding-left:30px;'><p>Press '1' for A</p></div><div style='float: right;padding-right:30px;'><p>Press '0' for B</p> </div> </div></div>","null","","","","","","","","","","","","","",""
"2589","","test","audio-keyboard-response","51","162316","0.0-8.0-1.12","5db37bb9da032c000f9e04fa","condB","","resources/audio/wordStim/S3_AU_14_bxa_Step-10.wav","49","","","","","AU","resources/audio/wordStim/S3_AU_14_bxa_Step-10.wav","S3","14","bxa","10","MI","1","1","true"
"null","","fixation","html-keyboard-response","52","163320","0.0-8.0-0.13","5db37bb9da032c000f9e04fa","condB","","<div class=""vertical-center"" style='width:60%;'><p style='font-weight:bold;'>Does the middle word sound more like the first word (A) or the last word (B)?</p> <br> <div class=""container""> <div id=""a-box""> <p class=""title-text"">A</h3></p> </div> <div id=""x-box""> <p class=""title-text"">X<p> </div> <div id=""b-box""> <p class=""title-text"">B</p></div> <br> <div style='float: left;padding-left:30px;'><p>Press '1' for A</p></div><div style='float: right;padding-right:30px;'><p>Press '0' for B</p> </div> </div></div>","null","","","","","","","","","","","","","",""
"3053","","test","audio-keyboard-response","53","166373","0.0-8.0-1.13","5db37bb9da032c000f9e04fa","condB","","resources/audio/wordStim/S3_AU_19_axb_Step-8.wav","48","","","","","AU","resources/audio/wordStim/S3_AU_19_axb_Step-8.wav","S3","19","axb","8","MI","0","0","true"
"null","","fixation","html-keyboard-response","54","167376","0.0-8.0-0.14","5db37bb9da032c000f9e04fa","condB","","<div class=""vertical-center"" style='width:60%;'><p style='font-weight:bold;'>Does the middle word sound more like the first word (A) or the last word (B)?</p> <br> <div class=""container""> <div id=""a-box""> <p class=""title-text"">A</h3></p> </div> <div id=""x-box""> <p class=""title-text"">X<p> </div> <div id=""b-box""> <p class=""title-text"">B</p></div> <br> <div style='float: left;padding-left:30px;'><p>Press '1' for A</p></div><div style='float: right;padding-right:30px;'><p>Press '0' for B</p> </div> </div></div>","null","","","","","","","","","","","","","",""
"2972","","test","audio-keyboard-response","55","170351","0.0-8.0-1.14","5db37bb9da032c000f9e04fa","condB","","resources/audio/wordStim/S9_AI_29_axb_Step-6.wav","49","","","","","AI","resources/audio/wordStim/S9_AI_29_axb_Step-6.wav","S9","29","axb","6","CN","0","1","false"
"null","","fixation","html-keyboard-response","56","171355","0.0-8.0-0.15","5db37bb9da032c000f9e04fa","condB","","<div class=""vertical-center"" style='width:60%;'><p style='font-weight:bold;'>Does the middle word sound more like the first word (A) or the last word (B)?</p> <br> <div class=""container""> <div id=""a-box""> <p class=""title-text"">A</h3></p> </div> <div id=""x-box""> <p class=""title-text"">X<p> </div> <div id=""b-box""> <p class=""title-text"">B</p></div> <br> <div style='float: left;padding-left:30px;'><p>Press '1' for A</p></div><div style='float: right;padding-right:30px;'><p>Press '0' for B</p> </div> </div></div>","null","","","","","","","","","","","","","",""
"3082","","test","audio-keyboard-response","57","174437","0.0-8.0-1.15","5db37bb9da032c000f9e04fa","condB","","resources/audio/wordStim/S9_AU_14_axb_Step-4.wav","49","","","","","AU","resources/audio/wordStim/S9_AU_14_axb_Step-4.wav","S9","14","axb","4","CN","0","1","false"
"null","","fixation","html-keyboard-response","58","175442","0.0-8.0-0.16","5db37bb9da032c000f9e04fa","condB","","<div class=""vertical-center"" style='width:60%;'><p style='font-weight:bold;'>Does the middle word sound more like the first word (A) or the last word (B)?</p> <br> <div class=""container""> <div id=""a-box""> <p class=""title-text"">A</h3></p> </div> <div id=""x-box""> <p class=""title-text"">X<p> </div> <div id=""b-box""> <p class=""title-text"">B</p></div> <br> <div style='float: left;padding-left:30px;'><p>Press '1' for A</p></div><div style='float: right;padding-right:30px;'><p>Press '0' for B</p> </div> </div></div>","null","","","","","","","","","","","","","",""
"2647","","test","audio-keyboard-response","59","178089","0.0-8.0-1.16","5db37bb9da032c000f9e04fa","condB","","resources/audio/wordStim/S3_AU_15_axb_Step-4.wav","49","","","","","AU","resources/audio/wordStim/S3_AU_15_axb_Step-4.wav","S3","15","axb","4","MI","0","1","false"
"null","","fixation","html-keyboard-response","60","179093","0.0-8.0-0.17","5db37bb9da032c000f9e04fa","condB","","<div class=""vertical-center"" style='width:60%;'><p style='font-weight:bold;'>Does the middle word sound more like the first word (A) or the last word (B)?</p> <br> <div class=""container""> <div id=""a-box""> <p class=""title-text"">A</h3></p> </div> <div id=""x-box""> <p class=""title-text"">X<p> </div> <div id=""b-box""> <p class=""title-text"">B</p></div> <br> <div style='float: left;padding-left:30px;'><p>Press '1' for A</p></div><div style='float: right;padding-right:30px;'><p>Press '0' for B</p> </div> </div></div>","null","","","","","","","","","","","","","",""
"2897","","test","audio-keyboard-response","61","181990","0.0-8.0-1.17","5db37bb9da032c000f9e04fa","condB","","resources/audio/wordStim/S9_AI_27_bxa_Step-9.wav","48","","","","","AI","resources/audio/wordStim/S9_AI_27_bxa_Step-9.wav","S9","27","bxa","9","CN","1","0","false"
"null","","fixation","html-keyboard-response","62","182994","0.0-8.0-0.18","5db37bb9da032c000f9e04fa","condB","","<div class=""vertical-center"" style='width:60%;'><p style='font-weight:bold;'>Does the middle word sound more like the first word (A) or the last word (B)?</p> <br> <div class=""container""> <div id=""a-box""> <p class=""title-text"">A</h3></p> </div> <div id=""x-box""> <p class=""title-text"">X<p> </div> <div id=""b-box""> <p class=""title-text"">B</p></div> <br> <div style='float: left;padding-left:30px;'><p>Press '1' for A</p></div><div style='float: right;padding-right:30px;'><p>Press '0' for B</p> </div> </div></div>","null","","","","","","","","","","","","","",""
"3373","","test","audio-keyboard-response","63","186365","0.0-8.0-1.18","5db37bb9da032c000f9e04fa","condB","","resources/audio/wordStim/S3_AU_16_axb_Step-6.wav","49","","","","","AU","resources/audio/wordStim/S3_AU_16_axb_Step-6.wav","S3","16","axb","6","MI","0","1","false"
"null","","fixation","html-keyboard-response","64","187371","0.0-8.0-0.19","5db37bb9da032c000f9e04fa","condB","","<div class=""vertical-center"" style='width:60%;'><p style='font-weight:bold;'>Does the middle word sound more like the first word (A) or the last word (B)?</p> <br> <div class=""container""> <div id=""a-box""> <p class=""title-text"">A</h3></p> </div> <div id=""x-box""> <p class=""title-text"">X<p> </div> <div id=""b-box""> <p class=""title-text"">B</p></div> <br> <div style='float: left;padding-left:30px;'><p>Press '1' for A</p></div><div style='float: right;padding-right:30px;'><p>Press '0' for B</p> </div> </div></div>","null","","","","","","","","","","","","","",""
"3355","","test","audio-keyboard-response","65","190730","0.0-8.0-1.19","5db37bb9da032c000f9e04fa","condB","","resources/audio/wordStim/S3_AI_28_bxa_Step-10.wav","49","","","","","AI","resources/audio/wordStim/S3_AI_28_bxa_Step-10.wav","S3","28","bxa","10","MI","1","1","true"
"null","","fixation","html-keyboard-response","66","191735","0.0-8.0-0.20","5db37bb9da032c000f9e04fa","condB","","<div class=""vertical-center"" style='width:60%;'><p style='font-weight:bold;'>Does the middle word sound more like the first word (A) or the last word (B)?</p> <br> <div class=""container""> <div id=""a-box""> <p class=""title-text"">A</h3></p> </div> <div id=""x-box""> <p class=""title-text"">X<p> </div> <div id=""b-box""> <p class=""title-text"">B</p></div> <br> <div style='float: left;padding-left:30px;'><p>Press '1' for A</p></div><div style='float: right;padding-right:30px;'><p>Press '0' for B</p> </div> </div></div>","null","","","","","","","","","","","","","",""
"3396","","test","audio-keyboard-response","67","195136","0.0-8.0-1.20","5db37bb9da032c000f9e04fa","condB","","resources/audio/wordStim/S9_AU_18_bxa_Step-7.wav","49","","","","","AU","resources/audio/wordStim/S9_AU_18_bxa_Step-7.wav","S9","18","bxa","7","CN","1","1","true"
"null","","fixation","html-keyboard-response","68","196142","0.0-8.0-0.21","5db37bb9da032c000f9e04fa","condB","","<div class=""vertical-center"" style='width:60%;'><p style='font-weight:bold;'>Does the middle word sound more like the first word (A) or the last word (B)?</p> <br> <div class=""container""> <div id=""a-box""> <p class=""title-text"">A</h3></p> </div> <div id=""x-box""> <p class=""title-text"">X<p> </div> <div id=""b-box""> <p class=""title-text"">B</p></div> <br> <div style='float: left;padding-left:30px;'><p>Press '1' for A</p></div><div style='float: right;padding-right:30px;'><p>Press '0' for B</p> </div> </div></div>","null","","","","","","","","","","","","","",""
"2914","","test","audio-keyboard-response","69","199061","0.0-8.0-1.21","5db37bb9da032c000f9e04fa","condB","","resources/audio/wordStim/S9_AU_14_bxa_Step-3.wav","49","","","","","AU","resources/audio/wordStim/S9_AU_14_bxa_Step-3.wav","S9","14","bxa","3","CN","1","1","true"
"null","","fixation","html-keyboard-response","70","200065","0.0-8.0-0.22","5db37bb9da032c000f9e04fa","condB","","<div class=""vertical-center"" style='width:60%;'><p style='font-weight:bold;'>Does the middle word sound more like the first word (A) or the last word (B)?</p> <br> <div class=""container""> <div id=""a-box""> <p class=""title-text"">A</h3></p> </div> <div id=""x-box""> <p class=""title-text"">X<p> </div> <div id=""b-box""> <p class=""title-text"">B</p></div> <br> <div style='float: left;padding-left:30px;'><p>Press '1' for A</p></div><div style='float: right;padding-right:30px;'><p>Press '0' for B</p> </div> </div></div>","null","","","","","","","","","","","","","",""
"3489","","test","audio-keyboard-response","71","203558","0.0-8.0-1.22","5db37bb9da032c000f9e04fa","condB","","resources/audio/wordStim/S3_AU_18_bxa_Step-7.wav","48","","","","","AU","resources/audio/wordStim/S3_AU_18_bxa_Step-7.wav","S3","18","bxa","7","MI","1","0","false"
"null","","fixation","html-keyboard-response","72","204563","0.0-8.0-0.23","5db37bb9da032c000f9e04fa","condB","","<div class=""vertical-center"" style='width:60%;'><p style='font-weight:bold;'>Does the middle word sound more like the first word (A) or the last word (B)?</p> <br> <div class=""container""> <div id=""a-box""> <p class=""title-text"">A</h3></p> </div> <div id=""x-box""> <p class=""title-text"">X<p> </div> <div id=""b-box""> <p class=""title-text"">B</p></div> <br> <div style='float: left;padding-left:30px;'><p>Press '1' for A</p></div><div style='float: right;padding-right:30px;'><p>Press '0' for B</p> </div> </div></div>","null","","","","","","","","","","","","","",""
"4418","","test","audio-keyboard-response","73","208984","0.0-8.0-1.23","5db37bb9da032c000f9e04fa","condB","","resources/audio/wordStim/S3_AU_16_axb_Step-4.wav","48","","","","","AU","resources/audio/wordStim/S3_AU_16_axb_Step-4.wav","S3","16","axb","4","MI","0","0","true"
"null","","fixation","html-keyboard-response","74","209988","0.0-8.0-0.24","5db37bb9da032c000f9e04fa","condB","","<div class=""vertical-center"" style='width:60%;'><p style='font-weight:bold;'>Does the middle word sound more like the first word (A) or the last word (B)?</p> <br> <div class=""container""> <div id=""a-box""> <p class=""title-text"">A</h3></p> </div> <div id=""x-box""> <p class=""title-text"">X<p> </div> <div id=""b-box""> <p class=""title-text"">B</p></div> <br> <div style='float: left;padding-left:30px;'><p>Press '1' for A</p></div><div style='float: right;padding-right:30px;'><p>Press '0' for B</p> </div> </div></div>","null","","","","","","","","","","","","","",""
"3431","","test","audio-keyboard-response","75","213421","0.0-8.0-1.24","5db37bb9da032c000f9e04fa","condB","","resources/audio/wordStim/S9_AI_24_axb_Step-6.wav","48","","","","","AI","resources/audio/wordStim/S9_AI_24_axb_Step-6.wav","S9","24","axb","6","CN","0","0","true"
"null","","fixation","html-keyboard-response","76","214427","0.0-8.0-0.25","5db37bb9da032c000f9e04fa","condB","","<div class=""vertical-center"" style='width:60%;'><p style='font-weight:bold;'>Does the middle word sound more like the first word (A) or the last word (B)?</p> <br> <div class=""container""> <div id=""a-box""> <p class=""title-text"">A</h3></p> </div> <div id=""x-box""> <p class=""title-text"">X<p> </div> <div id=""b-box""> <p class=""title-text"">B</p></div> <br> <div style='float: left;padding-left:30px;'><p>Press '1' for A</p></div><div style='float: right;padding-right:30px;'><p>Press '0' for B</p> </div> </div></div>","null","","","","","","","","","","","","","",""
"3042","","test","audio-keyboard-response","77","217470","0.0-8.0-1.25","5db37bb9da032c000f9e04fa","condB","","resources/audio/wordStim/S3_AU_14_axb_Step-8.wav","48","","","","","AU","resources/audio/wordStim/S3_AU_14_axb_Step-8.wav","S3","14","axb","8","MI","0","0","true"
"null","","fixation","html-keyboard-response","78","218474","0.0-8.0-0.26","5db37bb9da032c000f9e04fa","condB","","<div class=""vertical-center"" style='width:60%;'><p style='font-weight:bold;'>Does the middle word sound more like the first word (A) or the last word (B)?</p> <br> <div class=""container""> <div id=""a-box""> <p class=""title-text"">A</h3></p> </div> <div id=""x-box""> <p class=""title-text"">X<p> </div> <div id=""b-box""> <p class=""title-text"">B</p></div> <br> <div style='float: left;padding-left:30px;'><p>Press '1' for A</p></div><div style='float: right;padding-right:30px;'><p>Press '0' for B</p> </div> </div></div>","null","","","","","","","","","","","","","",""
"2891","","test","audio-keyboard-response","79","221365","0.0-8.0-1.26","5db37bb9da032c000f9e04fa","condB","","resources/audio/wordStim/S3_AI_25_bxa_Step-3.wav","48","","","","","AI","resources/audio/wordStim/S3_AI_25_bxa_Step-3.wav","S3","25","bxa","3","MI","1","0","false"
"1968.3899999981804","","break","html-keyboard-response","80","223839","0.0-8.0-2.26-0.26","5db37bb9da032c000f9e04fa","condB","","<div class=""vertical-center""><p>Feel free to take a break!</p><i>When you're ready to continue, press SPACE to begin the next trial.</i></p></div>","32","","","","","","","","","","","","","",""
"null","","fixation","html-keyboard-response","81","224343","0.0-8.0-0.27","5db37bb9da032c000f9e04fa","condB","","<div class=""vertical-center"" style='width:60%;'><p style='font-weight:bold;'>Does the middle word sound more like the first word (A) or the last word (B)?</p> <br> <div class=""container""> <div id=""a-box""> <p class=""title-text"">A</h3></p> </div> <div id=""x-box""> <p class=""title-text"">X<p> </div> <div id=""b-box""> <p class=""title-text"">B</p></div> <br> <div style='float: left;padding-left:30px;'><p>Press '1' for A</p></div><div style='float: right;padding-right:30px;'><p>Press '0' for B</p> </div> </div></div>","null","","","","","","","","","","","","","",""
"2769","","test","audio-keyboard-response","82","227114","0.0-8.0-1.27","5db37bb9da032c000f9e04fa","condB","","resources/audio/wordStim/S3_AU_19_bxa_Step-7.wav","49","","","","","AU","resources/audio/wordStim/S3_AU_19_bxa_Step-7.wav","S3","19","bxa","7","MI","1","1","true"
"null","","fixation","html-keyboard-response","83","228118","0.0-8.0-0.28","5db37bb9da032c000f9e04fa","condB","","<div class=""vertical-center"" style='width:60%;'><p style='font-weight:bold;'>Does the middle word sound more like the first word (A) or the last word (B)?</p> <br> <div class=""container""> <div id=""a-box""> <p class=""title-text"">A</h3></p> </div> <div id=""x-box""> <p class=""title-text"">X<p> </div> <div id=""b-box""> <p class=""title-text"">B</p></div> <br> <div style='float: left;padding-left:30px;'><p>Press '1' for A</p></div><div style='float: right;padding-right:30px;'><p>Press '0' for B</p> </div> </div></div>","null","","","","","","","","","","","","","",""
"2850","","test","audio-keyboard-response","84","230970","0.0-8.0-1.28","5db37bb9da032c000f9e04fa","condB","","resources/audio/wordStim/S3_AI_28_axb_Step-6.wav","48","","","","","AI","resources/audio/wordStim/S3_AI_28_axb_Step-6.wav","S3","28","axb","6","MI","0","0","true"
"null","","fixation","html-keyboard-response","85","231973","0.0-8.0-0.29","5db37bb9da032c000f9e04fa","condB","","<div class=""vertical-center"" style='width:60%;'><p style='font-weight:bold;'>Does the middle word sound more like the first word (A) or the last word (B)?</p> <br> <div class=""container""> <div id=""a-box""> <p class=""title-text"">A</h3></p> </div> <div id=""x-box""> <p class=""title-text"">X<p> </div> <div id=""b-box""> <p class=""title-text"">B</p></div> <br> <div style='float: left;padding-left:30px;'><p>Press '1' for A</p></div><div style='float: right;padding-right:30px;'><p>Press '0' for B</p> </div> </div></div>","null","","","","","","","","","","","","","",""
"3454","","test","audio-keyboard-response","86","235430","0.0-8.0-1.29","5db37bb9da032c000f9e04fa","condB","","resources/audio/wordStim/S3_AI_22_bxa_Step-7.wav","48","","","","","AI","resources/audio/wordStim/S3_AI_22_bxa_Step-7.wav","S3","22","bxa","7","MI","1","0","false"
"null","","fixation","html-keyboard-response","87","236437","0.0-8.0-0.30","5db37bb9da032c000f9e04fa","condB","","<div class=""vertical-center"" style='width:60%;'><p style='font-weight:bold;'>Does the middle word sound more like the first word (A) or the last word (B)?</p> <br> <div class=""container""> <div id=""a-box""> <p class=""title-text"">A</h3></p> </div> <div id=""x-box""> <p class=""title-text"">X<p> </div> <div id=""b-box""> <p class=""title-text"">B</p></div> <br> <div style='float: left;padding-left:30px;'><p>Press '1' for A</p></div><div style='float: right;padding-right:30px;'><p>Press '0' for B</p> </div> </div></div>","null","","","","","","","","","","","","","",""
"3013","","test","audio-keyboard-response","88","239451","0.0-8.0-1.30","5db37bb9da032c000f9e04fa","condB","","resources/audio/wordStim/S3_AI_23_axb_Step-2.wav","48","","","","","AI","resources/audio/wordStim/S3_AI_23_axb_Step-2.wav","S3","23","axb","2","MI","0","0","true"
"null","","fixation","html-keyboard-response","89","240456","0.0-8.0-0.31","5db37bb9da032c000f9e04fa","condB","","<div class=""vertical-center"" style='width:60%;'><p style='font-weight:bold;'>Does the middle word sound more like the first word (A) or the last word (B)?</p> <br> <div class=""container""> <div id=""a-box""> <p class=""title-text"">A</h3></p> </div> <div id=""x-box""> <p class=""title-text"">X<p> </div> <div id=""b-box""> <p class=""title-text"">B</p></div> <br> <div style='float: left;padding-left:30px;'><p>Press '1' for A</p></div><div style='float: right;padding-right:30px;'><p>Press '0' for B</p> </div> </div></div>","null","","","","","","","","","","","","","",""
"3593","","test","audio-keyboard-response","90","244053","0.0-8.0-1.31","5db37bb9da032c000f9e04fa","condB","","resources/audio/wordStim/S9_AI_30_axb_Step-2.wav","48","","","","","AI","resources/audio/wordStim/S9_AI_30_axb_Step-2.wav","S9","30","axb","2","CN","0","0","true"
"null","","fixation","html-keyboard-response","91","245058","0.0-8.0-0.32","5db37bb9da032c000f9e04fa","condB","","<div class=""vertical-center"" style='width:60%;'><p style='font-weight:bold;'>Does the middle word sound more like the first word (A) or the last word (B)?</p> <br> <div class=""container""> <div id=""a-box""> <p class=""title-text"">A</h3></p> </div> <div id=""x-box""> <p class=""title-text"">X<p> </div> <div id=""b-box""> <p class=""title-text"">B</p></div> <br> <div style='float: left;padding-left:30px;'><p>Press '1' for A</p></div><div style='float: right;padding-right:30px;'><p>Press '0' for B</p> </div> </div></div>","null","","","","","","","","","","","","","",""
"3367","","test","audio-keyboard-response","92","248425","0.0-8.0-1.32","5db37bb9da032c000f9e04fa","condB","","resources/audio/wordStim/S9_AI_22_axb_Step-8.wav","48","","","","","AI","resources/audio/wordStim/S9_AI_22_axb_Step-8.wav","S9","22","axb","8","CN","0","0","true"
"null","","fixation","html-keyboard-response","93","249429","0.0-8.0-0.33","5db37bb9da032c000f9e04fa","condB","","<div class=""vertical-center"" style='width:60%;'><p style='font-weight:bold;'>Does the middle word sound more like the first word (A) or the last word (B)?</p> <br> <div class=""container""> <div id=""a-box""> <p class=""title-text"">A</h3></p> </div> <div id=""x-box""> <p class=""title-text"">X<p> </div> <div id=""b-box""> <p class=""title-text"">B</p></div> <br> <div style='float: left;padding-left:30px;'><p>Press '1' for A</p></div><div style='float: right;padding-right:30px;'><p>Press '0' for B</p> </div> </div></div>","null","","","","","","","","","","","","","",""
"3698","","test","audio-keyboard-response","94","253126","0.0-8.0-1.33","5db37bb9da032c000f9e04fa","condB","","resources/audio/wordStim/S3_AU_17_axb_Step-6.wav","48","","","","","AU","resources/audio/wordStim/S3_AU_17_axb_Step-6.wav","S3","17","axb","6","MI","0","0","true"
"null","","fixation","html-keyboard-response","95","254131","0.0-8.0-0.34","5db37bb9da032c000f9e04fa","condB","","<div class=""vertical-center"" style='width:60%;'><p style='font-weight:bold;'>Does the middle word sound more like the first word (A) or the last word (B)?</p> <br> <div class=""container""> <div id=""a-box""> <p class=""title-text"">A</h3></p> </div> <div id=""x-box""> <p class=""title-text"">X<p> </div> <div id=""b-box""> <p class=""title-text"">B</p></div> <br> <div style='float: left;padding-left:30px;'><p>Press '1' for A</p></div><div style='float: right;padding-right:30px;'><p>Press '0' for B</p> </div> </div></div>","null","","","","","","","","","","","","","",""
"3361","","test","audio-keyboard-response","96","257492","0.0-8.0-1.34","5db37bb9da032c000f9e04fa","condB","","resources/audio/wordStim/S9_AI_30_bxa_Step-10.wav","49","","","","","AI","resources/audio/wordStim/S9_AI_30_bxa_Step-10.wav","S9","30","bxa","10","CN","1","1","true"
"null","","fixation","html-keyboard-response","97","258497","0.0-8.0-0.35","5db37bb9da032c000f9e04fa","condB","","<div class=""vertical-center"" style='width:60%;'><p style='font-weight:bold;'>Does the middle word sound more like the first word (A) or the last word (B)?</p> <br> <div class=""container""> <div id=""a-box""> <p class=""title-text"">A</h3></p> </div> <div id=""x-box""> <p class=""title-text"">X<p> </div> <div id=""b-box""> <p class=""title-text"">B</p></div> <br> <div style='float: left;padding-left:30px;'><p>Press '1' for A</p></div><div style='float: right;padding-right:30px;'><p>Press '0' for B</p> </div> </div></div>","null","","","","","","","","","","","","","",""
"2844","","test","audio-keyboard-response","98","261344","0.0-8.0-1.35","5db37bb9da032c000f9e04fa","condB","","resources/audio/wordStim/S3_AU_14_bxa_Step-9.wav","49","","","","","AU","resources/audio/wordStim/S3_AU_14_bxa_Step-9.wav","S3","14","bxa","9","MI","1","1","true"
"null","","fixation","html-keyboard-response","99","262349","0.0-8.0-0.36","5db37bb9da032c000f9e04fa","condB","","<div class=""vertical-center"" style='width:60%;'><p style='font-weight:bold;'>Does the middle word sound more like the first word (A) or the last word (B)?</p> <br> <div class=""container""> <div id=""a-box""> <p class=""title-text"">A</h3></p> </div> <div id=""x-box""> <p class=""title-text"">X<p> </div> <div id=""b-box""> <p class=""title-text"">B</p></div> <br> <div style='float: left;padding-left:30px;'><p>Press '1' for A</p></div><div style='float: right;padding-right:30px;'><p>Press '0' for B</p> </div> </div></div>","null","","","","","","","","","","","","","",""
"3135","","test","audio-keyboard-response","100","265486","0.0-8.0-1.36","5db37bb9da032c000f9e04fa","condB","","resources/audio/wordStim/S3_AU_20_bxa_Step-7.wav","49","","","","","AU","resources/audio/wordStim/S3_AU_20_bxa_Step-7.wav","S3","20","bxa","7","MI","1","1","true"
"null","","fixation","html-keyboard-response","101","266491","0.0-8.0-0.37","5db37bb9da032c000f9e04fa","condB","","<div class=""vertical-center"" style='width:60%;'><p style='font-weight:bold;'>Does the middle word sound more like the first word (A) or the last word (B)?</p> <br> <div class=""container""> <div id=""a-box""> <p class=""title-text"">A</h3></p> </div> <div id=""x-box""> <p class=""title-text"">X<p> </div> <div id=""b-box""> <p class=""title-text"">B</p></div> <br> <div style='float: left;padding-left:30px;'><p>Press '1' for A</p></div><div style='float: right;padding-right:30px;'><p>Press '0' for B</p> </div> </div></div>","null","","","","","","","","","","","","","",""
"3593","","test","audio-keyboard-response","102","270087","0.0-8.0-1.37","5db37bb9da032c000f9e04fa","condB","","resources/audio/wordStim/S9_AI_22_bxa_Step-5.wav","49","","","","","AI","resources/audio/wordStim/S9_AI_22_bxa_Step-5.wav","S9","22","bxa","5","CN","1","1","true"
"null","","fixation","html-keyboard-response","103","271092","0.0-8.0-0.38","5db37bb9da032c000f9e04fa","condB","","<div class=""vertical-center"" style='width:60%;'><p style='font-weight:bold;'>Does the middle word sound more like the first word (A) or the last word (B)?</p> <br> <div class=""container""> <div id=""a-box""> <p class=""title-text"">A</h3></p> </div> <div id=""x-box""> <p class=""title-text"">X<p> </div> <div id=""b-box""> <p class=""title-text"">B</p></div> <br> <div style='float: left;padding-left:30px;'><p>Press '1' for A</p></div><div style='float: right;padding-right:30px;'><p>Press '0' for B</p> </div> </div></div>","null","","","","","","","","","","","","","",""
"3756","","test","audio-keyboard-response","104","274850","0.0-8.0-1.38","5db37bb9da032c000f9e04fa","condB","","resources/audio/wordStim/S3_AU_17_bxa_Step-3.wav","49","","","","","AU","resources/audio/wordStim/S3_AU_17_bxa_Step-3.wav","S3","17","bxa","3","MI","1","1","true"
"null","","fixation","html-keyboard-response","105","275855","0.0-8.0-0.39","5db37bb9da032c000f9e04fa","condB","","<div class=""vertical-center"" style='width:60%;'><p style='font-weight:bold;'>Does the middle word sound more like the first word (A) or the last word (B)?</p> <br> <div class=""container""> <div id=""a-box""> <p class=""title-text"">A</h3></p> </div> <div id=""x-box""> <p class=""title-text"">X<p> </div> <div id=""b-box""> <p class=""title-text"">B</p></div> <br> <div style='float: left;padding-left:30px;'><p>Press '1' for A</p></div><div style='float: right;padding-right:30px;'><p>Press '0' for B</p> </div> </div></div>","null","","","","","","","","","","","","","",""
"2995","","test","audio-keyboard-response","106","278852","0.0-8.0-1.39","5db37bb9da032c000f9e04fa","condB","","resources/audio/wordStim/S3_AI_30_axb_Step-8.wav","48","","","","","AI","resources/audio/wordStim/S3_AI_30_axb_Step-8.wav","S3","30","axb","8","MI","0","0","true"
"null","","fixation","html-keyboard-response","107","279854","0.0-8.0-0.40","5db37bb9da032c000f9e04fa","condB","","<div class=""vertical-center"" style='width:60%;'><p style='font-weight:bold;'>Does the middle word sound more like the first word (A) or the last word (B)?</p> <br> <div class=""container""> <div id=""a-box""> <p class=""title-text"">A</h3></p> </div> <div id=""x-box""> <p class=""title-text"">X<p> </div> <div id=""b-box""> <p class=""title-text"">B</p></div> <br> <div style='float: left;padding-left:30px;'><p>Press '1' for A</p></div><div style='float: right;padding-right:30px;'><p>Press '0' for B</p> </div> </div></div>","null","","","","","","","","","","","","","",""
"3477","","test","audio-keyboard-response","108","283334","0.0-8.0-1.40","5db37bb9da032c000f9e04fa","condB","","resources/audio/wordStim/S9_AI_24_bxa_Step-9.wav","48","","","","","AI","resources/audio/wordStim/S9_AI_24_bxa_Step-9.wav","S9","24","bxa","9","CN","1","0","false"
"null","","fixation","html-keyboard-response","109","284338","0.0-8.0-0.41","5db37bb9da032c000f9e04fa","condB","","<div class=""vertical-center"" style='width:60%;'><p style='font-weight:bold;'>Does the middle word sound more like the first word (A) or the last word (B)?</p> <br> <div class=""container""> <div id=""a-box""> <p class=""title-text"">A</h3></p> </div> <div id=""x-box""> <p class=""title-text"">X<p> </div> <div id=""b-box""> <p class=""title-text"">B</p></div> <br> <div style='float: left;padding-left:30px;'><p>Press '1' for A</p></div><div style='float: right;padding-right:30px;'><p>Press '0' for B</p> </div> </div></div>","null","","","","","","","","","","","","","",""
"3466","","test","audio-keyboard-response","110","287808","0.0-8.0-1.41","5db37bb9da032c000f9e04fa","condB","","resources/audio/wordStim/S3_AI_29_bxa_Step-10.wav","48","","","","","AI","resources/audio/wordStim/S3_AI_29_bxa_Step-10.wav","S3","29","bxa","10","MI","1","0","false"
"null","","fixation","html-keyboard-response","111","288811","0.0-8.0-0.42","5db37bb9da032c000f9e04fa","condB","","<div class=""vertical-center"" style='width:60%;'><p style='font-weight:bold;'>Does the middle word sound more like the first word (A) or the last word (B)?</p> <br> <div class=""container""> <div id=""a-box""> <p class=""title-text"">A</h3></p> </div> <div id=""x-box""> <p class=""title-text"">X<p> </div> <div id=""b-box""> <p class=""title-text"">B</p></div> <br> <div style='float: left;padding-left:30px;'><p>Press '1' for A</p></div><div style='float: right;padding-right:30px;'><p>Press '0' for B</p> </div> </div></div>","null","","","","","","","","","","","","","",""
"3419","","test","audio-keyboard-response","112","292231","0.0-8.0-1.42","5db37bb9da032c000f9e04fa","condB","","resources/audio/wordStim/S9_AU_14_axb_Step-6.wav","48","","","","","AU","resources/audio/wordStim/S9_AU_14_axb_Step-6.wav","S9","14","axb","6","CN","0","0","true"
"null","","fixation","html-keyboard-response","113","293235","0.0-8.0-0.43","5db37bb9da032c000f9e04fa","condB","","<div class=""vertical-center"" style='width:60%;'><p style='font-weight:bold;'>Does the middle word sound more like the first word (A) or the last word (B)?</p> <br> <div class=""container""> <div id=""a-box""> <p class=""title-text"">A</h3></p> </div> <div id=""x-box""> <p class=""title-text"">X<p> </div> <div id=""b-box""> <p class=""title-text"">B</p></div> <br> <div style='float: left;padding-left:30px;'><p>Press '1' for A</p></div><div style='float: right;padding-right:30px;'><p>Press '0' for B</p> </div> </div></div>","null","","","","","","","","","","","","","",""
"3204","","test","audio-keyboard-response","114","296439","0.0-8.0-1.43","5db37bb9da032c000f9e04fa","condB","","resources/audio/wordStim/S3_AI_30_bxa_Step-7.wav","49","","","","","AI","resources/audio/wordStim/S3_AI_30_bxa_Step-7.wav","S3","30","bxa","7","MI","1","1","true"
"null","","fixation","html-keyboard-response","115","297443","0.0-8.0-0.44","5db37bb9da032c000f9e04fa","condB","","<div class=""vertical-center"" style='width:60%;'><p style='font-weight:bold;'>Does the middle word sound more like the first word (A) or the last word (B)?</p> <br> <div class=""container""> <div id=""a-box""> <p class=""title-text"">A</h3></p> </div> <div id=""x-box""> <p class=""title-text"">X<p> </div> <div id=""b-box""> <p class=""title-text"">B</p></div> <br> <div style='float: left;padding-left:30px;'><p>Press '1' for A</p></div><div style='float: right;padding-right:30px;'><p>Press '0' for B</p> </div> </div></div>","null","","","","","","","","","","","","","",""
"2641","","test","audio-keyboard-response","116","300085","0.0-8.0-1.44","5db37bb9da032c000f9e04fa","condB","","resources/audio/wordStim/S9_AU_20_axb_Step-4.wav","48","","","","","AU","resources/audio/wordStim/S9_AU_20_axb_Step-4.wav","S9","20","axb","4","CN","0","0","true"
"null","","fixation","html-keyboard-response","117","301090","0.0-8.0-0.45","5db37bb9da032c000f9e04fa","condB","","<div class=""vertical-center"" style='width:60%;'><p style='font-weight:bold;'>Does the middle word sound more like the first word (A) or the last word (B)?</p> <br> <div class=""container""> <div id=""a-box""> <p class=""title-text"">A</h3></p> </div> <div id=""x-box""> <p class=""title-text"">X<p> </div> <div id=""b-box""> <p class=""title-text"">B</p></div> <br> <div style='float: left;padding-left:30px;'><p>Press '1' for A</p></div><div style='float: right;padding-right:30px;'><p>Press '0' for B</p> </div> </div></div>","null","","","","","","","","","","","","","",""
"3053","","test","audio-keyboard-response","118","304143","0.0-8.0-1.45","5db37bb9da032c000f9e04fa","condB","","resources/audio/wordStim/S9_AI_23_bxa_Step-5.wav","48","","","","","AI","resources/audio/wordStim/S9_AI_23_bxa_Step-5.wav","S9","23","bxa","5","CN","1","0","false"
"null","","fixation","html-keyboard-response","119","305147","0.0-8.0-0.46","5db37bb9da032c000f9e04fa","condB","","<div class=""vertical-center"" style='width:60%;'><p style='font-weight:bold;'>Does the middle word sound more like the first word (A) or the last word (B)?</p> <br> <div class=""container""> <div id=""a-box""> <p class=""title-text"">A</h3></p> </div> <div id=""x-box""> <p class=""title-text"">X<p> </div> <div id=""b-box""> <p class=""title-text"">B</p></div> <br> <div style='float: left;padding-left:30px;'><p>Press '1' for A</p></div><div style='float: right;padding-right:30px;'><p>Press '0' for B</p> </div> </div></div>","null","","","","","","","","","","","","","",""
"3199","","test","audio-keyboard-response","120","308348","0.0-8.0-1.46","5db37bb9da032c000f9e04fa","condB","","resources/audio/wordStim/S3_AU_11_axb_Step-2.wav","49","","","","","AU","resources/audio/wordStim/S3_AU_11_axb_Step-2.wav","S3","11","axb","2","MI","0","1","false"
"null","","fixation","html-keyboard-response","121","309353","0.0-8.0-0.47","5db37bb9da032c000f9e04fa","condB","","<div class=""vertical-center"" style='width:60%;'><p style='font-weight:bold;'>Does the middle word sound more like the first word (A) or the last word (B)?</p> <br> <div class=""container""> <div id=""a-box""> <p class=""title-text"">A</h3></p> </div> <div id=""x-box""> <p class=""title-text"">X<p> </div> <div id=""b-box""> <p class=""title-text"">B</p></div> <br> <div style='float: left;padding-left:30px;'><p>Press '1' for A</p></div><div style='float: right;padding-right:30px;'><p>Press '0' for B</p> </div> </div></div>","null","","","","","","","","","","","","","",""
"3558","","test","audio-keyboard-response","122","312916","0.0-8.0-1.47","5db37bb9da032c000f9e04fa","condB","","resources/audio/wordStim/S9_AI_22_bxa_Step-3.wav","49","","","","","AI","resources/audio/wordStim/S9_AI_22_bxa_Step-3.wav","S9","22","bxa","3","CN","1","1","true"
"null","","fixation","html-keyboard-response","123","313921","0.0-8.0-0.48","5db37bb9da032c000f9e04fa","condB","","<div class=""vertical-center"" style='width:60%;'><p style='font-weight:bold;'>Does the middle word sound more like the first word (A) or the last word (B)?</p> <br> <div class=""container""> <div id=""a-box""> <p class=""title-text"">A</h3></p> </div> <div id=""x-box""> <p class=""title-text"">X<p> </div> <div id=""b-box""> <p class=""title-text"">B</p></div> <br> <div style='float: left;padding-left:30px;'><p>Press '1' for A</p></div><div style='float: right;padding-right:30px;'><p>Press '0' for B</p> </div> </div></div>","null","","","","","","","","","","","","","",""
"2856","","test","audio-keyboard-response","124","316784","0.0-8.0-1.48","5db37bb9da032c000f9e04fa","condB","","resources/audio/wordStim/S9_AI_23_bxa_Step-7.wav","49","","","","","AI","resources/audio/wordStim/S9_AI_23_bxa_Step-7.wav","S9","23","bxa","7","CN","1","1","true"
"null","","fixation","html-keyboard-response","125","317789","0.0-8.0-0.49","5db37bb9da032c000f9e04fa","condB","","<div class=""vertical-center"" style='width:60%;'><p style='font-weight:bold;'>Does the middle word sound more like the first word (A) or the last word (B)?</p> <br> <div class=""container""> <div id=""a-box""> <p class=""title-text"">A</h3></p> </div> <div id=""x-box""> <p class=""title-text"">X<p> </div> <div id=""b-box""> <p class=""title-text"">B</p></div> <br> <div style='float: left;padding-left:30px;'><p>Press '1' for A</p></div><div style='float: right;padding-right:30px;'><p>Press '0' for B</p> </div> </div></div>","null","","","","","","","","","","","","","",""
"3158","","test","audio-keyboard-response","126","320949","0.0-8.0-1.49","5db37bb9da032c000f9e04fa","condB","","resources/audio/wordStim/S9_AI_25_axb_Step-2.wav","49","","","","","AI","resources/audio/wordStim/S9_AI_25_axb_Step-2.wav","S9","25","axb","2","CN","0","1","false"
"null","","fixation","html-keyboard-response","127","321954","0.0-8.0-0.50","5db37bb9da032c000f9e04fa","condB","","<div class=""vertical-center"" style='width:60%;'><p style='font-weight:bold;'>Does the middle word sound more like the first word (A) or the last word (B)?</p> <br> <div class=""container""> <div id=""a-box""> <p class=""title-text"">A</h3></p> </div> <div id=""x-box""> <p class=""title-text"">X<p> </div> <div id=""b-box""> <p class=""title-text"">B</p></div> <br> <div style='float: left;padding-left:30px;'><p>Press '1' for A</p></div><div style='float: right;padding-right:30px;'><p>Press '0' for B</p> </div> </div></div>","null","","","","","","","","","","","","","",""
"3442","","test","audio-keyboard-response","128","325395","0.0-8.0-1.50","5db37bb9da032c000f9e04fa","condB","","resources/audio/wordStim/S3_AI_29_bxa_Step-3.wav","49","","","","","AI","resources/audio/wordStim/S3_AI_29_bxa_Step-3.wav","S3","29","bxa","3","MI","1","1","true"
"null","","fixation","html-keyboard-response","129","326400","0.0-8.0-0.51","5db37bb9da032c000f9e04fa","condB","","<div class=""vertical-center"" style='width:60%;'><p style='font-weight:bold;'>Does the middle word sound more like the first word (A) or the last word (B)?</p> <br> <div class=""container""> <div id=""a-box""> <p class=""title-text"">A</h3></p> </div> <div id=""x-box""> <p class=""title-text"">X<p> </div> <div id=""b-box""> <p class=""title-text"">B</p></div> <br> <div style='float: left;padding-left:30px;'><p>Press '1' for A</p></div><div style='float: right;padding-right:30px;'><p>Press '0' for B</p> </div> </div></div>","null","","","","","","","","","","","","","",""
"2728","","test","audio-keyboard-response","130","329131","0.0-8.0-1.51","5db37bb9da032c000f9e04fa","condB","","resources/audio/wordStim/S9_AU_16_bxa_Step-3.wav","48","","","","","AU","resources/audio/wordStim/S9_AU_16_bxa_Step-3.wav","S9","16","bxa","3","CN","1","0","false"
"null","","fixation","html-keyboard-response","131","330136","0.0-8.0-0.52","5db37bb9da032c000f9e04fa","condB","","<div class=""vertical-center"" style='width:60%;'><p style='font-weight:bold;'>Does the middle word sound more like the first word (A) or the last word (B)?</p> <br> <div class=""container""> <div id=""a-box""> <p class=""title-text"">A</h3></p> </div> <div id=""x-box""> <p class=""title-text"">X<p> </div> <div id=""b-box""> <p class=""title-text"">B</p></div> <br> <div style='float: left;padding-left:30px;'><p>Press '1' for A</p></div><div style='float: right;padding-right:30px;'><p>Press '0' for B</p> </div> </div></div>","null","","","","","","","","","","","","","",""
"2902","","test","audio-keyboard-response","132","333044","0.0-8.0-1.52","5db37bb9da032c000f9e04fa","condB","","resources/audio/wordStim/S9_AI_27_axb_Step-6.wav","49","","","","","AI","resources/audio/wordStim/S9_AI_27_axb_Step-6.wav","S9","27","axb","6","CN","0","1","false"
"null","","fixation","html-keyboard-response","133","334049","0.0-8.0-0.53","5db37bb9da032c000f9e04fa","condB","","<div class=""vertical-center"" style='width:60%;'><p style='font-weight:bold;'>Does the middle word sound more like the first word (A) or the last word (B)?</p> <br> <div class=""container""> <div id=""a-box""> <p class=""title-text"">A</h3></p> </div> <div id=""x-box""> <p class=""title-text"">X<p> </div> <div id=""b-box""> <p class=""title-text"">B</p></div> <br> <div style='float: left;padding-left:30px;'><p>Press '1' for A</p></div><div style='float: right;padding-right:30px;'><p>Press '0' for B</p> </div> </div></div>","null","","","","","","","","","","","","","",""
"2485","","test","audio-keyboard-response","134","336535","0.0-8.0-1.53","5db37bb9da032c000f9e04fa","condB","","resources/audio/wordStim/S3_AI_21_bxa_Step-10.wav","49","","","","","AI","resources/audio/wordStim/S3_AI_21_bxa_Step-10.wav","S3","21","bxa","10","MI","1","1","true"
"1142.0500000022002","","break","html-keyboard-response","135","338181","0.0-8.0-2.53-0.53","5db37bb9da032c000f9e04fa","condB","","<div class=""vertical-center""><p>Feel free to take a break!</p><i>When you're ready to continue, press SPACE to begin the next trial.</i></p></div>","32","","","","","","","","","","","","","",""
"null","","fixation","html-keyboard-response","136","338683","0.0-8.0-0.54","5db37bb9da032c000f9e04fa","condB","","<div class=""vertical-center"" style='width:60%;'><p style='font-weight:bold;'>Does the middle word sound more like the first word (A) or the last word (B)?</p> <br> <div class=""container""> <div id=""a-box""> <p class=""title-text"">A</h3></p> </div> <div id=""x-box""> <p class=""title-text"">X<p> </div> <div id=""b-box""> <p class=""title-text"">B</p></div> <br> <div style='float: left;padding-left:30px;'><p>Press '1' for A</p></div><div style='float: right;padding-right:30px;'><p>Press '0' for B</p> </div> </div></div>","null","","","","","","","","","","","","","",""
"3146","","test","audio-keyboard-response","137","341833","0.0-8.0-1.54","5db37bb9da032c000f9e04fa","condB","","resources/audio/wordStim/S3_AI_29_axb_Step-8.wav","49","","","","","AI","resources/audio/wordStim/S3_AI_29_axb_Step-8.wav","S3","29","axb","8","MI","0","1","false"
"null","","fixation","html-keyboard-response","138","342835","0.0-8.0-0.55","5db37bb9da032c000f9e04fa","condB","","<div class=""vertical-center"" style='width:60%;'><p style='font-weight:bold;'>Does the middle word sound more like the first word (A) or the last word (B)?</p> <br> <div class=""container""> <div id=""a-box""> <p class=""title-text"">A</h3></p> </div> <div id=""x-box""> <p class=""title-text"">X<p> </div> <div id=""b-box""> <p class=""title-text"">B</p></div> <br> <div style='float: left;padding-left:30px;'><p>Press '1' for A</p></div><div style='float: right;padding-right:30px;'><p>Press '0' for B</p> </div> </div></div>","null","","","","","","","","","","","","","",""
"3204","","test","audio-keyboard-response","139","346041","0.0-8.0-1.55","5db37bb9da032c000f9e04fa","condB","","resources/audio/wordStim/S3_AI_30_bxa_Step-3.wav","48","","","","","AI","resources/audio/wordStim/S3_AI_30_bxa_Step-3.wav","S3","30","bxa","3","MI","1","0","false"
"null","","fixation","html-keyboard-response","140","347046","0.0-8.0-0.56","5db37bb9da032c000f9e04fa","condB","","<div class=""vertical-center"" style='width:60%;'><p style='font-weight:bold;'>Does the middle word sound more like the first word (A) or the last word (B)?</p> <br> <div class=""container""> <div id=""a-box""> <p class=""title-text"">A</h3></p> </div> <div id=""x-box""> <p class=""title-text"">X<p> </div> <div id=""b-box""> <p class=""title-text"">B</p></div> <br> <div style='float: left;padding-left:30px;'><p>Press '1' for A</p></div><div style='float: right;padding-right:30px;'><p>Press '0' for B</p> </div> </div></div>","null","","","","","","","","","","","","","",""
"2699","","test","audio-keyboard-response","141","349747","0.0-8.0-1.56","5db37bb9da032c000f9e04fa","condB","","resources/audio/wordStim/S3_AI_28_bxa_Step-9.wav","48","","","","","AI","resources/audio/wordStim/S3_AI_28_bxa_Step-9.wav","S3","28","bxa","9","MI","1","0","false"
"null","","fixation","html-keyboard-response","142","350753","0.0-8.0-0.57","5db37bb9da032c000f9e04fa","condB","","<div class=""vertical-center"" style='width:60%;'><p style='font-weight:bold;'>Does the middle word sound more like the first word (A) or the last word (B)?</p> <br> <div class=""container""> <div id=""a-box""> <p class=""title-text"">A</h3></p> </div> <div id=""x-box""> <p class=""title-text"">X<p> </div> <div id=""b-box""> <p class=""title-text"">B</p></div> <br> <div style='float: left;padding-left:30px;'><p>Press '1' for A</p></div><div style='float: right;padding-right:30px;'><p>Press '0' for B</p> </div> </div></div>","null","","","","","","","","","","","","","",""
"3315","","test","audio-keyboard-response","143","354066","0.0-8.0-1.57","5db37bb9da032c000f9e04fa","condB","","resources/audio/wordStim/S3_AI_22_axb_Step-4.wav","49","","","","","AI","resources/audio/wordStim/S3_AI_22_axb_Step-4.wav","S3","22","axb","4","MI","0","1","false"
"null","","fixation","html-keyboard-response","144","355072","0.0-8.0-0.58","5db37bb9da032c000f9e04fa","condB","","<div class=""vertical-center"" style='width:60%;'><p style='font-weight:bold;'>Does the middle word sound more like the first word (A) or the last word (B)?</p> <br> <div class=""container""> <div id=""a-box""> <p class=""title-text"">A</h3></p> </div> <div id=""x-box""> <p class=""title-text"">X<p> </div> <div id=""b-box""> <p class=""title-text"">B</p></div> <br> <div style='float: left;padding-left:30px;'><p>Press '1' for A</p></div><div style='float: right;padding-right:30px;'><p>Press '0' for B</p> </div> </div></div>","null","","","","","","","","","","","","","",""
"2955","","test","audio-keyboard-response","145","358026","0.0-8.0-1.58","5db37bb9da032c000f9e04fa","condB","","resources/audio/wordStim/S3_AI_22_bxa_Step-10.wav","49","","","","","AI","resources/audio/wordStim/S3_AI_22_bxa_Step-10.wav","S3","22","bxa","10","MI","1","1","true"
"null","","fixation","html-keyboard-response","146","359035","0.0-8.0-0.59","5db37bb9da032c000f9e04fa","condB","","<div class=""vertical-center"" style='width:60%;'><p style='font-weight:bold;'>Does the middle word sound more like the first word (A) or the last word (B)?</p> <br> <div class=""container""> <div id=""a-box""> <p class=""title-text"">A</h3></p> </div> <div id=""x-box""> <p class=""title-text"">X<p> </div> <div id=""b-box""> <p class=""title-text"">B</p></div> <br> <div style='float: left;padding-left:30px;'><p>Press '1' for A</p></div><div style='float: right;padding-right:30px;'><p>Press '0' for B</p> </div> </div></div>","null","","","","","","","","","","","","","",""
"2548","","test","audio-keyboard-response","147","361583","0.0-8.0-1.59","5db37bb9da032c000f9e04fa","condB","","resources/audio/wordStim/S3_AI_21_bxa_Step-9.wav","49","","","","","AI","resources/audio/wordStim/S3_AI_21_bxa_Step-9.wav","S3","21","bxa","9","MI","1","1","true"
"null","","fixation","html-keyboard-response","148","362588","0.0-8.0-0.60","5db37bb9da032c000f9e04fa","condB","","<div class=""vertical-center"" style='width:60%;'><p style='font-weight:bold;'>Does the middle word sound more like the first word (A) or the last word (B)?</p> <br> <div class=""container""> <div id=""a-box""> <p class=""title-text"">A</h3></p> </div> <div id=""x-box""> <p class=""title-text"">X<p> </div> <div id=""b-box""> <p class=""title-text"">B</p></div> <br> <div style='float: left;padding-left:30px;'><p>Press '1' for A</p></div><div style='float: right;padding-right:30px;'><p>Press '0' for B</p> </div> </div></div>","null","","","","","","","","","","","","","",""
"3100","","test","audio-keyboard-response","149","365692","0.0-8.0-1.60","5db37bb9da032c000f9e04fa","condB","","resources/audio/wordStim/S3_AU_11_bxa_Step-3.wav","49","","","","","AU","resources/audio/wordStim/S3_AU_11_bxa_Step-3.wav","S3","11","bxa","3","MI","1","1","true"
"null","","fixation","html-keyboard-response","150","366697","0.0-8.0-0.61","5db37bb9da032c000f9e04fa","condB","","<div class=""vertical-center"" style='width:60%;'><p style='font-weight:bold;'>Does the middle word sound more like the first word (A) or the last word (B)?</p> <br> <div class=""container""> <div id=""a-box""> <p class=""title-text"">A</h3></p> </div> <div id=""x-box""> <p class=""title-text"">X<p> </div> <div id=""b-box""> <p class=""title-text"">B</p></div> <br> <div style='float: left;padding-left:30px;'><p>Press '1' for A</p></div><div style='float: right;padding-right:30px;'><p>Press '0' for B</p> </div> </div></div>","null","","","","","","","","","","","","","",""
"3152","","test","audio-keyboard-response","151","369851","0.0-8.0-1.61","5db37bb9da032c000f9e04fa","condB","","resources/audio/wordStim/S9_AU_18_bxa_Step-3.wav","48","","","","","AU","resources/audio/wordStim/S9_AU_18_bxa_Step-3.wav","S9","18","bxa","3","CN","1","0","false"
"null","","fixation","html-keyboard-response","152","370856","0.0-8.0-0.62","5db37bb9da032c000f9e04fa","condB","","<div class=""vertical-center"" style='width:60%;'><p style='font-weight:bold;'>Does the middle word sound more like the first word (A) or the last word (B)?</p> <br> <div class=""container""> <div id=""a-box""> <p class=""title-text"">A</h3></p> </div> <div id=""x-box""> <p class=""title-text"">X<p> </div> <div id=""b-box""> <p class=""title-text"">B</p></div> <br> <div style='float: left;padding-left:30px;'><p>Press '1' for A</p></div><div style='float: right;padding-right:30px;'><p>Press '0' for B</p> </div> </div></div>","null","","","","","","","","","","","","","",""
"3262","","test","audio-keyboard-response","153","374117","0.0-8.0-1.62","5db37bb9da032c000f9e04fa","condB","","resources/audio/wordStim/S3_AU_18_bxa_Step-9.wav","49","","","","","AU","resources/audio/wordStim/S3_AU_18_bxa_Step-9.wav","S3","18","bxa","9","MI","1","1","true"
"null","","fixation","html-keyboard-response","154","375123","0.0-8.0-0.63","5db37bb9da032c000f9e04fa","condB","","<div class=""vertical-center"" style='width:60%;'><p style='font-weight:bold;'>Does the middle word sound more like the first word (A) or the last word (B)?</p> <br> <div class=""container""> <div id=""a-box""> <p class=""title-text"">A</h3></p> </div> <div id=""x-box""> <p class=""title-text"">X<p> </div> <div id=""b-box""> <p class=""title-text"">B</p></div> <br> <div style='float: left;padding-left:30px;'><p>Press '1' for A</p></div><div style='float: right;padding-right:30px;'><p>Press '0' for B</p> </div> </div></div>","null","","","","","","","","","","","","","",""
"2972","","test","audio-keyboard-response","155","378095","0.0-8.0-1.63","5db37bb9da032c000f9e04fa","condB","","resources/audio/wordStim/S9_AI_29_axb_Step-2.wav","49","","","","","AI","resources/audio/wordStim/S9_AI_29_axb_Step-2.wav","S9","29","axb","2","CN","0","1","false"
"null","","fixation","html-keyboard-response","156","379100","0.0-8.0-0.64","5db37bb9da032c000f9e04fa","condB","","<div class=""vertical-center"" style='width:60%;'><p style='font-weight:bold;'>Does the middle word sound more like the first word (A) or the last word (B)?</p> <br> <div class=""container""> <div id=""a-box""> <p class=""title-text"">A</h3></p> </div> <div id=""x-box""> <p class=""title-text"">X<p> </div> <div id=""b-box""> <p class=""title-text"">B</p></div> <br> <div style='float: left;padding-left:30px;'><p>Press '1' for A</p></div><div style='float: right;padding-right:30px;'><p>Press '0' for B</p> </div> </div></div>","null","","","","","","","","","","","","","",""
"2839","","test","audio-keyboard-response","157","381940","0.0-8.0-1.64","5db37bb9da032c000f9e04fa","condB","","resources/audio/wordStim/S9_AI_24_bxa_Step-10.wav","48","","","","","AI","resources/audio/wordStim/S9_AI_24_bxa_Step-10.wav","S9","24","bxa","10","CN","1","0","false"
"null","","fixation","html-keyboard-response","158","382943","0.0-8.0-0.65","5db37bb9da032c000f9e04fa","condB","","<div class=""vertical-center"" style='width:60%;'><p style='font-weight:bold;'>Does the middle word sound more like the first word (A) or the last word (B)?</p> <br> <div class=""container""> <div id=""a-box""> <p class=""title-text"">A</h3></p> </div> <div id=""x-box""> <p class=""title-text"">X<p> </div> <div id=""b-box""> <p class=""title-text"">B</p></div> <br> <div style='float: left;padding-left:30px;'><p>Press '1' for A</p></div><div style='float: right;padding-right:30px;'><p>Press '0' for B</p> </div> </div></div>","null","","","","","","","","","","","","","",""
"2543","","test","audio-keyboard-response","159","385484","0.0-8.0-1.65","5db37bb9da032c000f9e04fa","condB","","resources/audio/wordStim/S3_AU_15_bxa_Step-5.wav","48","","","","","AU","resources/audio/wordStim/S3_AU_15_bxa_Step-5.wav","S3","15","bxa","5","MI","1","0","false"
"null","","fixation","html-keyboard-response","160","386489","0.0-8.0-0.66","5db37bb9da032c000f9e04fa","condB","","<div class=""vertical-center"" style='width:60%;'><p style='font-weight:bold;'>Does the middle word sound more like the first word (A) or the last word (B)?</p> <br> <div class=""container""> <div id=""a-box""> <p class=""title-text"">A</h3></p> </div> <div id=""x-box""> <p class=""title-text"">X<p> </div> <div id=""b-box""> <p class=""title-text"">B</p></div> <br> <div style='float: left;padding-left:30px;'><p>Press '1' for A</p></div><div style='float: right;padding-right:30px;'><p>Press '0' for B</p> </div> </div></div>","null","","","","","","","","","","","","","",""
"2990","","test","audio-keyboard-response","161","389479","0.0-8.0-1.66","5db37bb9da032c000f9e04fa","condB","","resources/audio/wordStim/S9_AI_29_axb_Step-4.wav","49","","","","","AI","resources/audio/wordStim/S9_AI_29_axb_Step-4.wav","S9","29","axb","4","CN","0","1","false"
"null","","fixation","html-keyboard-response","162","390483","0.0-8.0-0.67","5db37bb9da032c000f9e04fa","condB","","<div class=""vertical-center"" style='width:60%;'><p style='font-weight:bold;'>Does the middle word sound more like the first word (A) or the last word (B)?</p> <br> <div class=""container""> <div id=""a-box""> <p class=""title-text"">A</h3></p> </div> <div id=""x-box""> <p class=""title-text"">X<p> </div> <div id=""b-box""> <p class=""title-text"">B</p></div> <br> <div style='float: left;padding-left:30px;'><p>Press '1' for A</p></div><div style='float: right;padding-right:30px;'><p>Press '0' for B</p> </div> </div></div>","null","","","","","","","","","","","","","",""
"2908","","test","audio-keyboard-response","163","393396","0.0-8.0-1.67","5db37bb9da032c000f9e04fa","condB","","resources/audio/wordStim/S9_AI_29_bxa_Step-3.wav","49","","","","","AI","resources/audio/wordStim/S9_AI_29_bxa_Step-3.wav","S9","29","bxa","3","CN","1","1","true"
"null","","fixation","html-keyboard-response","164","394402","0.0-8.0-0.68","5db37bb9da032c000f9e04fa","condB","","<div class=""vertical-center"" style='width:60%;'><p style='font-weight:bold;'>Does the middle word sound more like the first word (A) or the last word (B)?</p> <br> <div class=""container""> <div id=""a-box""> <p class=""title-text"">A</h3></p> </div> <div id=""x-box""> <p class=""title-text"">X<p> </div> <div id=""b-box""> <p class=""title-text"">B</p></div> <br> <div style='float: left;padding-left:30px;'><p>Press '1' for A</p></div><div style='float: right;padding-right:30px;'><p>Press '0' for B</p> </div> </div></div>","null","","","","","","","","","","","","","",""
"2456","","test","audio-keyboard-response","165","396857","0.0-8.0-1.68","5db37bb9da032c000f9e04fa","condB","","resources/audio/wordStim/S9_AU_20_bxa_Step-5.wav","48","","","","","AU","resources/audio/wordStim/S9_AU_20_bxa_Step-5.wav","S9","20","bxa","5","CN","1","0","false"
"null","","fixation","html-keyboard-response","166","397862","0.0-8.0-0.69","5db37bb9da032c000f9e04fa","condB","","<div class=""vertical-center"" style='width:60%;'><p style='font-weight:bold;'>Does the middle word sound more like the first word (A) or the last word (B)?</p> <br> <div class=""container""> <div id=""a-box""> <p class=""title-text"">A</h3></p> </div> <div id=""x-box""> <p class=""title-text"">X<p> </div> <div id=""b-box""> <p class=""title-text"">B</p></div> <br> <div style='float: left;padding-left:30px;'><p>Press '1' for A</p></div><div style='float: right;padding-right:30px;'><p>Press '0' for B</p> </div> </div></div>","null","","","","","","","","","","","","","",""
"3158","","test","audio-keyboard-response","167","401022","0.0-8.0-1.69","5db37bb9da032c000f9e04fa","condB","","resources/audio/wordStim/S9_AU_11_axb_Step-4.wav","49","","","","","AU","resources/audio/wordStim/S9_AU_11_axb_Step-4.wav","S9","11","axb","4","CN","0","1","false"
"null","","fixation","html-keyboard-response","168","402026","0.0-8.0-0.70","5db37bb9da032c000f9e04fa","condB","","<div class=""vertical-center"" style='width:60%;'><p style='font-weight:bold;'>Does the middle word sound more like the first word (A) or the last word (B)?</p> <br> <div class=""container""> <div id=""a-box""> <p class=""title-text"">A</h3></p> </div> <div id=""x-box""> <p class=""title-text"">X<p> </div> <div id=""b-box""> <p class=""title-text"">B</p></div> <br> <div style='float: left;padding-left:30px;'><p>Press '1' for A</p></div><div style='float: right;padding-right:30px;'><p>Press '0' for B</p> </div> </div></div>","null","","","","","","","","","","","","","",""
"2868","","test","audio-keyboard-response","169","404901","0.0-8.0-1.70","5db37bb9da032c000f9e04fa","condB","","resources/audio/wordStim/S9_AU_17_axb_Step-2.wav","49","","","","","AU","resources/audio/wordStim/S9_AU_17_axb_Step-2.wav","S9","17","axb","2","CN","0","1","false"
"null","","fixation","html-keyboard-response","170","405905","0.0-8.0-0.71","5db37bb9da032c000f9e04fa","condB","","<div class=""vertical-center"" style='width:60%;'><p style='font-weight:bold;'>Does the middle word sound more like the first word (A) or the last word (B)?</p> <br> <div class=""container""> <div id=""a-box""> <p class=""title-text"">A</h3></p> </div> <div id=""x-box""> <p class=""title-text"">X<p> </div> <div id=""b-box""> <p class=""title-text"">B</p></div> <br> <div style='float: left;padding-left:30px;'><p>Press '1' for A</p></div><div style='float: right;padding-right:30px;'><p>Press '0' for B</p> </div> </div></div>","null","","","","","","","","","","","","","",""
"2885","","test","audio-keyboard-response","171","408797","0.0-8.0-1.71","5db37bb9da032c000f9e04fa","condB","","resources/audio/wordStim/S3_AU_19_axb_Step-4.wav","49","","","","","AU","resources/audio/wordStim/S3_AU_19_axb_Step-4.wav","S3","19","axb","4","MI","0","1","false"
"null","","fixation","html-keyboard-response","172","409799","0.0-8.0-0.72","5db37bb9da032c000f9e04fa","condB","","<div class=""vertical-center"" style='width:60%;'><p style='font-weight:bold;'>Does the middle word sound more like the first word (A) or the last word (B)?</p> <br> <div class=""container""> <div id=""a-box""> <p class=""title-text"">A</h3></p> </div> <div id=""x-box""> <p class=""title-text"">X<p> </div> <div id=""b-box""> <p class=""title-text"">B</p></div> <br> <div style='float: left;padding-left:30px;'><p>Press '1' for A</p></div><div style='float: right;padding-right:30px;'><p>Press '0' for B</p> </div> </div></div>","null","","","","","","","","","","","","","",""
"2862","","test","audio-keyboard-response","173","412659","0.0-8.0-1.72","5db37bb9da032c000f9e04fa","condB","","resources/audio/wordStim/S3_AU_20_axb_Step-8.wav","48","","","","","AU","resources/audio/wordStim/S3_AU_20_axb_Step-8.wav","S3","20","axb","8","MI","0","0","true"
"null","","fixation","html-keyboard-response","174","413664","0.0-8.0-0.73","5db37bb9da032c000f9e04fa","condB","","<div class=""vertical-center"" style='width:60%;'><p style='font-weight:bold;'>Does the middle word sound more like the first word (A) or the last word (B)?</p> <br> <div class=""container""> <div id=""a-box""> <p class=""title-text"">A</h3></p> </div> <div id=""x-box""> <p class=""title-text"">X<p> </div> <div id=""b-box""> <p class=""title-text"">B</p></div> <br> <div style='float: left;padding-left:30px;'><p>Press '1' for A</p></div><div style='float: right;padding-right:30px;'><p>Press '0' for B</p> </div> </div></div>","null","","","","","","","","","","","","","",""
"2856","","test","audio-keyboard-response","175","416519","0.0-8.0-1.73","5db37bb9da032c000f9e04fa","condB","","resources/audio/wordStim/S9_AU_14_bxa_Step-10.wav","49","","","","","AU","resources/audio/wordStim/S9_AU_14_bxa_Step-10.wav","S9","14","bxa","10","CN","1","1","true"
"null","","fixation","html-keyboard-response","176","417522","0.0-8.0-0.74","5db37bb9da032c000f9e04fa","condB","","<div class=""vertical-center"" style='width:60%;'><p style='font-weight:bold;'>Does the middle word sound more like the first word (A) or the last word (B)?</p> <br> <div class=""container""> <div id=""a-box""> <p class=""title-text"">A</h3></p> </div> <div id=""x-box""> <p class=""title-text"">X<p> </div> <div id=""b-box""> <p class=""title-text"">B</p></div> <br> <div style='float: left;padding-left:30px;'><p>Press '1' for A</p></div><div style='float: right;padding-right:30px;'><p>Press '0' for B</p> </div> </div></div>","null","","","","","","","","","","","","","",""
"3199","","test","audio-keyboard-response","177","420723","0.0-8.0-1.74","5db37bb9da032c000f9e04fa","condB","","resources/audio/wordStim/S9_AU_11_axb_Step-8.wav","48","","","","","AU","resources/audio/wordStim/S9_AU_11_axb_Step-8.wav","S9","11","axb","8","CN","0","0","true"
"null","","fixation","html-keyboard-response","178","421728","0.0-8.0-0.75","5db37bb9da032c000f9e04fa","condB","","<div class=""vertical-center"" style='width:60%;'><p style='font-weight:bold;'>Does the middle word sound more like the first word (A) or the last word (B)?</p> <br> <div class=""container""> <div id=""a-box""> <p class=""title-text"">A</h3></p> </div> <div id=""x-box""> <p class=""title-text"">X<p> </div> <div id=""b-box""> <p class=""title-text"">B</p></div> <br> <div style='float: left;padding-left:30px;'><p>Press '1' for A</p></div><div style='float: right;padding-right:30px;'><p>Press '0' for B</p> </div> </div></div>","null","","","","","","","","","","","","","",""
"2932","","test","audio-keyboard-response","179","424658","0.0-8.0-1.75","5db37bb9da032c000f9e04fa","condB","","resources/audio/wordStim/S9_AU_11_bxa_Step-5.wav","49","","","","","AU","resources/audio/wordStim/S9_AU_11_bxa_Step-5.wav","S9","11","bxa","5","CN","1","1","true"
"null","","fixation","html-keyboard-response","180","425663","0.0-8.0-0.76","5db37bb9da032c000f9e04fa","condB","","<div class=""vertical-center"" style='width:60%;'><p style='font-weight:bold;'>Does the middle word sound more like the first word (A) or the last word (B)?</p> <br> <div class=""container""> <div id=""a-box""> <p class=""title-text"">A</h3></p> </div> <div id=""x-box""> <p class=""title-text"">X<p> </div> <div id=""b-box""> <p class=""title-text"">B</p></div> <br> <div style='float: left;padding-left:30px;'><p>Press '1' for A</p></div><div style='float: right;padding-right:30px;'><p>Press '0' for B</p> </div> </div></div>","null","","","","","","","","","","","","","",""
"2804","","test","audio-keyboard-response","181","428467","0.0-8.0-1.76","5db37bb9da032c000f9e04fa","condB","","resources/audio/wordStim/S3_AU_11_axb_Step-4.wav","49","","","","","AU","resources/audio/wordStim/S3_AU_11_axb_Step-4.wav","S3","11","axb","4","MI","0","1","false"
"null","","fixation","html-keyboard-response","182","429471","0.0-8.0-0.77","5db37bb9da032c000f9e04fa","condB","","<div class=""vertical-center"" style='width:60%;'><p style='font-weight:bold;'>Does the middle word sound more like the first word (A) or the last word (B)?</p> <br> <div class=""container""> <div id=""a-box""> <p class=""title-text"">A</h3></p> </div> <div id=""x-box""> <p class=""title-text"">X<p> </div> <div id=""b-box""> <p class=""title-text"">B</p></div> <br> <div style='float: left;padding-left:30px;'><p>Press '1' for A</p></div><div style='float: right;padding-right:30px;'><p>Press '0' for B</p> </div> </div></div>","null","","","","","","","","","","","","","",""
"3291","","test","audio-keyboard-response","183","432763","0.0-8.0-1.77","5db37bb9da032c000f9e04fa","condB","","resources/audio/wordStim/S9_AI_22_bxa_Step-9.wav","49","","","","","AI","resources/audio/wordStim/S9_AI_22_bxa_Step-9.wav","S9","22","bxa","9","CN","1","1","true"
"null","","fixation","html-keyboard-response","184","433768","0.0-8.0-0.78","5db37bb9da032c000f9e04fa","condB","","<div class=""vertical-center"" style='width:60%;'><p style='font-weight:bold;'>Does the middle word sound more like the first word (A) or the last word (B)?</p> <br> <div class=""container""> <div id=""a-box""> <p class=""title-text"">A</h3></p> </div> <div id=""x-box""> <p class=""title-text"">X<p> </div> <div id=""b-box""> <p class=""title-text"">B</p></div> <br> <div style='float: left;padding-left:30px;'><p>Press '1' for A</p></div><div style='float: right;padding-right:30px;'><p>Press '0' for B</p> </div> </div></div>","null","","","","","","","","","","","","","",""
"3297","","test","audio-keyboard-response","185","437065","0.0-8.0-1.78","5db37bb9da032c000f9e04fa","condB","","resources/audio/wordStim/S3_AU_18_bxa_Step-3.wav","48","","","","","AU","resources/audio/wordStim/S3_AU_18_bxa_Step-3.wav","S3","18","bxa","3","MI","1","0","false"
"null","","fixation","html-keyboard-response","186","438069","0.0-8.0-0.79","5db37bb9da032c000f9e04fa","condB","","<div class=""vertical-center"" style='width:60%;'><p style='font-weight:bold;'>Does the middle word sound more like the first word (A) or the last word (B)?</p> <br> <div class=""container""> <div id=""a-box""> <p class=""title-text"">A</h3></p> </div> <div id=""x-box""> <p class=""title-text"">X<p> </div> <div id=""b-box""> <p class=""title-text"">B</p></div> <br> <div style='float: left;padding-left:30px;'><p>Press '1' for A</p></div><div style='float: right;padding-right:30px;'><p>Press '0' for B</p> </div> </div></div>","null","","","","","","","","","","","","","",""
"2583","","test","audio-keyboard-response","187","440651","0.0-8.0-1.79","5db37bb9da032c000f9e04fa","condB","","resources/audio/wordStim/S3_AI_25_axb_Step-6.wav","48","","","","","AI","resources/audio/wordStim/S3_AI_25_axb_Step-6.wav","S3","25","axb","6","MI","0","0","true"
"null","","fixation","html-keyboard-response","188","441656","0.0-8.0-0.80","5db37bb9da032c000f9e04fa","condB","","<div class=""vertical-center"" style='width:60%;'><p style='font-weight:bold;'>Does the middle word sound more like the first word (A) or the last word (B)?</p> <br> <div class=""container""> <div id=""a-box""> <p class=""title-text"">A</h3></p> </div> <div id=""x-box""> <p class=""title-text"">X<p> </div> <div id=""b-box""> <p class=""title-text"">B</p></div> <br> <div style='float: left;padding-left:30px;'><p>Press '1' for A</p></div><div style='float: right;padding-right:30px;'><p>Press '0' for B</p> </div> </div></div>","null","","","","","","","","","","","","","",""
"3495","","test","audio-keyboard-response","189","445154","0.0-8.0-1.80","5db37bb9da032c000f9e04fa","condB","","resources/audio/wordStim/S3_AU_17_axb_Step-2.wav","49","","","","","AU","resources/audio/wordStim/S3_AU_17_axb_Step-2.wav","S3","17","axb","2","MI","0","1","false"
"1407.8200000003562","","break","html-keyboard-response","190","447064","0.0-8.0-2.80-0.80","5db37bb9da032c000f9e04fa","condB","","<div class=""vertical-center""><p>Feel free to take a break!</p><i>When you're ready to continue, press SPACE to begin the next trial.</i></p></div>","32","","","","","","","","","","","","","",""
"null","","fixation","html-keyboard-response","191","447565","0.0-8.0-0.81","5db37bb9da032c000f9e04fa","condB","","<div class=""vertical-center"" style='width:60%;'><p style='font-weight:bold;'>Does the middle word sound more like the first word (A) or the last word (B)?</p> <br> <div class=""container""> <div id=""a-box""> <p class=""title-text"">A</h3></p> </div> <div id=""x-box""> <p class=""title-text"">X<p> </div> <div id=""b-box""> <p class=""title-text"">B</p></div> <br> <div style='float: left;padding-left:30px;'><p>Press '1' for A</p></div><div style='float: right;padding-right:30px;'><p>Press '0' for B</p> </div> </div></div>","null","","","","","","","","","","","","","",""
"2821","","test","audio-keyboard-response","192","450385","0.0-8.0-1.81","5db37bb9da032c000f9e04fa","condB","","resources/audio/wordStim/S3_AI_21_axb_Step-6.wav","48","","","","","AI","resources/audio/wordStim/S3_AI_21_axb_Step-6.wav","S3","21","axb","6","MI","0","0","true"
"null","","fixation","html-keyboard-response","193","451392","0.0-8.0-0.82","5db37bb9da032c000f9e04fa","condB","","<div class=""vertical-center"" style='width:60%;'><p style='font-weight:bold;'>Does the middle word sound more like the first word (A) or the last word (B)?</p> <br> <div class=""container""> <div id=""a-box""> <p class=""title-text"">A</h3></p> </div> <div id=""x-box""> <p class=""title-text"">X<p> </div> <div id=""b-box""> <p class=""title-text"">B</p></div> <br> <div style='float: left;padding-left:30px;'><p>Press '1' for A</p></div><div style='float: right;padding-right:30px;'><p>Press '0' for B</p> </div> </div></div>","null","","","","","","","","","","","","","",""
"3048","","test","audio-keyboard-response","194","454440","0.0-8.0-1.82","5db37bb9da032c000f9e04fa","condB","","resources/audio/wordStim/S9_AI_22_bxa_Step-10.wav","49","","","","","AI","resources/audio/wordStim/S9_AI_22_bxa_Step-10.wav","S9","22","bxa","10","CN","1","1","true"
"null","","fixation","html-keyboard-response","195","455444","0.0-8.0-0.83","5db37bb9da032c000f9e04fa","condB","","<div class=""vertical-center"" style='width:60%;'><p style='font-weight:bold;'>Does the middle word sound more like the first word (A) or the last word (B)?</p> <br> <div class=""container""> <div id=""a-box""> <p class=""title-text"">A</h3></p> </div> <div id=""x-box""> <p class=""title-text"">X<p> </div> <div id=""b-box""> <p class=""title-text"">B</p></div> <br> <div style='float: left;padding-left:30px;'><p>Press '1' for A</p></div><div style='float: right;padding-right:30px;'><p>Press '0' for B</p> </div> </div></div>","null","","","","","","","","","","","","","",""
"3442","","test","audio-keyboard-response","196","458885","0.0-8.0-1.83","5db37bb9da032c000f9e04fa","condB","","resources/audio/wordStim/S3_AU_16_bxa_Step-3.wav","49","","","","","AU","resources/audio/wordStim/S3_AU_16_bxa_Step-3.wav","S3","16","bxa","3","MI","1","1","true"
"null","","fixation","html-keyboard-response","197","459890","0.0-8.0-0.84","5db37bb9da032c000f9e04fa","condB","","<div class=""vertical-center"" style='width:60%;'><p style='font-weight:bold;'>Does the middle word sound more like the first word (A) or the last word (B)?</p> <br> <div class=""container""> <div id=""a-box""> <p class=""title-text"">A</h3></p> </div> <div id=""x-box""> <p class=""title-text"">X<p> </div> <div id=""b-box""> <p class=""title-text"">B</p></div> <br> <div style='float: left;padding-left:30px;'><p>Press '1' for A</p></div><div style='float: right;padding-right:30px;'><p>Press '0' for B</p> </div> </div></div>","null","","","","","","","","","","","","","",""
"2868","","test","audio-keyboard-response","198","462757","0.0-8.0-1.84","5db37bb9da032c000f9e04fa","condB","","resources/audio/wordStim/S9_AU_17_bxa_Step-7.wav","49","","","","","AU","resources/audio/wordStim/S9_AU_17_bxa_Step-7.wav","S9","17","bxa","7","CN","1","1","true"
"null","","fixation","html-keyboard-response","199","463763","0.0-8.0-0.85","5db37bb9da032c000f9e04fa","condB","","<div class=""vertical-center"" style='width:60%;'><p style='font-weight:bold;'>Does the middle word sound more like the first word (A) or the last word (B)?</p> <br> <div class=""container""> <div id=""a-box""> <p class=""title-text"">A</h3></p> </div> <div id=""x-box""> <p class=""title-text"">X<p> </div> <div id=""b-box""> <p class=""title-text"">B</p></div> <br> <div style='float: left;padding-left:30px;'><p>Press '1' for A</p></div><div style='float: right;padding-right:30px;'><p>Press '0' for B</p> </div> </div></div>","null","","","","","","","","","","","","","",""
"3065","","test","audio-keyboard-response","200","466827","0.0-8.0-1.85","5db37bb9da032c000f9e04fa","condB","","resources/audio/wordStim/S9_AI_29_bxa_Step-10.wav","49","","","","","AI","resources/audio/wordStim/S9_AI_29_bxa_Step-10.wav","S9","29","bxa","10","CN","1","1","true"
"null","","fixation","html-keyboard-response","201","467832","0.0-8.0-0.86","5db37bb9da032c000f9e04fa","condB","","<div class=""vertical-center"" style='width:60%;'><p style='font-weight:bold;'>Does the middle word sound more like the first word (A) or the last word (B)?</p> <br> <div class=""container""> <div id=""a-box""> <p class=""title-text"">A</h3></p> </div> <div id=""x-box""> <p class=""title-text"">X<p> </div> <div id=""b-box""> <p class=""title-text"">B</p></div> <br> <div style='float: left;padding-left:30px;'><p>Press '1' for A</p></div><div style='float: right;padding-right:30px;'><p>Press '0' for B</p> </div> </div></div>","null","","","","","","","","","","","","","",""
"2879","","test","audio-keyboard-response","202","470712","0.0-8.0-1.86","5db37bb9da032c000f9e04fa","condB","","resources/audio/wordStim/S9_AU_20_bxa_Step-10.wav","49","","","","","AU","resources/audio/wordStim/S9_AU_20_bxa_Step-10.wav","S9","20","bxa","10","CN","1","1","true"
"null","","fixation","html-keyboard-response","203","471716","0.0-8.0-0.87","5db37bb9da032c000f9e04fa","condB","","<div class=""vertical-center"" style='width:60%;'><p style='font-weight:bold;'>Does the middle word sound more like the first word (A) or the last word (B)?</p> <br> <div class=""container""> <div id=""a-box""> <p class=""title-text"">A</h3></p> </div> <div id=""x-box""> <p class=""title-text"">X<p> </div> <div id=""b-box""> <p class=""title-text"">B</p></div> <br> <div style='float: left;padding-left:30px;'><p>Press '1' for A</p></div><div style='float: right;padding-right:30px;'><p>Press '0' for B</p> </div> </div></div>","null","","","","","","","","","","","","","",""
"3100","","test","audio-keyboard-response","204","474817","0.0-8.0-1.87","5db37bb9da032c000f9e04fa","condB","","resources/audio/wordStim/S9_AI_23_axb_Step-2.wav","49","","","","","AI","resources/audio/wordStim/S9_AI_23_axb_Step-2.wav","S9","23","axb","2","CN","0","1","false"
"null","","fixation","html-keyboard-response","205","475822","0.0-8.0-0.88","5db37bb9da032c000f9e04fa","condB","","<div class=""vertical-center"" style='width:60%;'><p style='font-weight:bold;'>Does the middle word sound more like the first word (A) or the last word (B)?</p> <br> <div class=""container""> <div id=""a-box""> <p class=""title-text"">A</h3></p> </div> <div id=""x-box""> <p class=""title-text"">X<p> </div> <div id=""b-box""> <p class=""title-text"">B</p></div> <br> <div style='float: left;padding-left:30px;'><p>Press '1' for A</p></div><div style='float: right;padding-right:30px;'><p>Press '0' for B</p> </div> </div></div>","null","","","","","","","","","","","","","",""
"2798","","test","audio-keyboard-response","206","478622","0.0-8.0-1.88","5db37bb9da032c000f9e04fa","condB","","resources/audio/wordStim/S9_AI_27_bxa_Step-7.wav","48","","","","","AI","resources/audio/wordStim/S9_AI_27_bxa_Step-7.wav","S9","27","bxa","7","CN","1","0","false"
"null","","fixation","html-keyboard-response","207","479628","0.0-8.0-0.89","5db37bb9da032c000f9e04fa","condB","","<div class=""vertical-center"" style='width:60%;'><p style='font-weight:bold;'>Does the middle word sound more like the first word (A) or the last word (B)?</p> <br> <div class=""container""> <div id=""a-box""> <p class=""title-text"">A</h3></p> </div> <div id=""x-box""> <p class=""title-text"">X<p> </div> <div id=""b-box""> <p class=""title-text"">B</p></div> <br> <div style='float: left;padding-left:30px;'><p>Press '1' for A</p></div><div style='float: right;padding-right:30px;'><p>Press '0' for B</p> </div> </div></div>","null","","","","","","","","","","","","","",""
"3611","","test","audio-keyboard-response","208","483242","0.0-8.0-1.89","5db37bb9da032c000f9e04fa","condB","","resources/audio/wordStim/S3_AU_17_axb_Step-8.wav","48","","","","","AU","resources/audio/wordStim/S3_AU_17_axb_Step-8.wav","S3","17","axb","8","MI","0","0","true"
"null","","fixation","html-keyboard-response","209","484247","0.0-8.0-0.90","5db37bb9da032c000f9e04fa","condB","","<div class=""vertical-center"" style='width:60%;'><p style='font-weight:bold;'>Does the middle word sound more like the first word (A) or the last word (B)?</p> <br> <div class=""container""> <div id=""a-box""> <p class=""title-text"">A</h3></p> </div> <div id=""x-box""> <p class=""title-text"">X<p> </div> <div id=""b-box""> <p class=""title-text"">B</p></div> <br> <div style='float: left;padding-left:30px;'><p>Press '1' for A</p></div><div style='float: right;padding-right:30px;'><p>Press '0' for B</p> </div> </div></div>","null","","","","","","","","","","","","","",""
"3361","","test","audio-keyboard-response","210","487610","0.0-8.0-1.90","5db37bb9da032c000f9e04fa","condB","","resources/audio/wordStim/S9_AI_29_bxa_Step-9.wav","48","","","","","AI","resources/audio/wordStim/S9_AI_29_bxa_Step-9.wav","S9","29","bxa","9","CN","1","0","false"
"null","","fixation","html-keyboard-response","211","488614","0.0-8.0-0.91","5db37bb9da032c000f9e04fa","condB","","<div class=""vertical-center"" style='width:60%;'><p style='font-weight:bold;'>Does the middle word sound more like the first word (A) or the last word (B)?</p> <br> <div class=""container""> <div id=""a-box""> <p class=""title-text"">A</h3></p> </div> <div id=""x-box""> <p class=""title-text"">X<p> </div> <div id=""b-box""> <p class=""title-text"">B</p></div> <br> <div style='float: left;padding-left:30px;'><p>Press '1' for A</p></div><div style='float: right;padding-right:30px;'><p>Press '0' for B</p> </div> </div></div>","null","","","","","","","","","","","","","",""
"2868","","test","audio-keyboard-response","212","491486","0.0-8.0-1.91","5db37bb9da032c000f9e04fa","condB","","resources/audio/wordStim/S3_AU_20_bxa_Step-5.wav","49","","","","","AU","resources/audio/wordStim/S3_AU_20_bxa_Step-5.wav","S3","20","bxa","5","MI","1","1","true"
"null","","fixation","html-keyboard-response","213","492491","0.0-8.0-0.92","5db37bb9da032c000f9e04fa","condB","","<div class=""vertical-center"" style='width:60%;'><p style='font-weight:bold;'>Does the middle word sound more like the first word (A) or the last word (B)?</p> <br> <div class=""container""> <div id=""a-box""> <p class=""title-text"">A</h3></p> </div> <div id=""x-box""> <p class=""title-text"">X<p> </div> <div id=""b-box""> <p class=""title-text"">B</p></div> <br> <div style='float: left;padding-left:30px;'><p>Press '1' for A</p></div><div style='float: right;padding-right:30px;'><p>Press '0' for B</p> </div> </div></div>","null","","","","","","","","","","","","","",""
"2792","","test","audio-keyboard-response","214","495288","0.0-8.0-1.92","5db37bb9da032c000f9e04fa","condB","","resources/audio/wordStim/S3_AU_15_axb_Step-6.wav","48","","","","","AU","resources/audio/wordStim/S3_AU_15_axb_Step-6.wav","S3","15","axb","6","MI","0","0","true"
