"rt","url","trial_role","trial_type","trial_index","time_elapsed","internal_node_id","participantId","condition","view_history","stimulus","key_press","button_pressed","correct_answer","correct_response","success","vowel","wordStim","speaker","sentNum","order","step","speakerIdentity","raised_answer","key_response","raised_response"
"20843","micr.con.consent.html","consent","external-html","0","20873","0.0-0.0","5e3a068281288b000bb484a3","condB","","","","","","","","","","","","","","","","",""
"57116","","instructions","instructions","1","77990","0.0-1.0","5e3a068281288b000bb484a3","condB","[{""page_index"":0,""viewing_time"":20865},{""page_index"":1,""viewing_time"":18993},{""page_index"":2,""viewing_time"":17258}]","","","","","","","","","","","","","","","",""
"null","","fixation","html-keyboard-response","2","78493","0.0-2.0-0.0","5e3a068281288b000bb484a3","condB","","<div class=""vertical-center"" style=""font-size:60px;"">+</div>","null","","","","","","","","","","","","","",""
"4476","","tonetest","audio-button-response","3","82970","0.0-2.0-1.0","5e3a068281288b000bb484a3","condB","","../../src/audio/toneTest_1.wav","","2","2","true","","","","","","","","","","",""
"null","","fixation","html-keyboard-response","4","83473","0.0-2.0-0.1","5e3a068281288b000bb484a3","condB","","<div class=""vertical-center"" style=""font-size:60px;"">+</div>","null","","","","","","","","","","","","","",""
"4367","","tonetest","audio-button-response","5","87841","0.0-2.0-1.1","5e3a068281288b000bb484a3","condB","","../../src/audio/toneTest_1.wav","","2","2","true","","","","","","","","","","",""
"null","","fixation","html-keyboard-response","6","88342","0.0-2.0-0.2","5e3a068281288b000bb484a3","condB","","<div class=""vertical-center"" style=""font-size:60px;"">+</div>","null","","","","","","","","","","","","","",""
"4274","","tonetest","audio-button-response","7","92616","0.0-2.0-1.2","5e3a068281288b000bb484a3","condB","","../../src/audio/toneTest_1.wav","","2","2","true","","","","","","","","","","",""
"null","","fixation","html-keyboard-response","8","93118","0.0-2.0-0.3","5e3a068281288b000bb484a3","condB","","<div class=""vertical-center"" style=""font-size:60px;"">+</div>","null","","","","","","","","","","","","","",""
"4275","","tonetest","audio-button-response","9","97393","0.0-2.0-1.3","5e3a068281288b000bb484a3","condB","","../../src/audio/toneTest_2.wav","","1","1","true","","","","","","","","","","",""
"null","","fixation","html-keyboard-response","10","97895","0.0-2.0-0.4","5e3a068281288b000bb484a3","condB","","<div class=""vertical-center"" style=""font-size:60px;"">+</div>","null","","","","","","","","","","","","","",""
"4391","","tonetest","audio-button-response","11","102287","0.0-2.0-1.4","5e3a068281288b000bb484a3","condB","","../../src/audio/toneTest_4.wav","","1","1","true","","","","","","","","","","",""
"null","","fixation","html-keyboard-response","12","102790","0.0-2.0-0.5","5e3a068281288b000bb484a3","condB","","<div class=""vertical-center"" style=""font-size:60px;"">+</div>","null","","","","","","","","","","","","","",""
"4370","","tonetest","audio-button-response","13","107160","0.0-2.0-1.5","5e3a068281288b000bb484a3","condB","","../../src/audio/toneTest_2.wav","","1","1","true","","","","","","","","","","",""
"5774","","instructions","html-keyboard-response","14","112936","0.0-3.0","5e3a068281288b000bb484a3","condB","","<div class=""vertical-center""><p><b>Your score was 6/6.</b></p><p>If you scored below 6, please ensure that you are wearing headphones and in a quiet location free of distractions.</p><p><i>To continue to the main experiment, press SPACE.</i></p></div>","32","","","","","","","","","","","","","",""
"","","","fullscreen","15","116369","0.0-4.0","5e3a068281288b000bb484a3","condB","","","","","","","true","","","","","","","","","",""
"29125","","instructions","instructions","16","145496","0.0-5.0","5e3a068281288b000bb484a3","condB","[{""page_index"":0,""viewing_time"":29125}]","","","","","","","","","","","","","","","",""
"null","","fixation","html-keyboard-response","17","145997","0.0-6.0-0.0","5e3a068281288b000bb484a3","condB","","<div class=""vertical-center"" style='width:60%;'><p style='font-weight:bold;'>Does the middle word sound more like the first word (A) or the last word (B)?</p> <br> <div class=""container""> <div id=""a-box""> <p class=""title-text"">A</h3></p> </div> <div id=""x-box""> <p class=""title-text"">X<p> </div> <div id=""b-box""> <p class=""title-text"">B</p></div> <br> <div style='float: left;padding-left:30px;'><p>Press '1' for A</p></div><div style='float: right;padding-right:30px;'><p>Press '0' for B</p> </div> </div></div>","null","","","","","","","","","","","","","",""
"28509","","practice","audio-keyboard-response","18","174503","0.0-6.0-1.0","5e3a068281288b000bb484a3","condB","","resources/audio/practiceStim/S1_AU_14_bxa_Step-6.wav","48","","","","","","","","","","","","","",""
"null","","fixation","html-keyboard-response","19","175505","0.0-6.0-0.1","5e3a068281288b000bb484a3","condB","","<div class=""vertical-center"" style='width:60%;'><p style='font-weight:bold;'>Does the middle word sound more like the first word (A) or the last word (B)?</p> <br> <div class=""container""> <div id=""a-box""> <p class=""title-text"">A</h3></p> </div> <div id=""x-box""> <p class=""title-text"">X<p> </div> <div id=""b-box""> <p class=""title-text"">B</p></div> <br> <div style='float: left;padding-left:30px;'><p>Press '1' for A</p></div><div style='float: right;padding-right:30px;'><p>Press '0' for B</p> </div> </div></div>","null","","","","","","","","","","","","","",""
"13261","","practice","audio-keyboard-response","20","188767","0.0-6.0-1.1","5e3a068281288b000bb484a3","condB","","resources/audio/practiceStim/S1_AU_14_axb_Step-6.wav","49","","","","","","","","","","","","","",""
"null","","fixation","html-keyboard-response","21","189769","0.0-6.0-0.2","5e3a068281288b000bb484a3","condB","","<div class=""vertical-center"" style='width:60%;'><p style='font-weight:bold;'>Does the middle word sound more like the first word (A) or the last word (B)?</p> <br> <div class=""container""> <div id=""a-box""> <p class=""title-text"">A</h3></p> </div> <div id=""x-box""> <p class=""title-text"">X<p> </div> <div id=""b-box""> <p class=""title-text"">B</p></div> <br> <div style='float: left;padding-left:30px;'><p>Press '1' for A</p></div><div style='float: right;padding-right:30px;'><p>Press '0' for B</p> </div> </div></div>","null","","","","","","","","","","","","","",""
"6280","","practice","audio-keyboard-response","22","196047","0.0-6.0-1.2","5e3a068281288b000bb484a3","condB","","resources/audio/practiceStim/S1_AI_21_bxa_Step-6.wav","48","","","","","","","","","","","","","",""
"null","","fixation","html-keyboard-response","23","197047","0.0-6.0-0.3","5e3a068281288b000bb484a3","condB","","<div class=""vertical-center"" style='width:60%;'><p style='font-weight:bold;'>Does the middle word sound more like the first word (A) or the last word (B)?</p> <br> <div class=""container""> <div id=""a-box""> <p class=""title-text"">A</h3></p> </div> <div id=""x-box""> <p class=""title-text"">X<p> </div> <div id=""b-box""> <p class=""title-text"">B</p></div> <br> <div style='float: left;padding-left:30px;'><p>Press '1' for A</p></div><div style='float: right;padding-right:30px;'><p>Press '0' for B</p> </div> </div></div>","null","","","","","","","","","","","","","",""
"4909","","practice","audio-keyboard-response","24","201951","0.0-6.0-1.3","5e3a068281288b000bb484a3","condB","","resources/audio/practiceStim/S1_AI_21_axb_Step-6.wav","49","","","","","","","","","","","","","",""
"2452","","instructions","instructions","25","204904","0.0-7.0","5e3a068281288b000bb484a3","condB","[{""page_index"":0,""viewing_time"":2452}]","","","","","","","","","","","","","","","",""
"null","","fixation","html-keyboard-response","26","205405","0.0-8.0-0.0","5e3a068281288b000bb484a3","condB","","<div class=""vertical-center"" style='width:60%;'><p style='font-weight:bold;'>Does the middle word sound more like the first word (A) or the last word (B)?</p> <br> <div class=""container""> <div id=""a-box""> <p class=""title-text"">A</h3></p> </div> <div id=""x-box""> <p class=""title-text"">X<p> </div> <div id=""b-box""> <p class=""title-text"">B</p></div> <br> <div style='float: left;padding-left:30px;'><p>Press '1' for A</p></div><div style='float: right;padding-right:30px;'><p>Press '0' for B</p> </div> </div></div>","null","","","","","","","","","","","","","",""
"4939","","test","audio-keyboard-response","27","210343","0.0-8.0-1.0","5e3a068281288b000bb484a3","condB","","resources/audio/wordStim/S3_AI_23_bxa_Step-7.wav","49","","","","","AI","resources/audio/wordStim/S3_AI_23_bxa_Step-7.wav","S3","23","bxa","7","MI","1","1","true"
"null","","fixation","html-keyboard-response","28","211345","0.0-8.0-0.1","5e3a068281288b000bb484a3","condB","","<div class=""vertical-center"" style='width:60%;'><p style='font-weight:bold;'>Does the middle word sound more like the first word (A) or the last word (B)?</p> <br> <div class=""container""> <div id=""a-box""> <p class=""title-text"">A</h3></p> </div> <div id=""x-box""> <p class=""title-text"">X<p> </div> <div id=""b-box""> <p class=""title-text"">B</p></div> <br> <div style='float: left;padding-left:30px;'><p>Press '1' for A</p></div><div style='float: right;padding-right:30px;'><p>Press '0' for B</p> </div> </div></div>","null","","","","","","","","","","","","","",""
"3291","","test","audio-keyboard-response","29","214631","0.0-8.0-1.1","5e3a068281288b000bb484a3","condB","","resources/audio/wordStim/S3_AI_30_axb_Step-6.wav","48","","","","","AI","resources/audio/wordStim/S3_AI_30_axb_Step-6.wav","S3","30","axb","6","MI","0","0","true"
"null","","fixation","html-keyboard-response","30","215634","0.0-8.0-0.2","5e3a068281288b000bb484a3","condB","","<div class=""vertical-center"" style='width:60%;'><p style='font-weight:bold;'>Does the middle word sound more like the first word (A) or the last word (B)?</p> <br> <div class=""container""> <div id=""a-box""> <p class=""title-text"">A</h3></p> </div> <div id=""x-box""> <p class=""title-text"">X<p> </div> <div id=""b-box""> <p class=""title-text"">B</p></div> <br> <div style='float: left;padding-left:30px;'><p>Press '1' for A</p></div><div style='float: right;padding-right:30px;'><p>Press '0' for B</p> </div> </div></div>","null","","","","","","","","","","","","","",""
"4789","","test","audio-keyboard-response","31","220423","0.0-8.0-1.2","5e3a068281288b000bb484a3","condB","","resources/audio/wordStim/S9_AI_29_bxa_Step-9.wav","48","","","","","AI","resources/audio/wordStim/S9_AI_29_bxa_Step-9.wav","S9","29","bxa","9","CN","1","0","false"
"null","","fixation","html-keyboard-response","32","221425","0.0-8.0-0.3","5e3a068281288b000bb484a3","condB","","<div class=""vertical-center"" style='width:60%;'><p style='font-weight:bold;'>Does the middle word sound more like the first word (A) or the last word (B)?</p> <br> <div class=""container""> <div id=""a-box""> <p class=""title-text"">A</h3></p> </div> <div id=""x-box""> <p class=""title-text"">X<p> </div> <div id=""b-box""> <p class=""title-text"">B</p></div> <br> <div style='float: left;padding-left:30px;'><p>Press '1' for A</p></div><div style='float: right;padding-right:30px;'><p>Press '0' for B</p> </div> </div></div>","null","","","","","","","","","","","","","",""
"2872","","test","audio-keyboard-response","33","224295","0.0-8.0-1.3","5e3a068281288b000bb484a3","condB","","resources/audio/wordStim/S9_AU_14_bxa_Step-5.wav","48","","","","","AU","resources/audio/wordStim/S9_AU_14_bxa_Step-5.wav","S9","14","bxa","5","CN","1","0","false"
"null","","fixation","html-keyboard-response","34","225299","0.0-8.0-0.4","5e3a068281288b000bb484a3","condB","","<div class=""vertical-center"" style='width:60%;'><p style='font-weight:bold;'>Does the middle word sound more like the first word (A) or the last word (B)?</p> <br> <div class=""container""> <div id=""a-box""> <p class=""title-text"">A</h3></p> </div> <div id=""x-box""> <p class=""title-text"">X<p> </div> <div id=""b-box""> <p class=""title-text"">B</p></div> <br> <div style='float: left;padding-left:30px;'><p>Press '1' for A</p></div><div style='float: right;padding-right:30px;'><p>Press '0' for B</p> </div> </div></div>","null","","","","","","","","","","","","","",""
"2499","","test","audio-keyboard-response","35","227791","0.0-8.0-1.4","5e3a068281288b000bb484a3","condB","","resources/audio/wordStim/S3_AI_21_bxa_Step-5.wav","48","","","","","AI","resources/audio/wordStim/S3_AI_21_bxa_Step-5.wav","S3","21","bxa","5","MI","1","0","false"
"null","","fixation","html-keyboard-response","36","228793","0.0-8.0-0.5","5e3a068281288b000bb484a3","condB","","<div class=""vertical-center"" style='width:60%;'><p style='font-weight:bold;'>Does the middle word sound more like the first word (A) or the last word (B)?</p> <br> <div class=""container""> <div id=""a-box""> <p class=""title-text"">A</h3></p> </div> <div id=""x-box""> <p class=""title-text"">X<p> </div> <div id=""b-box""> <p class=""title-text"">B</p></div> <br> <div style='float: left;padding-left:30px;'><p>Press '1' for A</p></div><div style='float: right;padding-right:30px;'><p>Press '0' for B</p> </div> </div></div>","null","","","","","","","","","","","","","",""
"3560","","test","audio-keyboard-response","37","232352","0.0-8.0-1.5","5e3a068281288b000bb484a3","condB","","resources/audio/wordStim/S9_AU_14_axb_Step-8.wav","48","","","","","AU","resources/audio/wordStim/S9_AU_14_axb_Step-8.wav","S9","14","axb","8","CN","0","0","true"
"null","","fixation","html-keyboard-response","38","233353","0.0-8.0-0.6","5e3a068281288b000bb484a3","condB","","<div class=""vertical-center"" style='width:60%;'><p style='font-weight:bold;'>Does the middle word sound more like the first word (A) or the last word (B)?</p> <br> <div class=""container""> <div id=""a-box""> <p class=""title-text"">A</h3></p> </div> <div id=""x-box""> <p class=""title-text"">X<p> </div> <div id=""b-box""> <p class=""title-text"">B</p></div> <br> <div style='float: left;padding-left:30px;'><p>Press '1' for A</p></div><div style='float: right;padding-right:30px;'><p>Press '0' for B</p> </div> </div></div>","null","","","","","","","","","","","","","",""
"4291","","test","audio-keyboard-response","39","237639","0.0-8.0-1.6","5e3a068281288b000bb484a3","condB","","resources/audio/wordStim/S3_AI_29_axb_Step-4.wav","49","","","","","AI","resources/audio/wordStim/S3_AI_29_axb_Step-4.wav","S3","29","axb","4","MI","0","1","false"
"null","","fixation","html-keyboard-response","40","238642","0.0-8.0-0.7","5e3a068281288b000bb484a3","condB","","<div class=""vertical-center"" style='width:60%;'><p style='font-weight:bold;'>Does the middle word sound more like the first word (A) or the last word (B)?</p> <br> <div class=""container""> <div id=""a-box""> <p class=""title-text"">A</h3></p> </div> <div id=""x-box""> <p class=""title-text"">X<p> </div> <div id=""b-box""> <p class=""title-text"">B</p></div> <br> <div style='float: left;padding-left:30px;'><p>Press '1' for A</p></div><div style='float: right;padding-right:30px;'><p>Press '0' for B</p> </div> </div></div>","null","","","","","","","","","","","","","",""
"2651","","test","audio-keyboard-response","41","241295","0.0-8.0-1.7","5e3a068281288b000bb484a3","condB","","resources/audio/wordStim/S3_AU_19_bxa_Step-5.wav","48","","","","","AU","resources/audio/wordStim/S3_AU_19_bxa_Step-5.wav","S3","19","bxa","5","MI","1","0","false"
"null","","fixation","html-keyboard-response","42","242296","0.0-8.0-0.8","5e3a068281288b000bb484a3","condB","","<div class=""vertical-center"" style='width:60%;'><p style='font-weight:bold;'>Does the middle word sound more like the first word (A) or the last word (B)?</p> <br> <div class=""container""> <div id=""a-box""> <p class=""title-text"">A</h3></p> </div> <div id=""x-box""> <p class=""title-text"">X<p> </div> <div id=""b-box""> <p class=""title-text"">B</p></div> <br> <div style='float: left;padding-left:30px;'><p>Press '1' for A</p></div><div style='float: right;padding-right:30px;'><p>Press '0' for B</p> </div> </div></div>","null","","","","","","","","","","","","","",""
"3069","","test","audio-keyboard-response","43","245367","0.0-8.0-1.8","5e3a068281288b000bb484a3","condB","","resources/audio/wordStim/S3_AI_29_bxa_Step-5.wav","48","","","","","AI","resources/audio/wordStim/S3_AI_29_bxa_Step-5.wav","S3","29","bxa","5","MI","1","0","false"
"null","","fixation","html-keyboard-response","44","246369","0.0-8.0-0.9","5e3a068281288b000bb484a3","condB","","<div class=""vertical-center"" style='width:60%;'><p style='font-weight:bold;'>Does the middle word sound more like the first word (A) or the last word (B)?</p> <br> <div class=""container""> <div id=""a-box""> <p class=""title-text"">A</h3></p> </div> <div id=""x-box""> <p class=""title-text"">X<p> </div> <div id=""b-box""> <p class=""title-text"">B</p></div> <br> <div style='float: left;padding-left:30px;'><p>Press '1' for A</p></div><div style='float: right;padding-right:30px;'><p>Press '0' for B</p> </div> </div></div>","null","","","","","","","","","","","","","",""
"3269","","test","audio-keyboard-response","45","249647","0.0-8.0-1.9","5e3a068281288b000bb484a3","condB","","resources/audio/wordStim/S3_AI_23_axb_Step-6.wav","48","","","","","AI","resources/audio/wordStim/S3_AI_23_axb_Step-6.wav","S3","23","axb","6","MI","0","0","true"
"null","","fixation","html-keyboard-response","46","250650","0.0-8.0-0.10","5e3a068281288b000bb484a3","condB","","<div class=""vertical-center"" style='width:60%;'><p style='font-weight:bold;'>Does the middle word sound more like the first word (A) or the last word (B)?</p> <br> <div class=""container""> <div id=""a-box""> <p class=""title-text"">A</h3></p> </div> <div id=""x-box""> <p class=""title-text"">X<p> </div> <div id=""b-box""> <p class=""title-text"">B</p></div> <br> <div style='float: left;padding-left:30px;'><p>Press '1' for A</p></div><div style='float: right;padding-right:30px;'><p>Press '0' for B</p> </div> </div></div>","null","","","","","","","","","","","","","",""
"2280","","test","audio-keyboard-response","47","252935","0.0-8.0-1.10","5e3a068281288b000bb484a3","condB","","resources/audio/wordStim/S3_AI_21_bxa_Step-3.wav","48","","","","","AI","resources/audio/wordStim/S3_AI_21_bxa_Step-3.wav","S3","21","bxa","3","MI","1","0","false"
"null","","fixation","html-keyboard-response","48","253938","0.0-8.0-0.11","5e3a068281288b000bb484a3","condB","","<div class=""vertical-center"" style='width:60%;'><p style='font-weight:bold;'>Does the middle word sound more like the first word (A) or the last word (B)?</p> <br> <div class=""container""> <div id=""a-box""> <p class=""title-text"">A</h3></p> </div> <div id=""x-box""> <p class=""title-text"">X<p> </div> <div id=""b-box""> <p class=""title-text"">B</p></div> <br> <div style='float: left;padding-left:30px;'><p>Press '1' for A</p></div><div style='float: right;padding-right:30px;'><p>Press '0' for B</p> </div> </div></div>","null","","","","","","","","","","","","","",""
"3640","","test","audio-keyboard-response","49","257574","0.0-8.0-1.11","5e3a068281288b000bb484a3","condB","","resources/audio/wordStim/S3_AI_30_axb_Step-4.wav","48","","","","","AI","resources/audio/wordStim/S3_AI_30_axb_Step-4.wav","S3","30","axb","4","MI","0","0","true"
"null","","fixation","html-keyboard-response","50","258579","0.0-8.0-0.12","5e3a068281288b000bb484a3","condB","","<div class=""vertical-center"" style='width:60%;'><p style='font-weight:bold;'>Does the middle word sound more like the first word (A) or the last word (B)?</p> <br> <div class=""container""> <div id=""a-box""> <p class=""title-text"">A</h3></p> </div> <div id=""x-box""> <p class=""title-text"">X<p> </div> <div id=""b-box""> <p class=""title-text"">B</p></div> <br> <div style='float: left;padding-left:30px;'><p>Press '1' for A</p></div><div style='float: right;padding-right:30px;'><p>Press '0' for B</p> </div> </div></div>","null","","","","","","","","","","","","","",""
"3109","","test","audio-keyboard-response","51","261687","0.0-8.0-1.12","5e3a068281288b000bb484a3","condB","","resources/audio/wordStim/S9_AI_24_bxa_Step-10.wav","48","","","","","AI","resources/audio/wordStim/S9_AI_24_bxa_Step-10.wav","S9","24","bxa","10","CN","1","0","false"
"null","","fixation","html-keyboard-response","52","262689","0.0-8.0-0.13","5e3a068281288b000bb484a3","condB","","<div class=""vertical-center"" style='width:60%;'><p style='font-weight:bold;'>Does the middle word sound more like the first word (A) or the last word (B)?</p> <br> <div class=""container""> <div id=""a-box""> <p class=""title-text"">A</h3></p> </div> <div id=""x-box""> <p class=""title-text"">X<p> </div> <div id=""b-box""> <p class=""title-text"">B</p></div> <br> <div style='float: left;padding-left:30px;'><p>Press '1' for A</p></div><div style='float: right;padding-right:30px;'><p>Press '0' for B</p> </div> </div></div>","null","","","","","","","","","","","","","",""
"3669","","test","audio-keyboard-response","53","266351","0.0-8.0-1.13","5e3a068281288b000bb484a3","condB","","resources/audio/wordStim/S9_AU_18_bxa_Step-5.wav","48","","","","","AU","resources/audio/wordStim/S9_AU_18_bxa_Step-5.wav","S9","18","bxa","5","CN","1","0","false"
"null","","fixation","html-keyboard-response","54","267353","0.0-8.0-0.14","5e3a068281288b000bb484a3","condB","","<div class=""vertical-center"" style='width:60%;'><p style='font-weight:bold;'>Does the middle word sound more like the first word (A) or the last word (B)?</p> <br> <div class=""container""> <div id=""a-box""> <p class=""title-text"">A</h3></p> </div> <div id=""x-box""> <p class=""title-text"">X<p> </div> <div id=""b-box""> <p class=""title-text"">B</p></div> <br> <div style='float: left;padding-left:30px;'><p>Press '1' for A</p></div><div style='float: right;padding-right:30px;'><p>Press '0' for B</p> </div> </div></div>","null","","","","","","","","","","","","","",""
"3320","","test","audio-keyboard-response","55","270679","0.0-8.0-1.14","5e3a068281288b000bb484a3","condB","","resources/audio/wordStim/S9_AU_20_bxa_Step-10.wav","49","","","","","AU","resources/audio/wordStim/S9_AU_20_bxa_Step-10.wav","S9","20","bxa","10","CN","1","1","true"
"null","","fixation","html-keyboard-response","56","271680","0.0-8.0-0.15","5e3a068281288b000bb484a3","condB","","<div class=""vertical-center"" style='width:60%;'><p style='font-weight:bold;'>Does the middle word sound more like the first word (A) or the last word (B)?</p> <br> <div class=""container""> <div id=""a-box""> <p class=""title-text"">A</h3></p> </div> <div id=""x-box""> <p class=""title-text"">X<p> </div> <div id=""b-box""> <p class=""title-text"">B</p></div> <br> <div style='float: left;padding-left:30px;'><p>Press '1' for A</p></div><div style='float: right;padding-right:30px;'><p>Press '0' for B</p> </div> </div></div>","null","","","","","","","","","","","","","",""
"3240","","test","audio-keyboard-response","57","274927","0.0-8.0-1.15","5e3a068281288b000bb484a3","condB","","resources/audio/wordStim/S9_AI_23_bxa_Step-9.wav","49","","","","","AI","resources/audio/wordStim/S9_AI_23_bxa_Step-9.wav","S9","23","bxa","9","CN","1","1","true"
"null","","fixation","html-keyboard-response","58","275929","0.0-8.0-0.16","5e3a068281288b000bb484a3","condB","","<div class=""vertical-center"" style='width:60%;'><p style='font-weight:bold;'>Does the middle word sound more like the first word (A) or the last word (B)?</p> <br> <div class=""container""> <div id=""a-box""> <p class=""title-text"">A</h3></p> </div> <div id=""x-box""> <p class=""title-text"">X<p> </div> <div id=""b-box""> <p class=""title-text"">B</p></div> <br> <div style='float: left;padding-left:30px;'><p>Press '1' for A</p></div><div style='float: right;padding-right:30px;'><p>Press '0' for B</p> </div> </div></div>","null","","","","","","","","","","","","","",""
"4720","","test","audio-keyboard-response","59","280639","0.0-8.0-1.16","5e3a068281288b000bb484a3","condB","","resources/audio/wordStim/S3_AI_29_bxa_Step-7.wav","48","","","","","AI","resources/audio/wordStim/S3_AI_29_bxa_Step-7.wav","S3","29","bxa","7","MI","1","0","false"
"null","","fixation","html-keyboard-response","60","281641","0.0-8.0-0.17","5e3a068281288b000bb484a3","condB","","<div class=""vertical-center"" style='width:60%;'><p style='font-weight:bold;'>Does the middle word sound more like the first word (A) or the last word (B)?</p> <br> <div class=""container""> <div id=""a-box""> <p class=""title-text"">A</h3></p> </div> <div id=""x-box""> <p class=""title-text"">X<p> </div> <div id=""b-box""> <p class=""title-text"">B</p></div> <br> <div style='float: left;padding-left:30px;'><p>Press '1' for A</p></div><div style='float: right;padding-right:30px;'><p>Press '0' for B</p> </div> </div></div>","null","","","","","","","","","","","","","",""
"2939","","test","audio-keyboard-response","61","284583","0.0-8.0-1.17","5e3a068281288b000bb484a3","condB","","resources/audio/wordStim/S9_AU_19_axb_Step-2.wav","49","","","","","AU","resources/audio/wordStim/S9_AU_19_axb_Step-2.wav","S9","19","axb","2","CN","0","1","false"
"null","","fixation","html-keyboard-response","62","285587","0.0-8.0-0.18","5e3a068281288b000bb484a3","condB","","<div class=""vertical-center"" style='width:60%;'><p style='font-weight:bold;'>Does the middle word sound more like the first word (A) or the last word (B)?</p> <br> <div class=""container""> <div id=""a-box""> <p class=""title-text"">A</h3></p> </div> <div id=""x-box""> <p class=""title-text"">X<p> </div> <div id=""b-box""> <p class=""title-text"">B</p></div> <br> <div style='float: left;padding-left:30px;'><p>Press '1' for A</p></div><div style='float: right;padding-right:30px;'><p>Press '0' for B</p> </div> </div></div>","null","","","","","","","","","","","","","",""
"3771","","test","audio-keyboard-response","63","289359","0.0-8.0-1.18","5e3a068281288b000bb484a3","condB","","resources/audio/wordStim/S9_AI_22_bxa_Step-5.wav","49","","","","","AI","resources/audio/wordStim/S9_AI_22_bxa_Step-5.wav","S9","22","bxa","5","CN","1","1","true"
"null","","fixation","html-keyboard-response","64","290362","0.0-8.0-0.19","5e3a068281288b000bb484a3","condB","","<div class=""vertical-center"" style='width:60%;'><p style='font-weight:bold;'>Does the middle word sound more like the first word (A) or the last word (B)?</p> <br> <div class=""container""> <div id=""a-box""> <p class=""title-text"">A</h3></p> </div> <div id=""x-box""> <p class=""title-text"">X<p> </div> <div id=""b-box""> <p class=""title-text"">B</p></div> <br> <div style='float: left;padding-left:30px;'><p>Press '1' for A</p></div><div style='float: right;padding-right:30px;'><p>Press '0' for B</p> </div> </div></div>","null","","","","","","","","","","","","","",""
"4339","","test","audio-keyboard-response","65","294703","0.0-8.0-1.19","5e3a068281288b000bb484a3","condB","","resources/audio/wordStim/S9_AU_11_bxa_Step-3.wav","49","","","","","AU","resources/audio/wordStim/S9_AU_11_bxa_Step-3.wav","S9","11","bxa","3","CN","1","1","true"
"null","","fixation","html-keyboard-response","66","295705","0.0-8.0-0.20","5e3a068281288b000bb484a3","condB","","<div class=""vertical-center"" style='width:60%;'><p style='font-weight:bold;'>Does the middle word sound more like the first word (A) or the last word (B)?</p> <br> <div class=""container""> <div id=""a-box""> <p class=""title-text"">A</h3></p> </div> <div id=""x-box""> <p class=""title-text"">X<p> </div> <div id=""b-box""> <p class=""title-text"">B</p></div> <br> <div style='float: left;padding-left:30px;'><p>Press '1' for A</p></div><div style='float: right;padding-right:30px;'><p>Press '0' for B</p> </div> </div></div>","null","","","","","","","","","","","","","",""
"3440","","test","audio-keyboard-response","67","299143","0.0-8.0-1.20","5e3a068281288b000bb484a3","condB","","resources/audio/wordStim/S3_AU_17_axb_Step-6.wav","49","","","","","AU","resources/audio/wordStim/S3_AU_17_axb_Step-6.wav","S3","17","axb","6","MI","0","1","false"
"null","","fixation","html-keyboard-response","68","300144","0.0-8.0-0.21","5e3a068281288b000bb484a3","condB","","<div class=""vertical-center"" style='width:60%;'><p style='font-weight:bold;'>Does the middle word sound more like the first word (A) or the last word (B)?</p> <br> <div class=""container""> <div id=""a-box""> <p class=""title-text"">A</h3></p> </div> <div id=""x-box""> <p class=""title-text"">X<p> </div> <div id=""b-box""> <p class=""title-text"">B</p></div> <br> <div style='float: left;padding-left:30px;'><p>Press '1' for A</p></div><div style='float: right;padding-right:30px;'><p>Press '0' for B</p> </div> </div></div>","null","","","","","","","","","","","","","",""
"2781","","test","audio-keyboard-response","69","302919","0.0-8.0-1.21","5e3a068281288b000bb484a3","condB","","resources/audio/wordStim/S9_AU_19_axb_Step-4.wav","49","","","","","AU","resources/audio/wordStim/S9_AU_19_axb_Step-4.wav","S9","19","axb","4","CN","0","1","false"
"null","","fixation","html-keyboard-response","70","303923","0.0-8.0-0.22","5e3a068281288b000bb484a3","condB","","<div class=""vertical-center"" style='width:60%;'><p style='font-weight:bold;'>Does the middle word sound more like the first word (A) or the last word (B)?</p> <br> <div class=""container""> <div id=""a-box""> <p class=""title-text"">A</h3></p> </div> <div id=""x-box""> <p class=""title-text"">X<p> </div> <div id=""b-box""> <p class=""title-text"">B</p></div> <br> <div style='float: left;padding-left:30px;'><p>Press '1' for A</p></div><div style='float: right;padding-right:30px;'><p>Press '0' for B</p> </div> </div></div>","null","","","","","","","","","","","","","",""
"2709","","test","audio-keyboard-response","71","306630","0.0-8.0-1.22","5e3a068281288b000bb484a3","condB","","resources/audio/wordStim/S3_AI_28_bxa_Step-3.wav","48","","","","","AI","resources/audio/wordStim/S3_AI_28_bxa_Step-3.wav","S3","28","bxa","3","MI","1","0","false"
"null","","fixation","html-keyboard-response","72","307632","0.0-8.0-0.23","5e3a068281288b000bb484a3","condB","","<div class=""vertical-center"" style='width:60%;'><p style='font-weight:bold;'>Does the middle word sound more like the first word (A) or the last word (B)?</p> <br> <div class=""container""> <div id=""a-box""> <p class=""title-text"">A</h3></p> </div> <div id=""x-box""> <p class=""title-text"">X<p> </div> <div id=""b-box""> <p class=""title-text"">B</p></div> <br> <div style='float: left;padding-left:30px;'><p>Press '1' for A</p></div><div style='float: right;padding-right:30px;'><p>Press '0' for B</p> </div> </div></div>","null","","","","","","","","","","","","","",""
"3411","","test","audio-keyboard-response","73","311047","0.0-8.0-1.23","5e3a068281288b000bb484a3","condB","","resources/audio/wordStim/S9_AU_18_bxa_Step-9.wav","49","","","","","AU","resources/audio/wordStim/S9_AU_18_bxa_Step-9.wav","S9","18","bxa","9","CN","1","1","true"
"null","","fixation","html-keyboard-response","74","312047","0.0-8.0-0.24","5e3a068281288b000bb484a3","condB","","<div class=""vertical-center"" style='width:60%;'><p style='font-weight:bold;'>Does the middle word sound more like the first word (A) or the last word (B)?</p> <br> <div class=""container""> <div id=""a-box""> <p class=""title-text"">A</h3></p> </div> <div id=""x-box""> <p class=""title-text"">X<p> </div> <div id=""b-box""> <p class=""title-text"">B</p></div> <br> <div style='float: left;padding-left:30px;'><p>Press '1' for A</p></div><div style='float: right;padding-right:30px;'><p>Press '0' for B</p> </div> </div></div>","null","","","","","","","","","","","","","",""
"2909","","test","audio-keyboard-response","75","314956","0.0-8.0-1.24","5e3a068281288b000bb484a3","condB","","resources/audio/wordStim/S9_AI_27_axb_Step-2.wav","49","","","","","AI","resources/audio/wordStim/S9_AI_27_axb_Step-2.wav","S9","27","axb","2","CN","0","1","false"
"null","","fixation","html-keyboard-response","76","315958","0.0-8.0-0.25","5e3a068281288b000bb484a3","condB","","<div class=""vertical-center"" style='width:60%;'><p style='font-weight:bold;'>Does the middle word sound more like the first word (A) or the last word (B)?</p> <br> <div class=""container""> <div id=""a-box""> <p class=""title-text"">A</h3></p> </div> <div id=""x-box""> <p class=""title-text"">X<p> </div> <div id=""b-box""> <p class=""title-text"">B</p></div> <br> <div style='float: left;padding-left:30px;'><p>Press '1' for A</p></div><div style='float: right;padding-right:30px;'><p>Press '0' for B</p> </div> </div></div>","null","","","","","","","","","","","","","",""
"3021","","test","audio-keyboard-response","77","318975","0.0-8.0-1.25","5e3a068281288b000bb484a3","condB","","resources/audio/wordStim/S9_AI_24_axb_Step-2.wav","49","","","","","AI","resources/audio/wordStim/S9_AI_24_axb_Step-2.wav","S9","24","axb","2","CN","0","1","false"
"null","","fixation","html-keyboard-response","78","319976","0.0-8.0-0.26","5e3a068281288b000bb484a3","condB","","<div class=""vertical-center"" style='width:60%;'><p style='font-weight:bold;'>Does the middle word sound more like the first word (A) or the last word (B)?</p> <br> <div class=""container""> <div id=""a-box""> <p class=""title-text"">A</h3></p> </div> <div id=""x-box""> <p class=""title-text"">X<p> </div> <div id=""b-box""> <p class=""title-text"">B</p></div> <br> <div style='float: left;padding-left:30px;'><p>Press '1' for A</p></div><div style='float: right;padding-right:30px;'><p>Press '0' for B</p> </div> </div></div>","null","","","","","","","","","","","","","",""
"2728","","test","audio-keyboard-response","79","322703","0.0-8.0-1.26","5e3a068281288b000bb484a3","condB","","resources/audio/wordStim/S3_AI_29_bxa_Step-10.wav","49","","","","","AI","resources/audio/wordStim/S3_AI_29_bxa_Step-10.wav","S3","29","bxa","10","MI","1","1","true"
"2003","","break","html-keyboard-response","80","325207","0.0-8.0-2.26-0.26","5e3a068281288b000bb484a3","condB","","<div class=""vertical-center""><p>Feel free to take a break!</p><i>When you're ready to continue, press SPACE to begin the next trial.</i></p></div>","32","","","","","","","","","","","","","",""
"null","","fixation","html-keyboard-response","81","325708","0.0-8.0-0.27","5e3a068281288b000bb484a3","condB","","<div class=""vertical-center"" style='width:60%;'><p style='font-weight:bold;'>Does the middle word sound more like the first word (A) or the last word (B)?</p> <br> <div class=""container""> <div id=""a-box""> <p class=""title-text"">A</h3></p> </div> <div id=""x-box""> <p class=""title-text"">X<p> </div> <div id=""b-box""> <p class=""title-text"">B</p></div> <br> <div style='float: left;padding-left:30px;'><p>Press '1' for A</p></div><div style='float: right;padding-right:30px;'><p>Press '0' for B</p> </div> </div></div>","null","","","","","","","","","","","","","",""
"3160","","test","audio-keyboard-response","82","328862","0.0-8.0-1.27","5e3a068281288b000bb484a3","condB","","resources/audio/wordStim/S9_AU_14_bxa_Step-9.wav","49","","","","","AU","resources/audio/wordStim/S9_AU_14_bxa_Step-9.wav","S9","14","bxa","9","CN","1","1","true"
"null","","fixation","html-keyboard-response","83","329864","0.0-8.0-0.28","5e3a068281288b000bb484a3","condB","","<div class=""vertical-center"" style='width:60%;'><p style='font-weight:bold;'>Does the middle word sound more like the first word (A) or the last word (B)?</p> <br> <div class=""container""> <div id=""a-box""> <p class=""title-text"">A</h3></p> </div> <div id=""x-box""> <p class=""title-text"">X<p> </div> <div id=""b-box""> <p class=""title-text"">B</p></div> <br> <div style='float: left;padding-left:30px;'><p>Press '1' for A</p></div><div style='float: right;padding-right:30px;'><p>Press '0' for B</p> </div> </div></div>","null","","","","","","","","","","","","","",""
"2480","","test","audio-keyboard-response","84","332342","0.0-8.0-1.28","5e3a068281288b000bb484a3","condB","","resources/audio/wordStim/S9_AU_16_bxa_Step-3.wav","48","","","","","AU","resources/audio/wordStim/S9_AU_16_bxa_Step-3.wav","S9","16","bxa","3","CN","1","0","false"
"null","","fixation","html-keyboard-response","85","333345","0.0-8.0-0.29","5e3a068281288b000bb484a3","condB","","<div class=""vertical-center"" style='width:60%;'><p style='font-weight:bold;'>Does the middle word sound more like the first word (A) or the last word (B)?</p> <br> <div class=""container""> <div id=""a-box""> <p class=""title-text"">A</h3></p> </div> <div id=""x-box""> <p class=""title-text"">X<p> </div> <div id=""b-box""> <p class=""title-text"">B</p></div> <br> <div style='float: left;padding-left:30px;'><p>Press '1' for A</p></div><div style='float: right;padding-right:30px;'><p>Press '0' for B</p> </div> </div></div>","null","","","","","","","","","","","","","",""
"2981","","test","audio-keyboard-response","86","336327","0.0-8.0-1.29","5e3a068281288b000bb484a3","condB","","resources/audio/wordStim/S9_AI_30_bxa_Step-3.wav","48","","","","","AI","resources/audio/wordStim/S9_AI_30_bxa_Step-3.wav","S9","30","bxa","3","CN","1","0","false"
"null","","fixation","html-keyboard-response","87","337329","0.0-8.0-0.30","5e3a068281288b000bb484a3","condB","","<div class=""vertical-center"" style='width:60%;'><p style='font-weight:bold;'>Does the middle word sound more like the first word (A) or the last word (B)?</p> <br> <div class=""container""> <div id=""a-box""> <p class=""title-text"">A</h3></p> </div> <div id=""x-box""> <p class=""title-text"">X<p> </div> <div id=""b-box""> <p class=""title-text"">B</p></div> <br> <div style='float: left;padding-left:30px;'><p>Press '1' for A</p></div><div style='float: right;padding-right:30px;'><p>Press '0' for B</p> </div> </div></div>","null","","","","","","","","","","","","","",""
"3029","","test","audio-keyboard-response","88","340359","0.0-8.0-1.30","5e3a068281288b000bb484a3","condB","","resources/audio/wordStim/S9_AI_25_axb_Step-8.wav","48","","","","","AI","resources/audio/wordStim/S9_AI_25_axb_Step-8.wav","S9","25","axb","8","CN","0","0","true"
"null","","fixation","html-keyboard-response","89","341362","0.0-8.0-0.31","5e3a068281288b000bb484a3","condB","","<div class=""vertical-center"" style='width:60%;'><p style='font-weight:bold;'>Does the middle word sound more like the first word (A) or the last word (B)?</p> <br> <div class=""container""> <div id=""a-box""> <p class=""title-text"">A</h3></p> </div> <div id=""x-box""> <p class=""title-text"">X<p> </div> <div id=""b-box""> <p class=""title-text"">B</p></div> <br> <div style='float: left;padding-left:30px;'><p>Press '1' for A</p></div><div style='float: right;padding-right:30px;'><p>Press '0' for B</p> </div> </div></div>","null","","","","","","","","","","","","","",""
"2491","","test","audio-keyboard-response","90","343851","0.0-8.0-1.31","5e3a068281288b000bb484a3","condB","","resources/audio/wordStim/S9_AU_20_bxa_Step-5.wav","48","","","","","AU","resources/audio/wordStim/S9_AU_20_bxa_Step-5.wav","S9","20","bxa","5","CN","1","0","false"
"null","","fixation","html-keyboard-response","91","344853","0.0-8.0-0.32","5e3a068281288b000bb484a3","condB","","<div class=""vertical-center"" style='width:60%;'><p style='font-weight:bold;'>Does the middle word sound more like the first word (A) or the last word (B)?</p> <br> <div class=""container""> <div id=""a-box""> <p class=""title-text"">A</h3></p> </div> <div id=""x-box""> <p class=""title-text"">X<p> </div> <div id=""b-box""> <p class=""title-text"">B</p></div> <br> <div style='float: left;padding-left:30px;'><p>Press '1' for A</p></div><div style='float: right;padding-right:30px;'><p>Press '0' for B</p> </div> </div></div>","null","","","","","","","","","","","","","",""
"2699","","test","audio-keyboard-response","92","347551","0.0-8.0-1.32","5e3a068281288b000bb484a3","condB","","resources/audio/wordStim/S3_AU_20_bxa_Step-10.wav","49","","","","","AU","resources/audio/wordStim/S3_AU_20_bxa_Step-10.wav","S3","20","bxa","10","MI","1","1","true"
"null","","fixation","html-keyboard-response","93","348552","0.0-8.0-0.33","5e3a068281288b000bb484a3","condB","","<div class=""vertical-center"" style='width:60%;'><p style='font-weight:bold;'>Does the middle word sound more like the first word (A) or the last word (B)?</p> <br> <div class=""container""> <div id=""a-box""> <p class=""title-text"">A</h3></p> </div> <div id=""x-box""> <p class=""title-text"">X<p> </div> <div id=""b-box""> <p class=""title-text"">B</p></div> <br> <div style='float: left;padding-left:30px;'><p>Press '1' for A</p></div><div style='float: right;padding-right:30px;'><p>Press '0' for B</p> </div> </div></div>","null","","","","","","","","","","","","","",""
"3669","","test","audio-keyboard-response","94","352224","0.0-8.0-1.33","5e3a068281288b000bb484a3","condB","","resources/audio/wordStim/S9_AU_18_axb_Step-8.wav","48","","","","","AU","resources/audio/wordStim/S9_AU_18_axb_Step-8.wav","S9","18","axb","8","CN","0","0","true"
"null","","fixation","html-keyboard-response","95","353225","0.0-8.0-0.34","5e3a068281288b000bb484a3","condB","","<div class=""vertical-center"" style='width:60%;'><p style='font-weight:bold;'>Does the middle word sound more like the first word (A) or the last word (B)?</p> <br> <div class=""container""> <div id=""a-box""> <p class=""title-text"">A</h3></p> </div> <div id=""x-box""> <p class=""title-text"">X<p> </div> <div id=""b-box""> <p class=""title-text"">B</p></div> <br> <div style='float: left;padding-left:30px;'><p>Press '1' for A</p></div><div style='float: right;padding-right:30px;'><p>Press '0' for B</p> </div> </div></div>","null","","","","","","","","","","","","","",""
"2781","","test","audio-keyboard-response","96","356007","0.0-8.0-1.34","5e3a068281288b000bb484a3","condB","","resources/audio/wordStim/S3_AI_22_axb_Step-8.wav","48","","","","","AI","resources/audio/wordStim/S3_AI_22_axb_Step-8.wav","S3","22","axb","8","MI","0","0","true"
"null","","fixation","html-keyboard-response","97","357011","0.0-8.0-0.35","5e3a068281288b000bb484a3","condB","","<div class=""vertical-center"" style='width:60%;'><p style='font-weight:bold;'>Does the middle word sound more like the first word (A) or the last word (B)?</p> <br> <div class=""container""> <div id=""a-box""> <p class=""title-text"">A</h3></p> </div> <div id=""x-box""> <p class=""title-text"">X<p> </div> <div id=""b-box""> <p class=""title-text"">B</p></div> <br> <div style='float: left;padding-left:30px;'><p>Press '1' for A</p></div><div style='float: right;padding-right:30px;'><p>Press '0' for B</p> </div> </div></div>","null","","","","","","","","","","","","","",""
"3200","","test","audio-keyboard-response","98","360215","0.0-8.0-1.35","5e3a068281288b000bb484a3","condB","","resources/audio/wordStim/S3_AU_18_bxa_Step-5.wav","49","","","","","AU","resources/audio/wordStim/S3_AU_18_bxa_Step-5.wav","S3","18","bxa","5","MI","1","1","true"
"null","","fixation","html-keyboard-response","99","361218","0.0-8.0-0.36","5e3a068281288b000bb484a3","condB","","<div class=""vertical-center"" style='width:60%;'><p style='font-weight:bold;'>Does the middle word sound more like the first word (A) or the last word (B)?</p> <br> <div class=""container""> <div id=""a-box""> <p class=""title-text"">A</h3></p> </div> <div id=""x-box""> <p class=""title-text"">X<p> </div> <div id=""b-box""> <p class=""title-text"">B</p></div> <br> <div style='float: left;padding-left:30px;'><p>Press '1' for A</p></div><div style='float: right;padding-right:30px;'><p>Press '0' for B</p> </div> </div></div>","null","","","","","","","","","","","","","",""
"2989","","test","audio-keyboard-response","100","364207","0.0-8.0-1.36","5e3a068281288b000bb484a3","condB","","resources/audio/wordStim/S9_AI_29_bxa_Step-5.wav","49","","","","","AI","resources/audio/wordStim/S9_AI_29_bxa_Step-5.wav","S9","29","bxa","5","CN","1","1","true"
"null","","fixation","html-keyboard-response","101","365209","0.0-8.0-0.37","5e3a068281288b000bb484a3","condB","","<div class=""vertical-center"" style='width:60%;'><p style='font-weight:bold;'>Does the middle word sound more like the first word (A) or the last word (B)?</p> <br> <div class=""container""> <div id=""a-box""> <p class=""title-text"">A</h3></p> </div> <div id=""x-box""> <p class=""title-text"">X<p> </div> <div id=""b-box""> <p class=""title-text"">B</p></div> <br> <div style='float: left;padding-left:30px;'><p>Press '1' for A</p></div><div style='float: right;padding-right:30px;'><p>Press '0' for B</p> </div> </div></div>","null","","","","","","","","","","","","","",""
"3360","","test","audio-keyboard-response","102","368567","0.0-8.0-1.37","5e3a068281288b000bb484a3","condB","","resources/audio/wordStim/S9_AI_25_axb_Step-4.wav","48","","","","","AI","resources/audio/wordStim/S9_AI_25_axb_Step-4.wav","S9","25","axb","4","CN","0","0","true"
"null","","fixation","html-keyboard-response","103","369567","0.0-8.0-0.38","5e3a068281288b000bb484a3","condB","","<div class=""vertical-center"" style='width:60%;'><p style='font-weight:bold;'>Does the middle word sound more like the first word (A) or the last word (B)?</p> <br> <div class=""container""> <div id=""a-box""> <p class=""title-text"">A</h3></p> </div> <div id=""x-box""> <p class=""title-text"">X<p> </div> <div id=""b-box""> <p class=""title-text"">B</p></div> <br> <div style='float: left;padding-left:30px;'><p>Press '1' for A</p></div><div style='float: right;padding-right:30px;'><p>Press '0' for B</p> </div> </div></div>","null","","","","","","","","","","","","","",""
"3069","","test","audio-keyboard-response","104","372635","0.0-8.0-1.38","5e3a068281288b000bb484a3","condB","","resources/audio/wordStim/S9_AI_30_axb_Step-6.wav","48","","","","","AI","resources/audio/wordStim/S9_AI_30_axb_Step-6.wav","S9","30","axb","6","CN","0","0","true"
"null","","fixation","html-keyboard-response","105","373635","0.0-8.0-0.39","5e3a068281288b000bb484a3","condB","","<div class=""vertical-center"" style='width:60%;'><p style='font-weight:bold;'>Does the middle word sound more like the first word (A) or the last word (B)?</p> <br> <div class=""container""> <div id=""a-box""> <p class=""title-text"">A</h3></p> </div> <div id=""x-box""> <p class=""title-text"">X<p> </div> <div id=""b-box""> <p class=""title-text"">B</p></div> <br> <div style='float: left;padding-left:30px;'><p>Press '1' for A</p></div><div style='float: right;padding-right:30px;'><p>Press '0' for B</p> </div> </div></div>","null","","","","","","","","","","","","","",""
"3421","","test","audio-keyboard-response","106","377055","0.0-8.0-1.39","5e3a068281288b000bb484a3","condB","","resources/audio/wordStim/S9_AU_19_bxa_Step-9.wav","49","","","","","AU","resources/audio/wordStim/S9_AU_19_bxa_Step-9.wav","S9","19","bxa","9","CN","1","1","true"
"null","","fixation","html-keyboard-response","107","378057","0.0-8.0-0.40","5e3a068281288b000bb484a3","condB","","<div class=""vertical-center"" style='width:60%;'><p style='font-weight:bold;'>Does the middle word sound more like the first word (A) or the last word (B)?</p> <br> <div class=""container""> <div id=""a-box""> <p class=""title-text"">A</h3></p> </div> <div id=""x-box""> <p class=""title-text"">X<p> </div> <div id=""b-box""> <p class=""title-text"">B</p></div> <br> <div style='float: left;padding-left:30px;'><p>Press '1' for A</p></div><div style='float: right;padding-right:30px;'><p>Press '0' for B</p> </div> </div></div>","null","","","","","","","","","","","","","",""
"3069","","test","audio-keyboard-response","108","381119","0.0-8.0-1.40","5e3a068281288b000bb484a3","condB","","resources/audio/wordStim/S9_AI_27_axb_Step-6.wav","48","","","","","AI","resources/audio/wordStim/S9_AI_27_axb_Step-6.wav","S9","27","axb","6","CN","0","0","true"
"null","","fixation","html-keyboard-response","109","382121","0.0-8.0-0.41","5e3a068281288b000bb484a3","condB","","<div class=""vertical-center"" style='width:60%;'><p style='font-weight:bold;'>Does the middle word sound more like the first word (A) or the last word (B)?</p> <br> <div class=""container""> <div id=""a-box""> <p class=""title-text"">A</h3></p> </div> <div id=""x-box""> <p class=""title-text"">X<p> </div> <div id=""b-box""> <p class=""title-text"">B</p></div> <br> <div style='float: left;padding-left:30px;'><p>Press '1' for A</p></div><div style='float: right;padding-right:30px;'><p>Press '0' for B</p> </div> </div></div>","null","","","","","","","","","","","","","",""
"2880","","test","audio-keyboard-response","110","385007","0.0-8.0-1.41","5e3a068281288b000bb484a3","condB","","resources/audio/wordStim/S9_AU_20_bxa_Step-9.wav","49","","","","","AU","resources/audio/wordStim/S9_AU_20_bxa_Step-9.wav","S9","20","bxa","9","CN","1","1","true"
"null","","fixation","html-keyboard-response","111","386010","0.0-8.0-0.42","5e3a068281288b000bb484a3","condB","","<div class=""vertical-center"" style='width:60%;'><p style='font-weight:bold;'>Does the middle word sound more like the first word (A) or the last word (B)?</p> <br> <div class=""container""> <div id=""a-box""> <p class=""title-text"">A</h3></p> </div> <div id=""x-box""> <p class=""title-text"">X<p> </div> <div id=""b-box""> <p class=""title-text"">B</p></div> <br> <div style='float: left;padding-left:30px;'><p>Press '1' for A</p></div><div style='float: right;padding-right:30px;'><p>Press '0' for B</p> </div> </div></div>","null","","","","","","","","","","","","","",""
"3019","","test","audio-keyboard-response","112","389031","0.0-8.0-1.42","5e3a068281288b000bb484a3","condB","","resources/audio/wordStim/S9_AI_24_bxa_Step-5.wav","48","","","","","AI","resources/audio/wordStim/S9_AI_24_bxa_Step-5.wav","S9","24","bxa","5","CN","1","0","false"
"null","","fixation","html-keyboard-response","113","390032","0.0-8.0-0.43","5e3a068281288b000bb484a3","condB","","<div class=""vertical-center"" style='width:60%;'><p style='font-weight:bold;'>Does the middle word sound more like the first word (A) or the last word (B)?</p> <br> <div class=""container""> <div id=""a-box""> <p class=""title-text"">A</h3></p> </div> <div id=""x-box""> <p class=""title-text"">X<p> </div> <div id=""b-box""> <p class=""title-text"">B</p></div> <br> <div style='float: left;padding-left:30px;'><p>Press '1' for A</p></div><div style='float: right;padding-right:30px;'><p>Press '0' for B</p> </div> </div></div>","null","","","","","","","","","","","","","",""
"2720","","test","audio-keyboard-response","114","392759","0.0-8.0-1.43","5e3a068281288b000bb484a3","condB","","resources/audio/wordStim/S3_AU_11_axb_Step-2.wav","49","","","","","AU","resources/audio/wordStim/S3_AU_11_axb_Step-2.wav","S3","11","axb","2","MI","0","1","false"
"null","","fixation","html-keyboard-response","115","393760","0.0-8.0-0.44","5e3a068281288b000bb484a3","condB","","<div class=""vertical-center"" style='width:60%;'><p style='font-weight:bold;'>Does the middle word sound more like the first word (A) or the last word (B)?</p> <br> <div class=""container""> <div id=""a-box""> <p class=""title-text"">A</h3></p> </div> <div id=""x-box""> <p class=""title-text"">X<p> </div> <div id=""b-box""> <p class=""title-text"">B</p></div> <br> <div style='float: left;padding-left:30px;'><p>Press '1' for A</p></div><div style='float: right;padding-right:30px;'><p>Press '0' for B</p> </div> </div></div>","null","","","","","","","","","","","","","",""
"2731","","test","audio-keyboard-response","116","396494","0.0-8.0-1.44","5e3a068281288b000bb484a3","condB","","resources/audio/wordStim/S3_AU_19_bxa_Step-3.wav","49","","","","","AU","resources/audio/wordStim/S3_AU_19_bxa_Step-3.wav","S3","19","bxa","3","MI","1","1","true"
"null","","fixation","html-keyboard-response","117","397497","0.0-8.0-0.45","5e3a068281288b000bb484a3","condB","","<div class=""vertical-center"" style='width:60%;'><p style='font-weight:bold;'>Does the middle word sound more like the first word (A) or the last word (B)?</p> <br> <div class=""container""> <div id=""a-box""> <p class=""title-text"">A</h3></p> </div> <div id=""x-box""> <p class=""title-text"">X<p> </div> <div id=""b-box""> <p class=""title-text"">B</p></div> <br> <div style='float: left;padding-left:30px;'><p>Press '1' for A</p></div><div style='float: right;padding-right:30px;'><p>Press '0' for B</p> </div> </div></div>","null","","","","","","","","","","","","","",""
"3440","","test","audio-keyboard-response","118","400935","0.0-8.0-1.45","5e3a068281288b000bb484a3","condB","","resources/audio/wordStim/S3_AI_29_bxa_Step-3.wav","48","","","","","AI","resources/audio/wordStim/S3_AI_29_bxa_Step-3.wav","S3","29","bxa","3","MI","1","0","false"
"null","","fixation","html-keyboard-response","119","401936","0.0-8.0-0.46","5e3a068281288b000bb484a3","condB","","<div class=""vertical-center"" style='width:60%;'><p style='font-weight:bold;'>Does the middle word sound more like the first word (A) or the last word (B)?</p> <br> <div class=""container""> <div id=""a-box""> <p class=""title-text"">A</h3></p> </div> <div id=""x-box""> <p class=""title-text"">X<p> </div> <div id=""b-box""> <p class=""title-text"">B</p></div> <br> <div style='float: left;padding-left:30px;'><p>Press '1' for A</p></div><div style='float: right;padding-right:30px;'><p>Press '0' for B</p> </div> </div></div>","null","","","","","","","","","","","","","",""
"3208","","test","audio-keyboard-response","120","405142","0.0-8.0-1.46","5e3a068281288b000bb484a3","condB","","resources/audio/wordStim/S3_AI_21_axb_Step-8.wav","48","","","","","AI","resources/audio/wordStim/S3_AI_21_axb_Step-8.wav","S3","21","axb","8","MI","0","0","true"
"null","","fixation","html-keyboard-response","121","406143","0.0-8.0-0.47","5e3a068281288b000bb484a3","condB","","<div class=""vertical-center"" style='width:60%;'><p style='font-weight:bold;'>Does the middle word sound more like the first word (A) or the last word (B)?</p> <br> <div class=""container""> <div id=""a-box""> <p class=""title-text"">A</h3></p> </div> <div id=""x-box""> <p class=""title-text"">X<p> </div> <div id=""b-box""> <p class=""title-text"">B</p></div> <br> <div style='float: left;padding-left:30px;'><p>Press '1' for A</p></div><div style='float: right;padding-right:30px;'><p>Press '0' for B</p> </div> </div></div>","null","","","","","","","","","","","","","",""
"2560","","test","audio-keyboard-response","122","408703","0.0-8.0-1.47","5e3a068281288b000bb484a3","condB","","resources/audio/wordStim/S9_AU_16_axb_Step-8.wav","48","","","","","AU","resources/audio/wordStim/S9_AU_16_axb_Step-8.wav","S9","16","axb","8","CN","0","0","true"
"null","","fixation","html-keyboard-response","123","409704","0.0-8.0-0.48","5e3a068281288b000bb484a3","condB","","<div class=""vertical-center"" style='width:60%;'><p style='font-weight:bold;'>Does the middle word sound more like the first word (A) or the last word (B)?</p> <br> <div class=""container""> <div id=""a-box""> <p class=""title-text"">A</h3></p> </div> <div id=""x-box""> <p class=""title-text"">X<p> </div> <div id=""b-box""> <p class=""title-text"">B</p></div> <br> <div style='float: left;padding-left:30px;'><p>Press '1' for A</p></div><div style='float: right;padding-right:30px;'><p>Press '0' for B</p> </div> </div></div>","null","","","","","","","","","","","","","",""
"2781","","test","audio-keyboard-response","124","412487","0.0-8.0-1.48","5e3a068281288b000bb484a3","condB","","resources/audio/wordStim/S9_AU_13_bxa_Step-7.wav","49","","","","","AU","resources/audio/wordStim/S9_AU_13_bxa_Step-7.wav","S9","13","bxa","7","CN","1","1","true"
"null","","fixation","html-keyboard-response","125","413488","0.0-8.0-0.49","5e3a068281288b000bb484a3","condB","","<div class=""vertical-center"" style='width:60%;'><p style='font-weight:bold;'>Does the middle word sound more like the first word (A) or the last word (B)?</p> <br> <div class=""container""> <div id=""a-box""> <p class=""title-text"">A</h3></p> </div> <div id=""x-box""> <p class=""title-text"">X<p> </div> <div id=""b-box""> <p class=""title-text"">B</p></div> <br> <div style='float: left;padding-left:30px;'><p>Press '1' for A</p></div><div style='float: right;padding-right:30px;'><p>Press '0' for B</p> </div> </div></div>","null","","","","","","","","","","","","","",""
"2909","","test","audio-keyboard-response","126","416390","0.0-8.0-1.49","5e3a068281288b000bb484a3","condB","","resources/audio/wordStim/S9_AI_25_bxa_Step-10.wav","49","","","","","AI","resources/audio/wordStim/S9_AI_25_bxa_Step-10.wav","S9","25","bxa","10","CN","1","1","true"
"null","","fixation","html-keyboard-response","127","417394","0.0-8.0-0.50","5e3a068281288b000bb484a3","condB","","<div class=""vertical-center"" style='width:60%;'><p style='font-weight:bold;'>Does the middle word sound more like the first word (A) or the last word (B)?</p> <br> <div class=""container""> <div id=""a-box""> <p class=""title-text"">A</h3></p> </div> <div id=""x-box""> <p class=""title-text"">X<p> </div> <div id=""b-box""> <p class=""title-text"">B</p></div> <br> <div style='float: left;padding-left:30px;'><p>Press '1' for A</p></div><div style='float: right;padding-right:30px;'><p>Press '0' for B</p> </div> </div></div>","null","","","","","","","","","","","","","",""
"4349","","test","audio-keyboard-response","128","421743","0.0-8.0-1.50","5e3a068281288b000bb484a3","condB","","resources/audio/wordStim/S3_AU_20_axb_Step-6.wav","48","","","","","AU","resources/audio/wordStim/S3_AU_20_axb_Step-6.wav","S3","20","axb","6","MI","0","0","true"
"null","","fixation","html-keyboard-response","129","422745","0.0-8.0-0.51","5e3a068281288b000bb484a3","condB","","<div class=""vertical-center"" style='width:60%;'><p style='font-weight:bold;'>Does the middle word sound more like the first word (A) or the last word (B)?</p> <br> <div class=""container""> <div id=""a-box""> <p class=""title-text"">A</h3></p> </div> <div id=""x-box""> <p class=""title-text"">X<p> </div> <div id=""b-box""> <p class=""title-text"">B</p></div> <br> <div style='float: left;padding-left:30px;'><p>Press '1' for A</p></div><div style='float: right;padding-right:30px;'><p>Press '0' for B</p> </div> </div></div>","null","","","","","","","","","","","","","",""
"3051","","test","audio-keyboard-response","130","425791","0.0-8.0-1.51","5e3a068281288b000bb484a3","condB","","resources/audio/wordStim/S3_AI_25_bxa_Step-10.wav","48","","","","","AI","resources/audio/wordStim/S3_AI_25_bxa_Step-10.wav","S3","25","bxa","10","MI","1","0","false"
"null","","fixation","html-keyboard-response","131","426792","0.0-8.0-0.52","5e3a068281288b000bb484a3","condB","","<div class=""vertical-center"" style='width:60%;'><p style='font-weight:bold;'>Does the middle word sound more like the first word (A) or the last word (B)?</p> <br> <div class=""container""> <div id=""a-box""> <p class=""title-text"">A</h3></p> </div> <div id=""x-box""> <p class=""title-text"">X<p> </div> <div id=""b-box""> <p class=""title-text"">B</p></div> <br> <div style='float: left;padding-left:30px;'><p>Press '1' for A</p></div><div style='float: right;padding-right:30px;'><p>Press '0' for B</p> </div> </div></div>","null","","","","","","","","","","","","","",""
"2960","","test","audio-keyboard-response","132","429750","0.0-8.0-1.52","5e3a068281288b000bb484a3","condB","","resources/audio/wordStim/S3_AU_18_bxa_Step-9.wav","49","","","","","AU","resources/audio/wordStim/S3_AU_18_bxa_Step-9.wav","S3","18","bxa","9","MI","1","1","true"
"null","","fixation","html-keyboard-response","133","430753","0.0-8.0-0.53","5e3a068281288b000bb484a3","condB","","<div class=""vertical-center"" style='width:60%;'><p style='font-weight:bold;'>Does the middle word sound more like the first word (A) or the last word (B)?</p> <br> <div class=""container""> <div id=""a-box""> <p class=""title-text"">A</h3></p> </div> <div id=""x-box""> <p class=""title-text"">X<p> </div> <div id=""b-box""> <p class=""title-text"">B</p></div> <br> <div style='float: left;padding-left:30px;'><p>Press '1' for A</p></div><div style='float: right;padding-right:30px;'><p>Press '0' for B</p> </div> </div></div>","null","","","","","","","","","","","","","",""
"4149","","test","audio-keyboard-response","134","434903","0.0-8.0-1.53","5e3a068281288b000bb484a3","condB","","resources/audio/wordStim/S3_AU_14_bxa_Step-5.wav","48","","","","","AU","resources/audio/wordStim/S3_AU_14_bxa_Step-5.wav","S3","14","bxa","5","MI","1","0","false"
"1050","","break","html-keyboard-response","135","436454","0.0-8.0-2.53-0.53","5e3a068281288b000bb484a3","condB","","<div class=""vertical-center""><p>Feel free to take a break!</p><i>When you're ready to continue, press SPACE to begin the next trial.</i></p></div>","32","","","","","","","","","","","","","",""
"null","","fixation","html-keyboard-response","136","436955","0.0-8.0-0.54","5e3a068281288b000bb484a3","condB","","<div class=""vertical-center"" style='width:60%;'><p style='font-weight:bold;'>Does the middle word sound more like the first word (A) or the last word (B)?</p> <br> <div class=""container""> <div id=""a-box""> <p class=""title-text"">A</h3></p> </div> <div id=""x-box""> <p class=""title-text"">X<p> </div> <div id=""b-box""> <p class=""title-text"">B</p></div> <br> <div style='float: left;padding-left:30px;'><p>Press '1' for A</p></div><div style='float: right;padding-right:30px;'><p>Press '0' for B</p> </div> </div></div>","null","","","","","","","","","","","","","",""
"3341","","test","audio-keyboard-response","137","440294","0.0-8.0-1.54","5e3a068281288b000bb484a3","condB","","resources/audio/wordStim/S9_AI_22_axb_Step-8.wav","48","","","","","AI","resources/audio/wordStim/S9_AI_22_axb_Step-8.wav","S9","22","axb","8","CN","0","0","true"
"null","","fixation","html-keyboard-response","138","441297","0.0-8.0-0.55","5e3a068281288b000bb484a3","condB","","<div class=""vertical-center"" style='width:60%;'><p style='font-weight:bold;'>Does the middle word sound more like the first word (A) or the last word (B)?</p> <br> <div class=""container""> <div id=""a-box""> <p class=""title-text"">A</h3></p> </div> <div id=""x-box""> <p class=""title-text"">X<p> </div> <div id=""b-box""> <p class=""title-text"">B</p></div> <br> <div style='float: left;padding-left:30px;'><p>Press '1' for A</p></div><div style='float: right;padding-right:30px;'><p>Press '0' for B</p> </div> </div></div>","null","","","","","","","","","","","","","",""
"3029","","test","audio-keyboard-response","139","444327","0.0-8.0-1.55","5e3a068281288b000bb484a3","condB","","resources/audio/wordStim/S9_AI_29_bxa_Step-3.wav","48","","","","","AI","resources/audio/wordStim/S9_AI_29_bxa_Step-3.wav","S9","29","bxa","3","CN","1","0","false"
"null","","fixation","html-keyboard-response","140","445329","0.0-8.0-0.56","5e3a068281288b000bb484a3","condB","","<div class=""vertical-center"" style='width:60%;'><p style='font-weight:bold;'>Does the middle word sound more like the first word (A) or the last word (B)?</p> <br> <div class=""container""> <div id=""a-box""> <p class=""title-text"">A</h3></p> </div> <div id=""x-box""> <p class=""title-text"">X<p> </div> <div id=""b-box""> <p class=""title-text"">B</p></div> <br> <div style='float: left;padding-left:30px;'><p>Press '1' for A</p></div><div style='float: right;padding-right:30px;'><p>Press '0' for B</p> </div> </div></div>","null","","","","","","","","","","","","","",""
"3299","","test","audio-keyboard-response","141","448630","0.0-8.0-1.56","5e3a068281288b000bb484a3","condB","","resources/audio/wordStim/S3_AU_17_bxa_Step-9.wav","49","","","","","AU","resources/audio/wordStim/S3_AU_17_bxa_Step-9.wav","S3","17","bxa","9","MI","1","1","true"
"null","","fixation","html-keyboard-response","142","449634","0.0-8.0-0.57","5e3a068281288b000bb484a3","condB","","<div class=""vertical-center"" style='width:60%;'><p style='font-weight:bold;'>Does the middle word sound more like the first word (A) or the last word (B)?</p> <br> <div class=""container""> <div id=""a-box""> <p class=""title-text"">A</h3></p> </div> <div id=""x-box""> <p class=""title-text"">X<p> </div> <div id=""b-box""> <p class=""title-text"">B</p></div> <br> <div style='float: left;padding-left:30px;'><p>Press '1' for A</p></div><div style='float: right;padding-right:30px;'><p>Press '0' for B</p> </div> </div></div>","null","","","","","","","","","","","","","",""
"2771","","test","audio-keyboard-response","143","452399","0.0-8.0-1.57","5e3a068281288b000bb484a3","condB","","resources/audio/wordStim/S9_AI_29_axb_Step-4.wav","48","","","","","AI","resources/audio/wordStim/S9_AI_29_axb_Step-4.wav","S9","29","axb","4","CN","0","0","true"
"null","","fixation","html-keyboard-response","144","453400","0.0-8.0-0.58","5e3a068281288b000bb484a3","condB","","<div class=""vertical-center"" style='width:60%;'><p style='font-weight:bold;'>Does the middle word sound more like the first word (A) or the last word (B)?</p> <br> <div class=""container""> <div id=""a-box""> <p class=""title-text"">A</h3></p> </div> <div id=""x-box""> <p class=""title-text"">X<p> </div> <div id=""b-box""> <p class=""title-text"">B</p></div> <br> <div style='float: left;padding-left:30px;'><p>Press '1' for A</p></div><div style='float: right;padding-right:30px;'><p>Press '0' for B</p> </div> </div></div>","null","","","","","","","","","","","","","",""
"3160","","test","audio-keyboard-response","145","456567","0.0-8.0-1.58","5e3a068281288b000bb484a3","condB","","resources/audio/wordStim/S3_AU_18_axb_Step-2.wav","49","","","","","AU","resources/audio/wordStim/S3_AU_18_axb_Step-2.wav","S3","18","axb","2","MI","0","1","false"
"null","","fixation","html-keyboard-response","146","457570","0.0-8.0-0.59","5e3a068281288b000bb484a3","condB","","<div class=""vertical-center"" style='width:60%;'><p style='font-weight:bold;'>Does the middle word sound more like the first word (A) or the last word (B)?</p> <br> <div class=""container""> <div id=""a-box""> <p class=""title-text"">A</h3></p> </div> <div id=""x-box""> <p class=""title-text"">X<p> </div> <div id=""b-box""> <p class=""title-text"">B</p></div> <br> <div style='float: left;padding-left:30px;'><p>Press '1' for A</p></div><div style='float: right;padding-right:30px;'><p>Press '0' for B</p> </div> </div></div>","null","","","","","","","","","","","","","",""
"2339","","test","audio-keyboard-response","147","459919","0.0-8.0-1.59","5e3a068281288b000bb484a3","condB","","resources/audio/wordStim/S3_AI_21_bxa_Step-7.wav","49","","","","","AI","resources/audio/wordStim/S3_AI_21_bxa_Step-7.wav","S3","21","bxa","7","MI","1","1","true"
"null","","fixation","html-keyboard-response","148","460922","0.0-8.0-0.60","5e3a068281288b000bb484a3","condB","","<div class=""vertical-center"" style='width:60%;'><p style='font-weight:bold;'>Does the middle word sound more like the first word (A) or the last word (B)?</p> <br> <div class=""container""> <div id=""a-box""> <p class=""title-text"">A</h3></p> </div> <div id=""x-box""> <p class=""title-text"">X<p> </div> <div id=""b-box""> <p class=""title-text"">B</p></div> <br> <div style='float: left;padding-left:30px;'><p>Press '1' for A</p></div><div style='float: right;padding-right:30px;'><p>Press '0' for B</p> </div> </div></div>","null","","","","","","","","","","","","","",""
"3000","","test","audio-keyboard-response","149","463927","0.0-8.0-1.60","5e3a068281288b000bb484a3","condB","","resources/audio/wordStim/S3_AI_29_axb_Step-8.wav","49","","","","","AI","resources/audio/wordStim/S3_AI_29_axb_Step-8.wav","S3","29","axb","8","MI","0","1","false"
"null","","fixation","html-keyboard-response","150","464928","0.0-8.0-0.61","5e3a068281288b000bb484a3","condB","","<div class=""vertical-center"" style='width:60%;'><p style='font-weight:bold;'>Does the middle word sound more like the first word (A) or the last word (B)?</p> <br> <div class=""container""> <div id=""a-box""> <p class=""title-text"">A</h3></p> </div> <div id=""x-box""> <p class=""title-text"">X<p> </div> <div id=""b-box""> <p class=""title-text"">B</p></div> <br> <div style='float: left;padding-left:30px;'><p>Press '1' for A</p></div><div style='float: right;padding-right:30px;'><p>Press '0' for B</p> </div> </div></div>","null","","","","","","","","","","","","","",""
"2749","","test","audio-keyboard-response","151","467671","0.0-8.0-1.61","5e3a068281288b000bb484a3","condB","","resources/audio/wordStim/S3_AI_22_bxa_Step-3.wav","48","","","","","AI","resources/audio/wordStim/S3_AI_22_bxa_Step-3.wav","S3","22","bxa","3","MI","1","0","false"
"null","","fixation","html-keyboard-response","152","468673","0.0-8.0-0.62","5e3a068281288b000bb484a3","condB","","<div class=""vertical-center"" style='width:60%;'><p style='font-weight:bold;'>Does the middle word sound more like the first word (A) or the last word (B)?</p> <br> <div class=""container""> <div id=""a-box""> <p class=""title-text"">A</h3></p> </div> <div id=""x-box""> <p class=""title-text"">X<p> </div> <div id=""b-box""> <p class=""title-text"">B</p></div> <br> <div style='float: left;padding-left:30px;'><p>Press '1' for A</p></div><div style='float: right;padding-right:30px;'><p>Press '0' for B</p> </div> </div></div>","null","","","","","","","","","","","","","",""
"3469","","test","audio-keyboard-response","153","472142","0.0-8.0-1.62","5e3a068281288b000bb484a3","condB","","resources/audio/wordStim/S9_AI_22_axb_Step-4.wav","49","","","","","AI","resources/audio/wordStim/S9_AI_22_axb_Step-4.wav","S9","22","axb","4","CN","0","1","false"
"null","","fixation","html-keyboard-response","154","473145","0.0-8.0-0.63","5e3a068281288b000bb484a3","condB","","<div class=""vertical-center"" style='width:60%;'><p style='font-weight:bold;'>Does the middle word sound more like the first word (A) or the last word (B)?</p> <br> <div class=""container""> <div id=""a-box""> <p class=""title-text"">A</h3></p> </div> <div id=""x-box""> <p class=""title-text"">X<p> </div> <div id=""b-box""> <p class=""title-text"">B</p></div> <br> <div style='float: left;padding-left:30px;'><p>Press '1' for A</p></div><div style='float: right;padding-right:30px;'><p>Press '0' for B</p> </div> </div></div>","null","","","","","","","","","","","","","",""
"2781","","test","audio-keyboard-response","155","475927","0.0-8.0-1.63","5e3a068281288b000bb484a3","condB","","resources/audio/wordStim/S3_AU_14_axb_Step-8.wav","49","","","","","AU","resources/audio/wordStim/S3_AU_14_axb_Step-8.wav","S3","14","axb","8","MI","0","1","false"
"null","","fixation","html-keyboard-response","156","476930","0.0-8.0-0.64","5e3a068281288b000bb484a3","condB","","<div class=""vertical-center"" style='width:60%;'><p style='font-weight:bold;'>Does the middle word sound more like the first word (A) or the last word (B)?</p> <br> <div class=""container""> <div id=""a-box""> <p class=""title-text"">A</h3></p> </div> <div id=""x-box""> <p class=""title-text"">X<p> </div> <div id=""b-box""> <p class=""title-text"">B</p></div> <br> <div style='float: left;padding-left:30px;'><p>Press '1' for A</p></div><div style='float: right;padding-right:30px;'><p>Press '0' for B</p> </div> </div></div>","null","","","","","","","","","","","","","",""
"3280","","test","audio-keyboard-response","157","480214","0.0-8.0-1.64","5e3a068281288b000bb484a3","condB","","resources/audio/wordStim/S3_AI_22_axb_Step-6.wav","48","","","","","AI","resources/audio/wordStim/S3_AI_22_axb_Step-6.wav","S3","22","axb","6","MI","0","0","true"
"null","","fixation","html-keyboard-response","158","481217","0.0-8.0-0.65","5e3a068281288b000bb484a3","condB","","<div class=""vertical-center"" style='width:60%;'><p style='font-weight:bold;'>Does the middle word sound more like the first word (A) or the last word (B)?</p> <br> <div class=""container""> <div id=""a-box""> <p class=""title-text"">A</h3></p> </div> <div id=""x-box""> <p class=""title-text"">X<p> </div> <div id=""b-box""> <p class=""title-text"">B</p></div> <br> <div style='float: left;padding-left:30px;'><p>Press '1' for A</p></div><div style='float: right;padding-right:30px;'><p>Press '0' for B</p> </div> </div></div>","null","","","","","","","","","","","","","",""
"2680","","test","audio-keyboard-response","159","483894","0.0-8.0-1.65","5e3a068281288b000bb484a3","condB","","resources/audio/wordStim/S9_AI_27_axb_Step-4.wav","49","","","","","AI","resources/audio/wordStim/S9_AI_27_axb_Step-4.wav","S9","27","axb","4","CN","0","1","false"
"null","","fixation","html-keyboard-response","160","484896","0.0-8.0-0.66","5e3a068281288b000bb484a3","condB","","<div class=""vertical-center"" style='width:60%;'><p style='font-weight:bold;'>Does the middle word sound more like the first word (A) or the last word (B)?</p> <br> <div class=""container""> <div id=""a-box""> <p class=""title-text"">A</h3></p> </div> <div id=""x-box""> <p class=""title-text"">X<p> </div> <div id=""b-box""> <p class=""title-text"">B</p></div> <br> <div style='float: left;padding-left:30px;'><p>Press '1' for A</p></div><div style='float: right;padding-right:30px;'><p>Press '0' for B</p> </div> </div></div>","null","","","","","","","","","","","","","",""
"3320","","test","audio-keyboard-response","161","488214","0.0-8.0-1.66","5e3a068281288b000bb484a3","condB","","resources/audio/wordStim/S3_AI_22_bxa_Step-10.wav","49","","","","","AI","resources/audio/wordStim/S3_AI_22_bxa_Step-10.wav","S3","22","bxa","10","MI","1","1","true"
"null","","fixation","html-keyboard-response","162","489217","0.0-8.0-0.67","5e3a068281288b000bb484a3","condB","","<div class=""vertical-center"" style='width:60%;'><p style='font-weight:bold;'>Does the middle word sound more like the first word (A) or the last word (B)?</p> <br> <div class=""container""> <div id=""a-box""> <p class=""title-text"">A</h3></p> </div> <div id=""x-box""> <p class=""title-text"">X<p> </div> <div id=""b-box""> <p class=""title-text"">B</p></div> <br> <div style='float: left;padding-left:30px;'><p>Press '1' for A</p></div><div style='float: right;padding-right:30px;'><p>Press '0' for B</p> </div> </div></div>","null","","","","","","","","","","","","","",""
"3499","","test","audio-keyboard-response","163","492711","0.0-8.0-1.67","5e3a068281288b000bb484a3","condB","","resources/audio/wordStim/S3_AI_25_axb_Step-4.wav","49","","","","","AI","resources/audio/wordStim/S3_AI_25_axb_Step-4.wav","S3","25","axb","4","MI","0","1","false"
"null","","fixation","html-keyboard-response","164","493712","0.0-8.0-0.68","5e3a068281288b000bb484a3","condB","","<div class=""vertical-center"" style='width:60%;'><p style='font-weight:bold;'>Does the middle word sound more like the first word (A) or the last word (B)?</p> <br> <div class=""container""> <div id=""a-box""> <p class=""title-text"">A</h3></p> </div> <div id=""x-box""> <p class=""title-text"">X<p> </div> <div id=""b-box""> <p class=""title-text"">B</p></div> <br> <div style='float: left;padding-left:30px;'><p>Press '1' for A</p></div><div style='float: right;padding-right:30px;'><p>Press '0' for B</p> </div> </div></div>","null","","","","","","","","","","","","","",""
"2829","","test","audio-keyboard-response","165","496542","0.0-8.0-1.68","5e3a068281288b000bb484a3","condB","","resources/audio/wordStim/S3_AU_14_bxa_Step-9.wav","49","","","","","AU","resources/audio/wordStim/S3_AU_14_bxa_Step-9.wav","S3","14","bxa","9","MI","1","1","true"
"null","","fixation","html-keyboard-response","166","497545","0.0-8.0-0.69","5e3a068281288b000bb484a3","condB","","<div class=""vertical-center"" style='width:60%;'><p style='font-weight:bold;'>Does the middle word sound more like the first word (A) or the last word (B)?</p> <br> <div class=""container""> <div id=""a-box""> <p class=""title-text"">A</h3></p> </div> <div id=""x-box""> <p class=""title-text"">X<p> </div> <div id=""b-box""> <p class=""title-text"">B</p></div> <br> <div style='float: left;padding-left:30px;'><p>Press '1' for A</p></div><div style='float: right;padding-right:30px;'><p>Press '0' for B</p> </div> </div></div>","null","","","","","","","","","","","","","",""
"2440","","test","audio-keyboard-response","167","499982","0.0-8.0-1.69","5e3a068281288b000bb484a3","condB","","resources/audio/wordStim/S3_AI_28_axb_Step-8.wav","48","","","","","AI","resources/audio/wordStim/S3_AI_28_axb_Step-8.wav","S3","28","axb","8","MI","0","0","true"
"null","","fixation","html-keyboard-response","168","500985","0.0-8.0-0.70","5e3a068281288b000bb484a3","condB","","<div class=""vertical-center"" style='width:60%;'><p style='font-weight:bold;'>Does the middle word sound more like the first word (A) or the last word (B)?</p> <br> <div class=""container""> <div id=""a-box""> <p class=""title-text"">A</h3></p> </div> <div id=""x-box""> <p class=""title-text"">X<p> </div> <div id=""b-box""> <p class=""title-text"">B</p></div> <br> <div style='float: left;padding-left:30px;'><p>Press '1' for A</p></div><div style='float: right;padding-right:30px;'><p>Press '0' for B</p> </div> </div></div>","null","","","","","","","","","","","","","",""
"2952","","test","audio-keyboard-response","169","503935","0.0-8.0-1.70","5e3a068281288b000bb484a3","condB","","resources/audio/wordStim/S3_AU_11_axb_Step-4.wav","49","","","","","AU","resources/audio/wordStim/S3_AU_11_axb_Step-4.wav","S3","11","axb","4","MI","0","1","false"
"null","","fixation","html-keyboard-response","170","504936","0.0-8.0-0.71","5e3a068281288b000bb484a3","condB","","<div class=""vertical-center"" style='width:60%;'><p style='font-weight:bold;'>Does the middle word sound more like the first word (A) or the last word (B)?</p> <br> <div class=""container""> <div id=""a-box""> <p class=""title-text"">A</h3></p> </div> <div id=""x-box""> <p class=""title-text"">X<p> </div> <div id=""b-box""> <p class=""title-text"">B</p></div> <br> <div style='float: left;padding-left:30px;'><p>Press '1' for A</p></div><div style='float: right;padding-right:30px;'><p>Press '0' for B</p> </div> </div></div>","null","","","","","","","","","","","","","",""
"2859","","test","audio-keyboard-response","171","507791","0.0-8.0-1.71","5e3a068281288b000bb484a3","condB","","resources/audio/wordStim/S9_AI_23_bxa_Step-10.wav","49","","","","","AI","resources/audio/wordStim/S9_AI_23_bxa_Step-10.wav","S9","23","bxa","10","CN","1","1","true"
"null","","fixation","html-keyboard-response","172","508793","0.0-8.0-0.72","5e3a068281288b000bb484a3","condB","","<div class=""vertical-center"" style='width:60%;'><p style='font-weight:bold;'>Does the middle word sound more like the first word (A) or the last word (B)?</p> <br> <div class=""container""> <div id=""a-box""> <p class=""title-text"">A</h3></p> </div> <div id=""x-box""> <p class=""title-text"">X<p> </div> <div id=""b-box""> <p class=""title-text"">B</p></div> <br> <div style='float: left;padding-left:30px;'><p>Press '1' for A</p></div><div style='float: right;padding-right:30px;'><p>Press '0' for B</p> </div> </div></div>","null","","","","","","","","","","","","","",""
"2891","","test","audio-keyboard-response","173","511679","0.0-8.0-1.72","5e3a068281288b000bb484a3","condB","","resources/audio/wordStim/S9_AU_20_axb_Step-2.wav","49","","","","","AU","resources/audio/wordStim/S9_AU_20_axb_Step-2.wav","S9","20","axb","2","CN","0","1","false"
"null","","fixation","html-keyboard-response","174","512681","0.0-8.0-0.73","5e3a068281288b000bb484a3","condB","","<div class=""vertical-center"" style='width:60%;'><p style='font-weight:bold;'>Does the middle word sound more like the first word (A) or the last word (B)?</p> <br> <div class=""container""> <div id=""a-box""> <p class=""title-text"">A</h3></p> </div> <div id=""x-box""> <p class=""title-text"">X<p> </div> <div id=""b-box""> <p class=""title-text"">B</p></div> <br> <div style='float: left;padding-left:30px;'><p>Press '1' for A</p></div><div style='float: right;padding-right:30px;'><p>Press '0' for B</p> </div> </div></div>","null","","","","","","","","","","","","","",""
"3560","","test","audio-keyboard-response","175","516246","0.0-8.0-1.73","5e3a068281288b000bb484a3","condB","","resources/audio/wordStim/S3_AU_16_axb_Step-2.wav","49","","","","","AU","resources/audio/wordStim/S3_AU_16_axb_Step-2.wav","S3","16","axb","2","MI","0","1","false"
"null","","fixation","html-keyboard-response","176","517248","0.0-8.0-0.74","5e3a068281288b000bb484a3","condB","","<div class=""vertical-center"" style='width:60%;'><p style='font-weight:bold;'>Does the middle word sound more like the first word (A) or the last word (B)?</p> <br> <div class=""container""> <div id=""a-box""> <p class=""title-text"">A</h3></p> </div> <div id=""x-box""> <p class=""title-text"">X<p> </div> <div id=""b-box""> <p class=""title-text"">B</p></div> <br> <div style='float: left;padding-left:30px;'><p>Press '1' for A</p></div><div style='float: right;padding-right:30px;'><p>Press '0' for B</p> </div> </div></div>","null","","","","","","","","","","","","","",""
"2619","","test","audio-keyboard-response","177","519862","0.0-8.0-1.74","5e3a068281288b000bb484a3","condB","","resources/audio/wordStim/S3_AI_30_bxa_Step-3.wav","48","","","","","AI","resources/audio/wordStim/S3_AI_30_bxa_Step-3.wav","S3","30","bxa","3","MI","1","0","false"
"null","","fixation","html-keyboard-response","178","520864","0.0-8.0-0.75","5e3a068281288b000bb484a3","condB","","<div class=""vertical-center"" style='width:60%;'><p style='font-weight:bold;'>Does the middle word sound more like the first word (A) or the last word (B)?</p> <br> <div class=""container""> <div id=""a-box""> <p class=""title-text"">A</h3></p> </div> <div id=""x-box""> <p class=""title-text"">X<p> </div> <div id=""b-box""> <p class=""title-text"">B</p></div> <br> <div style='float: left;padding-left:30px;'><p>Press '1' for A</p></div><div style='float: right;padding-right:30px;'><p>Press '0' for B</p> </div> </div></div>","null","","","","","","","","","","","","","",""
"2691","","test","audio-keyboard-response","179","523551","0.0-8.0-1.75","5e3a068281288b000bb484a3","condB","","resources/audio/wordStim/S3_AI_28_axb_Step-2.wav","49","","","","","AI","resources/audio/wordStim/S3_AI_28_axb_Step-2.wav","S3","28","axb","2","MI","0","1","false"
"null","","fixation","html-keyboard-response","180","524551","0.0-8.0-0.76","5e3a068281288b000bb484a3","condB","","<div class=""vertical-center"" style='width:60%;'><p style='font-weight:bold;'>Does the middle word sound more like the first word (A) or the last word (B)?</p> <br> <div class=""container""> <div id=""a-box""> <p class=""title-text"">A</h3></p> </div> <div id=""x-box""> <p class=""title-text"">X<p> </div> <div id=""b-box""> <p class=""title-text"">B</p></div> <br> <div style='float: left;padding-left:30px;'><p>Press '1' for A</p></div><div style='float: right;padding-right:30px;'><p>Press '0' for B</p> </div> </div></div>","null","","","","","","","","","","","","","",""
"3421","","test","audio-keyboard-response","181","527975","0.0-8.0-1.76","5e3a068281288b000bb484a3","condB","","resources/audio/wordStim/S9_AU_17_bxa_Step-3.wav","48","","","","","AU","resources/audio/wordStim/S9_AU_17_bxa_Step-3.wav","S9","17","bxa","3","CN","1","0","false"
"null","","fixation","html-keyboard-response","182","528977","0.0-8.0-0.77","5e3a068281288b000bb484a3","condB","","<div class=""vertical-center"" style='width:60%;'><p style='font-weight:bold;'>Does the middle word sound more like the first word (A) or the last word (B)?</p> <br> <div class=""container""> <div id=""a-box""> <p class=""title-text"">A</h3></p> </div> <div id=""x-box""> <p class=""title-text"">X<p> </div> <div id=""b-box""> <p class=""title-text"">B</p></div> <br> <div style='float: left;padding-left:30px;'><p>Press '1' for A</p></div><div style='float: right;padding-right:30px;'><p>Press '0' for B</p> </div> </div></div>","null","","","","","","","","","","","","","",""
"3219","","test","audio-keyboard-response","183","532199","0.0-8.0-1.77","5e3a068281288b000bb484a3","condB","","resources/audio/wordStim/S3_AU_17_bxa_Step-10.wav","49","","","","","AU","resources/audio/wordStim/S3_AU_17_bxa_Step-10.wav","S3","17","bxa","10","MI","1","1","true"
"null","","fixation","html-keyboard-response","184","533200","0.0-8.0-0.78","5e3a068281288b000bb484a3","condB","","<div class=""vertical-center"" style='width:60%;'><p style='font-weight:bold;'>Does the middle word sound more like the first word (A) or the last word (B)?</p> <br> <div class=""container""> <div id=""a-box""> <p class=""title-text"">A</h3></p> </div> <div id=""x-box""> <p class=""title-text"">X<p> </div> <div id=""b-box""> <p class=""title-text"">B</p></div> <br> <div style='float: left;padding-left:30px;'><p>Press '1' for A</p></div><div style='float: right;padding-right:30px;'><p>Press '0' for B</p> </div> </div></div>","null","","","","","","","","","","","","","",""
"3109","","test","audio-keyboard-response","185","536310","0.0-8.0-1.78","5e3a068281288b000bb484a3","condB","","resources/audio/wordStim/S9_AI_29_axb_Step-8.wav","48","","","","","AI","resources/audio/wordStim/S9_AI_29_axb_Step-8.wav","S9","29","axb","8","CN","0","0","true"
"null","","fixation","html-keyboard-response","186","537312","0.0-8.0-0.79","5e3a068281288b000bb484a3","condB","","<div class=""vertical-center"" style='width:60%;'><p style='font-weight:bold;'>Does the middle word sound more like the first word (A) or the last word (B)?</p> <br> <div class=""container""> <div id=""a-box""> <p class=""title-text"">A</h3></p> </div> <div id=""x-box""> <p class=""title-text"">X<p> </div> <div id=""b-box""> <p class=""title-text"">B</p></div> <br> <div style='float: left;padding-left:30px;'><p>Press '1' for A</p></div><div style='float: right;padding-right:30px;'><p>Press '0' for B</p> </div> </div></div>","null","","","","","","","","","","","","","",""
"2720","","test","audio-keyboard-response","187","540039","0.0-8.0-1.79","5e3a068281288b000bb484a3","condB","","resources/audio/wordStim/S3_AI_22_bxa_Step-7.wav","48","","","","","AI","resources/audio/wordStim/S3_AI_22_bxa_Step-7.wav","S3","22","bxa","7","MI","1","0","false"
"null","","fixation","html-keyboard-response","188","541040","0.0-8.0-0.80","5e3a068281288b000bb484a3","condB","","<div class=""vertical-center"" style='width:60%;'><p style='font-weight:bold;'>Does the middle word sound more like the first word (A) or the last word (B)?</p> <br> <div class=""container""> <div id=""a-box""> <p class=""title-text"">A</h3></p> </div> <div id=""x-box""> <p class=""title-text"">X<p> </div> <div id=""b-box""> <p class=""title-text"">B</p></div> <br> <div style='float: left;padding-left:30px;'><p>Press '1' for A</p></div><div style='float: right;padding-right:30px;'><p>Press '0' for B</p> </div> </div></div>","null","","","","","","","","","","","","","",""
"3171","","test","audio-keyboard-response","189","544215","0.0-8.0-1.80","5e3a068281288b000bb484a3","condB","","resources/audio/wordStim/S3_AI_22_axb_Step-2.wav","49","","","","","AI","resources/audio/wordStim/S3_AI_22_axb_Step-2.wav","S3","22","axb","2","MI","0","1","false"
"1035","","break","html-keyboard-response","190","545751","0.0-8.0-2.80-0.80","5e3a068281288b000bb484a3","condB","","<div class=""vertical-center""><p>Feel free to take a break!</p><i>When you're ready to continue, press SPACE to begin the next trial.</i></p></div>","32","","","","","","","","","","","","","",""
"null","","fixation","html-keyboard-response","191","546251","0.0-8.0-0.81","5e3a068281288b000bb484a3","condB","","<div class=""vertical-center"" style='width:60%;'><p style='font-weight:bold;'>Does the middle word sound more like the first word (A) or the last word (B)?</p> <br> <div class=""container""> <div id=""a-box""> <p class=""title-text"">A</h3></p> </div> <div id=""x-box""> <p class=""title-text"">X<p> </div> <div id=""b-box""> <p class=""title-text"">B</p></div> <br> <div style='float: left;padding-left:30px;'><p>Press '1' for A</p></div><div style='float: right;padding-right:30px;'><p>Press '0' for B</p> </div> </div></div>","null","","","","","","","","","","","","","",""
"3160","","test","audio-keyboard-response","192","549414","0.0-8.0-1.81","5e3a068281288b000bb484a3","condB","","resources/audio/wordStim/S3_AI_29_bxa_Step-9.wav","49","","","","","AI","resources/audio/wordStim/S3_AI_29_bxa_Step-9.wav","S3","29","bxa","9","MI","1","1","true"
"null","","fixation","html-keyboard-response","193","550415","0.0-8.0-0.82","5e3a068281288b000bb484a3","condB","","<div class=""vertical-center"" style='width:60%;'><p style='font-weight:bold;'>Does the middle word sound more like the first word (A) or the last word (B)?</p> <br> <div class=""container""> <div id=""a-box""> <p class=""title-text"">A</h3></p> </div> <div id=""x-box""> <p class=""title-text"">X<p> </div> <div id=""b-box""> <p class=""title-text"">B</p></div> <br> <div style='float: left;padding-left:30px;'><p>Press '1' for A</p></div><div style='float: right;padding-right:30px;'><p>Press '0' for B</p> </div> </div></div>","null","","","","","","","","","","","","","",""
"2019","","test","audio-keyboard-response","194","552431","0.0-8.0-1.82","5e3a068281288b000bb484a3","condB","","resources/audio/wordStim/S3_AI_21_bxa_Step-9.wav","49","","","","","AI","resources/audio/wordStim/S3_AI_21_bxa_Step-9.wav","S3","21","bxa","9","MI","1","1","true"
"null","","fixation","html-keyboard-response","195","553431","0.0-8.0-0.83","5e3a068281288b000bb484a3","condB","","<div class=""vertical-center"" style='width:60%;'><p style='font-weight:bold;'>Does the middle word sound more like the first word (A) or the last word (B)?</p> <br> <div class=""container""> <div id=""a-box""> <p class=""title-text"">A</h3></p> </div> <div id=""x-box""> <p class=""title-text"">X<p> </div> <div id=""b-box""> <p class=""title-text"">B</p></div> <br> <div style='float: left;padding-left:30px;'><p>Press '1' for A</p></div><div style='float: right;padding-right:30px;'><p>Press '0' for B</p> </div> </div></div>","null","","","","","","","","","","","","","",""
"2800","","test","audio-keyboard-response","196","556231","0.0-8.0-1.83","5e3a068281288b000bb484a3","condB","","resources/audio/wordStim/S3_AU_20_bxa_Step-5.wav","48","","","","","AU","resources/audio/wordStim/S3_AU_20_bxa_Step-5.wav","S3","20","bxa","5","MI","1","0","false"
"null","","fixation","html-keyboard-response","197","557232","0.0-8.0-0.84","5e3a068281288b000bb484a3","condB","","<div class=""vertical-center"" style='width:60%;'><p style='font-weight:bold;'>Does the middle word sound more like the first word (A) or the last word (B)?</p> <br> <div class=""container""> <div id=""a-box""> <p class=""title-text"">A</h3></p> </div> <div id=""x-box""> <p class=""title-text"">X<p> </div> <div id=""b-box""> <p class=""title-text"">B</p></div> <br> <div style='float: left;padding-left:30px;'><p>Press '1' for A</p></div><div style='float: right;padding-right:30px;'><p>Press '0' for B</p> </div> </div></div>","null","","","","","","","","","","","","","",""
"2811","","test","audio-keyboard-response","198","560038","0.0-8.0-1.84","5e3a068281288b000bb484a3","condB","","resources/audio/wordStim/S9_AU_16_axb_Step-4.wav","49","","","","","AU","resources/audio/wordStim/S9_AU_16_axb_Step-4.wav","S9","16","axb","4","CN","0","1","false"
"null","","fixation","html-keyboard-response","199","561042","0.0-8.0-0.85","5e3a068281288b000bb484a3","condB","","<div class=""vertical-center"" style='width:60%;'><p style='font-weight:bold;'>Does the middle word sound more like the first word (A) or the last word (B)?</p> <br> <div class=""container""> <div id=""a-box""> <p class=""title-text"">A</h3></p> </div> <div id=""x-box""> <p class=""title-text"">X<p> </div> <div id=""b-box""> <p class=""title-text"">B</p></div> <br> <div style='float: left;padding-left:30px;'><p>Press '1' for A</p></div><div style='float: right;padding-right:30px;'><p>Press '0' for B</p> </div> </div></div>","null","","","","","","","","","","","","","",""
"2789","","test","audio-keyboard-response","200","563838","0.0-8.0-1.85","5e3a068281288b000bb484a3","condB","","resources/audio/wordStim/S9_AU_14_axb_Step-2.wav","49","","","","","AU","resources/audio/wordStim/S9_AU_14_axb_Step-2.wav","S9","14","axb","2","CN","0","1","false"
"null","","fixation","html-keyboard-response","201","564842","0.0-8.0-0.86","5e3a068281288b000bb484a3","condB","","<div class=""vertical-center"" style='width:60%;'><p style='font-weight:bold;'>Does the middle word sound more like the first word (A) or the last word (B)?</p> <br> <div class=""container""> <div id=""a-box""> <p class=""title-text"">A</h3></p> </div> <div id=""x-box""> <p class=""title-text"">X<p> </div> <div id=""b-box""> <p class=""title-text"">B</p></div> <br> <div style='float: left;padding-left:30px;'><p>Press '1' for A</p></div><div style='float: right;padding-right:30px;'><p>Press '0' for B</p> </div> </div></div>","null","","","","","","","","","","","","","",""
"2539","","test","audio-keyboard-response","202","567383","0.0-8.0-1.86","5e3a068281288b000bb484a3","condB","","resources/audio/wordStim/S3_AU_15_axb_Step-8.wav","49","","","","","AU","resources/audio/wordStim/S3_AU_15_axb_Step-8.wav","S3","15","axb","8","MI","0","1","false"
"null","","fixation","html-keyboard-response","203","568383","0.0-8.0-0.87","5e3a068281288b000bb484a3","condB","","<div class=""vertical-center"" style='width:60%;'><p style='font-weight:bold;'>Does the middle word sound more like the first word (A) or the last word (B)?</p> <br> <div class=""container""> <div id=""a-box""> <p class=""title-text"">A</h3></p> </div> <div id=""x-box""> <p class=""title-text"">X<p> </div> <div id=""b-box""> <p class=""title-text"">B</p></div> <br> <div style='float: left;padding-left:30px;'><p>Press '1' for A</p></div><div style='float: right;padding-right:30px;'><p>Press '0' for B</p> </div> </div></div>","null","","","","","","","","","","","","","",""
"2771","","test","audio-keyboard-response","204","571151","0.0-8.0-1.87","5e3a068281288b000bb484a3","condB","","resources/audio/wordStim/S3_AU_20_axb_Step-4.wav","49","","","","","AU","resources/audio/wordStim/S3_AU_20_axb_Step-4.wav","S3","20","axb","4","MI","0","1","false"
"null","","fixation","html-keyboard-response","205","572155","0.0-8.0-0.88","5e3a068281288b000bb484a3","condB","","<div class=""vertical-center"" style='width:60%;'><p style='font-weight:bold;'>Does the middle word sound more like the first word (A) or the last word (B)?</p> <br> <div class=""container""> <div id=""a-box""> <p class=""title-text"">A</h3></p> </div> <div id=""x-box""> <p class=""title-text"">X<p> </div> <div id=""b-box""> <p class=""title-text"">B</p></div> <br> <div style='float: left;padding-left:30px;'><p>Press '1' for A</p></div><div style='float: right;padding-right:30px;'><p>Press '0' for B</p> </div> </div></div>","null","","","","","","","","","","","","","",""
"3720","","test","audio-keyboard-response","206","575871","0.0-8.0-1.88","5e3a068281288b000bb484a3","condB","","resources/audio/wordStim/S3_AU_16_axb_Step-8.wav","48","","","","","AU","resources/audio/wordStim/S3_AU_16_axb_Step-8.wav","S3","16","axb","8","MI","0","0","true"
"null","","fixation","html-keyboard-response","207","576872","0.0-8.0-0.89","5e3a068281288b000bb484a3","condB","","<div class=""vertical-center"" style='width:60%;'><p style='font-weight:bold;'>Does the middle word sound more like the first word (A) or the last word (B)?</p> <br> <div class=""container""> <div id=""a-box""> <p class=""title-text"">A</h3></p> </div> <div id=""x-box""> <p class=""title-text"">X<p> </div> <div id=""b-box""> <p class=""title-text"">B</p></div> <br> <div style='float: left;padding-left:30px;'><p>Press '1' for A</p></div><div style='float: right;padding-right:30px;'><p>Press '0' for B</p> </div> </div></div>","null","","","","","","","","","","","","","",""
"2549","","test","audio-keyboard-response","208","579423","0.0-8.0-1.89","5e3a068281288b000bb484a3","condB","","resources/audio/wordStim/S9_AI_27_bxa_Step-5.wav","49","","","","","AI","resources/audio/wordStim/S9_AI_27_bxa_Step-5.wav","S9","27","bxa","5","CN","1","1","true"
"null","","fixation","html-keyboard-response","209","580425","0.0-8.0-0.90","5e3a068281288b000bb484a3","condB","","<div class=""vertical-center"" style='width:60%;'><p style='font-weight:bold;'>Does the middle word sound more like the first word (A) or the last word (B)?</p> <br> <div class=""container""> <div id=""a-box""> <p class=""title-text"">A</h3></p> </div> <div id=""x-box""> <p class=""title-text"">X<p> </div> <div id=""b-box""> <p class=""title-text"">B</p></div> <br> <div style='float: left;padding-left:30px;'><p>Press '1' for A</p></div><div style='float: right;padding-right:30px;'><p>Press '0' for B</p> </div> </div></div>","null","","","","","","","","","","","","","",""
"4821","","test","audio-keyboard-response","210","585246","0.0-8.0-1.90","5e3a068281288b000bb484a3","condB","","resources/audio/wordStim/S3_AU_17_bxa_Step-3.wav","48","","","","","AU","resources/audio/wordStim/S3_AU_17_bxa_Step-3.wav","S3","17","bxa","3","MI","1","0","false"
"null","","fixation","html-keyboard-response","211","586248","0.0-8.0-0.91","5e3a068281288b000bb484a3","condB","","<div class=""vertical-center"" style='width:60%;'><p style='font-weight:bold;'>Does the middle word sound more like the first word (A) or the last word (B)?</p> <br> <div class=""container""> <div id=""a-box""> <p class=""title-text"">A</h3></p> </div> <div id=""x-box""> <p class=""title-text"">X<p> </div> <div id=""b-box""> <p class=""title-text"">B</p></div> <br> <div style='float: left;padding-left:30px;'><p>Press '1' for A</p></div><div style='float: right;padding-right:30px;'><p>Press '0' for B</p> </div> </div></div>","null","","","","","","","","","","","","","",""
"3029","","test","audio-keyboard-response","212","589270","0.0-8.0-1.91","5e3a068281288b000bb484a3","condB","","resources/audio/wordStim/S9_AI_24_axb_Step-4.wav","48","","","","","AI","resources/audio/wordStim/S9_AI_24_axb_Step-4.wav","S9","24","axb","4","CN","0","0","true"
"null","","fixation","html-keyboard-response","213","590274","0.0-8.0-0.92","5e3a068281288b000bb484a3","condB","","<div class=""vertical-center"" style='width:60%;'><p style='font-weight:bold;'>Does the middle word sound more like the first word (A) or the last word (B)?</p> <br> <div class=""container""> <div id=""a-box""> <p class=""title-text"">A</h3></p> </div> <div id=""x-box""> <p class=""title-text"">X<p> </div> <div id=""b-box""> <p class=""title-text"">B</p></div> <br> <div style='float: left;padding-left:30px;'><p>Press '1' for A</p></div><div style='float: right;padding-right:30px;'><p>Press '0' for B</p> </div> </div></div>","null","","","","","","","","","","","","","",""
"2549","","test","audio-keyboard-response","214","592823","0.0-8.0-1.92","5e3a068281288b000bb484a3","condB","","resources/audio/wordStim/S9_AU_13_axb_Step-6.wav","49","","","","","AU","resources/audio/wordStim/S9_AU_13_axb_Step-6.wav","S9","13","axb","6","CN","0","1","false"
"null","","fixation","html-keyboard-response","215","593826","0.0-8.0-0.93","5e3a068281288b000bb484a3","condB","","<div class=""vertical-center"" style='width:60%;'><p style='font-weight:bold;'>Does the middle word sound more like the first word (A) or the last word (B)?</p> <br> <div class=""container""> <div id=""a-box""> <p class=""title-text"">A</h3></p> </div> <div id=""x-box""> <p class=""title-text"">X<p> </div> <div id=""b-box""> <p class=""title-text"">B</p></div> <br> <div style='float: left;padding-left:30px;'><p>Press '1' for A</p></div><div style='float: right;padding-right:30px;'><p>Press '0' for B</p> </div> </div></div>","null","","","","","","","","","","","","","",""
