"rt","url","trial_role","trial_type","trial_index","time_elapsed","internal_node_id","participantId","condition","view_history","stimulus","key_press","button_pressed","correct_answer","correct_response","success","vowel","wordStim","speaker","sentNum","order","step","speakerIdentity","raised_answer","key_response","raised_response"
"20054.714999976568","micr.con.consent.html","consent","external-html","0","21800","0.0-0.0","5e916cb9e502b1498e8fc059","condB","","","","","","","","","","","","","","","","",""
"29429.349999991246","","instructions","instructions","1","51231","0.0-1.0","5e916cb9e502b1498e8fc059","condB","[{""page_index"":0,""viewing_time"":11453.180000011344},{""page_index"":1,""viewing_time"":12735.485000011977},{""page_index"":2,""viewing_time"":5240.319999982603}]","","","","","","","","","","","","","","","",""
"null","","fixation","html-keyboard-response","2","51734","0.0-2.0-0.0","5e916cb9e502b1498e8fc059","condB","","<div class=""vertical-center"" style=""font-size:60px;"">+</div>","null","","","","","","","","","","","","","",""
"11731.414999987464","","tonetest","audio-button-response","3","63471","0.0-2.0-1.0","5e916cb9e502b1498e8fc059","condB","","../../src/audio/toneTest_2.wav","","0","1","false","","","","","","","","","","",""
"null","","fixation","html-keyboard-response","4","63973","0.0-2.0-0.1","5e916cb9e502b1498e8fc059","condB","","<div class=""vertical-center"" style=""font-size:60px;"">+</div>","null","","","","","","","","","","","","","",""
"9784.144999983255","","tonetest","audio-button-response","5","73759","0.0-2.0-1.1","5e916cb9e502b1498e8fc059","condB","","../../src/audio/toneTest_1.wav","","1","2","false","","","","","","","","","","",""
"null","","fixation","html-keyboard-response","6","74261","0.0-2.0-0.2","5e916cb9e502b1498e8fc059","condB","","<div class=""vertical-center"" style=""font-size:60px;"">+</div>","null","","","","","","","","","","","","","",""
"5934.770000050776","","tonetest","audio-button-response","7","80199","0.0-2.0-1.2","5e916cb9e502b1498e8fc059","condB","","../../src/audio/toneTest_3.wav","","2","2","true","","","","","","","","","","",""
"null","","fixation","html-keyboard-response","8","80701","0.0-2.0-0.3","5e916cb9e502b1498e8fc059","condB","","<div class=""vertical-center"" style=""font-size:60px;"">+</div>","null","","","","","","","","","","","","","",""
"8182.624999957625","","tonetest","audio-button-response","9","88887","0.0-2.0-1.3","5e916cb9e502b1498e8fc059","condB","","../../src/audio/toneTest_5.wav","","0","0","true","","","","","","","","","","",""
"null","","fixation","html-keyboard-response","10","89388","0.0-2.0-0.4","5e916cb9e502b1498e8fc059","condB","","<div class=""vertical-center"" style=""font-size:60px;"">+</div>","null","","","","","","","","","","","","","",""
"14087.575000012293","","tonetest","audio-button-response","11","103479","0.0-2.0-1.4","5e916cb9e502b1498e8fc059","condB","","../../src/audio/toneTest_3.wav","","0","2","false","","","","","","","","","","",""
"null","","fixation","html-keyboard-response","12","103981","0.0-2.0-0.5","5e916cb9e502b1498e8fc059","condB","","<div class=""vertical-center"" style=""font-size:60px;"">+</div>","null","","","","","","","","","","","","","",""
"11184.320000000298","","tonetest","audio-button-response","13","115167","0.0-2.0-1.5","5e916cb9e502b1498e8fc059","condB","","../../src/audio/toneTest_5.wav","","1","0","false","","","","","","","","","","",""
"5593.164999969304","","instructions","html-keyboard-response","14","120762","0.0-3.0","5e916cb9e502b1498e8fc059","condB","","<div class=""vertical-center""><p><b>Your score was 2/6.</b></p><p>If you scored below 6, please ensure that you are wearing headphones and in a quiet location free of distractions.</p><p><i>To continue to the main experiment, press SPACE.</i></p></div>","32","","","","","","","","","","","","","",""
"","","","fullscreen","15","124318","0.0-4.0","5e916cb9e502b1498e8fc059","condB","","","","","","","true","","","","","","","","","",""
"22090.90000001015","","instructions","instructions","16","146409","0.0-5.0","5e916cb9e502b1498e8fc059","condB","[{""page_index"":0,""viewing_time"":22090.749999973923}]","","","","","","","","","","","","","","","",""
"null","","fixation","html-keyboard-response","17","146911","0.0-6.0-0.0","5e916cb9e502b1498e8fc059","condB","","<div class=""vertical-center"" style='width:60%;'><p style='font-weight:bold;'>Does the middle word sound more like the first word (A) or the last word (B)?</p> <br> <div class=""container""> <div id=""a-box""> <p class=""title-text"">A</h3></p> </div> <div id=""x-box""> <p class=""title-text"">X<p> </div> <div id=""b-box""> <p class=""title-text"">B</p></div> <br> <div style='float: left;padding-left:30px;'><p>Press '1' for A</p></div><div style='float: right;padding-right:30px;'><p>Press '0' for B</p> </div> </div></div>","null","","","","","","","","","","","","","",""
"11240","","practice","audio-keyboard-response","18","158202","0.0-6.0-1.0","5e916cb9e502b1498e8fc059","condB","","resources/audio/practiceStim/S1_AI_21_bxa_Step-6.wav","49","","","","","","","","","","","","","",""
"null","","fixation","html-keyboard-response","19","159206","0.0-6.0-0.1","5e916cb9e502b1498e8fc059","condB","","<div class=""vertical-center"" style='width:60%;'><p style='font-weight:bold;'>Does the middle word sound more like the first word (A) or the last word (B)?</p> <br> <div class=""container""> <div id=""a-box""> <p class=""title-text"">A</h3></p> </div> <div id=""x-box""> <p class=""title-text"">X<p> </div> <div id=""b-box""> <p class=""title-text"">B</p></div> <br> <div style='float: left;padding-left:30px;'><p>Press '1' for A</p></div><div style='float: right;padding-right:30px;'><p>Press '0' for B</p> </div> </div></div>","null","","","","","","","","","","","","","",""
"4549","","practice","audio-keyboard-response","20","163761","0.0-6.0-1.1","5e916cb9e502b1498e8fc059","condB","","resources/audio/practiceStim/S1_AU_14_axb_Step-6.wav","49","","","","","","","","","","","","","",""
"null","","fixation","html-keyboard-response","21","164765","0.0-6.0-0.2","5e916cb9e502b1498e8fc059","condB","","<div class=""vertical-center"" style='width:60%;'><p style='font-weight:bold;'>Does the middle word sound more like the first word (A) or the last word (B)?</p> <br> <div class=""container""> <div id=""a-box""> <p class=""title-text"">A</h3></p> </div> <div id=""x-box""> <p class=""title-text"">X<p> </div> <div id=""b-box""> <p class=""title-text"">B</p></div> <br> <div style='float: left;padding-left:30px;'><p>Press '1' for A</p></div><div style='float: right;padding-right:30px;'><p>Press '0' for B</p> </div> </div></div>","null","","","","","","","","","","","","","",""
"4880","","practice","audio-keyboard-response","22","169643","0.0-6.0-1.2","5e916cb9e502b1498e8fc059","condB","","resources/audio/practiceStim/S1_AU_14_bxa_Step-6.wav","48","","","","","","","","","","","","","",""
"null","","fixation","html-keyboard-response","23","170645","0.0-6.0-0.3","5e916cb9e502b1498e8fc059","condB","","<div class=""vertical-center"" style='width:60%;'><p style='font-weight:bold;'>Does the middle word sound more like the first word (A) or the last word (B)?</p> <br> <div class=""container""> <div id=""a-box""> <p class=""title-text"">A</h3></p> </div> <div id=""x-box""> <p class=""title-text"">X<p> </div> <div id=""b-box""> <p class=""title-text"">B</p></div> <br> <div style='float: left;padding-left:30px;'><p>Press '1' for A</p></div><div style='float: right;padding-right:30px;'><p>Press '0' for B</p> </div> </div></div>","null","","","","","","","","","","","","","",""
"6400","","practice","audio-keyboard-response","24","177049","0.0-6.0-1.3","5e916cb9e502b1498e8fc059","condB","","resources/audio/practiceStim/S1_AI_21_axb_Step-6.wav","49","","","","","","","","","","","","","",""
"2331.5699999802746","","instructions","instructions","25","179881","0.0-7.0","5e916cb9e502b1498e8fc059","condB","[{""page_index"":0,""viewing_time"":2331.224999972619}]","","","","","","","","","","","","","","","",""
"null","","fixation","html-keyboard-response","26","180384","0.0-8.0-0.0","5e916cb9e502b1498e8fc059","condB","","<div class=""vertical-center"" style='width:60%;'><p style='font-weight:bold;'>Does the middle word sound more like the first word (A) or the last word (B)?</p> <br> <div class=""container""> <div id=""a-box""> <p class=""title-text"">A</h3></p> </div> <div id=""x-box""> <p class=""title-text"">X<p> </div> <div id=""b-box""> <p class=""title-text"">B</p></div> <br> <div style='float: left;padding-left:30px;'><p>Press '1' for A</p></div><div style='float: right;padding-right:30px;'><p>Press '0' for B</p> </div> </div></div>","null","","","","","","","","","","","","","",""
"4480","","test","audio-keyboard-response","27","184864","0.0-8.0-1.0","5e916cb9e502b1498e8fc059","condB","","resources/audio/wordStim/S3_AU_19_axb_Step-2.wav","49","","","","","AU","resources/audio/wordStim/S3_AU_19_axb_Step-2.wav","S3","19","axb","2","MI","0","1","false"
"null","","fixation","html-keyboard-response","28","185870","0.0-8.0-0.1","5e916cb9e502b1498e8fc059","condB","","<div class=""vertical-center"" style='width:60%;'><p style='font-weight:bold;'>Does the middle word sound more like the first word (A) or the last word (B)?</p> <br> <div class=""container""> <div id=""a-box""> <p class=""title-text"">A</h3></p> </div> <div id=""x-box""> <p class=""title-text"">X<p> </div> <div id=""b-box""> <p class=""title-text"">B</p></div> <br> <div style='float: left;padding-left:30px;'><p>Press '1' for A</p></div><div style='float: right;padding-right:30px;'><p>Press '0' for B</p> </div> </div></div>","null","","","","","","","","","","","","","",""
"4280","","test","audio-keyboard-response","29","190153","0.0-8.0-1.1","5e916cb9e502b1498e8fc059","condB","","resources/audio/wordStim/S3_AU_18_bxa_Step-7.wav","49","","","","","AU","resources/audio/wordStim/S3_AU_18_bxa_Step-7.wav","S3","18","bxa","7","MI","1","1","true"
"null","","fixation","html-keyboard-response","30","191158","0.0-8.0-0.2","5e916cb9e502b1498e8fc059","condB","","<div class=""vertical-center"" style='width:60%;'><p style='font-weight:bold;'>Does the middle word sound more like the first word (A) or the last word (B)?</p> <br> <div class=""container""> <div id=""a-box""> <p class=""title-text"">A</h3></p> </div> <div id=""x-box""> <p class=""title-text"">X<p> </div> <div id=""b-box""> <p class=""title-text"">B</p></div> <br> <div style='float: left;padding-left:30px;'><p>Press '1' for A</p></div><div style='float: right;padding-right:30px;'><p>Press '0' for B</p> </div> </div></div>","null","","","","","","","","","","","","","",""
"2920","","test","audio-keyboard-response","31","194080","0.0-8.0-1.2","5e916cb9e502b1498e8fc059","condB","","resources/audio/wordStim/S3_AU_19_bxa_Step-9.wav","48","","","","","AU","resources/audio/wordStim/S3_AU_19_bxa_Step-9.wav","S3","19","bxa","9","MI","1","0","false"
"null","","fixation","html-keyboard-response","32","195085","0.0-8.0-0.3","5e916cb9e502b1498e8fc059","condB","","<div class=""vertical-center"" style='width:60%;'><p style='font-weight:bold;'>Does the middle word sound more like the first word (A) or the last word (B)?</p> <br> <div class=""container""> <div id=""a-box""> <p class=""title-text"">A</h3></p> </div> <div id=""x-box""> <p class=""title-text"">X<p> </div> <div id=""b-box""> <p class=""title-text"">B</p></div> <br> <div style='float: left;padding-left:30px;'><p>Press '1' for A</p></div><div style='float: right;padding-right:30px;'><p>Press '0' for B</p> </div> </div></div>","null","","","","","","","","","","","","","",""
"6741","","test","audio-keyboard-response","33","201825","0.0-8.0-1.3","5e916cb9e502b1498e8fc059","condB","","resources/audio/wordStim/S9_AU_11_axb_Step-6.wav","48","","","","","AU","resources/audio/wordStim/S9_AU_11_axb_Step-6.wav","S9","11","axb","6","CN","0","0","true"
"null","","fixation","html-keyboard-response","34","202830","0.0-8.0-0.4","5e916cb9e502b1498e8fc059","condB","","<div class=""vertical-center"" style='width:60%;'><p style='font-weight:bold;'>Does the middle word sound more like the first word (A) or the last word (B)?</p> <br> <div class=""container""> <div id=""a-box""> <p class=""title-text"">A</h3></p> </div> <div id=""x-box""> <p class=""title-text"">X<p> </div> <div id=""b-box""> <p class=""title-text"">B</p></div> <br> <div style='float: left;padding-left:30px;'><p>Press '1' for A</p></div><div style='float: right;padding-right:30px;'><p>Press '0' for B</p> </div> </div></div>","null","","","","","","","","","","","","","",""
"3312","","test","audio-keyboard-response","35","206144","0.0-8.0-1.4","5e916cb9e502b1498e8fc059","condB","","resources/audio/wordStim/S9_AI_23_axb_Step-6.wav","49","","","","","AI","resources/audio/wordStim/S9_AI_23_axb_Step-6.wav","S9","23","axb","6","CN","0","1","false"
"null","","fixation","html-keyboard-response","36","207147","0.0-8.0-0.5","5e916cb9e502b1498e8fc059","condB","","<div class=""vertical-center"" style='width:60%;'><p style='font-weight:bold;'>Does the middle word sound more like the first word (A) or the last word (B)?</p> <br> <div class=""container""> <div id=""a-box""> <p class=""title-text"">A</h3></p> </div> <div id=""x-box""> <p class=""title-text"">X<p> </div> <div id=""b-box""> <p class=""title-text"">B</p></div> <br> <div style='float: left;padding-left:30px;'><p>Press '1' for A</p></div><div style='float: right;padding-right:30px;'><p>Press '0' for B</p> </div> </div></div>","null","","","","","","","","","","","","","",""
"3888","","test","audio-keyboard-response","37","211032","0.0-8.0-1.5","5e916cb9e502b1498e8fc059","condB","","resources/audio/wordStim/S9_AI_29_bxa_Step-3.wav","49","","","","","AI","resources/audio/wordStim/S9_AI_29_bxa_Step-3.wav","S9","29","bxa","3","CN","1","1","true"
"null","","fixation","html-keyboard-response","38","212036","0.0-8.0-0.6","5e916cb9e502b1498e8fc059","condB","","<div class=""vertical-center"" style='width:60%;'><p style='font-weight:bold;'>Does the middle word sound more like the first word (A) or the last word (B)?</p> <br> <div class=""container""> <div id=""a-box""> <p class=""title-text"">A</h3></p> </div> <div id=""x-box""> <p class=""title-text"">X<p> </div> <div id=""b-box""> <p class=""title-text"">B</p></div> <br> <div style='float: left;padding-left:30px;'><p>Press '1' for A</p></div><div style='float: right;padding-right:30px;'><p>Press '0' for B</p> </div> </div></div>","null","","","","","","","","","","","","","",""
"3701","","test","audio-keyboard-response","39","215737","0.0-8.0-1.6","5e916cb9e502b1498e8fc059","condB","","resources/audio/wordStim/S9_AU_19_bxa_Step-5.wav","49","","","","","AU","resources/audio/wordStim/S9_AU_19_bxa_Step-5.wav","S9","19","bxa","5","CN","1","1","true"
"null","","fixation","html-keyboard-response","40","216740","0.0-8.0-0.7","5e916cb9e502b1498e8fc059","condB","","<div class=""vertical-center"" style='width:60%;'><p style='font-weight:bold;'>Does the middle word sound more like the first word (A) or the last word (B)?</p> <br> <div class=""container""> <div id=""a-box""> <p class=""title-text"">A</h3></p> </div> <div id=""x-box""> <p class=""title-text"">X<p> </div> <div id=""b-box""> <p class=""title-text"">B</p></div> <br> <div style='float: left;padding-left:30px;'><p>Press '1' for A</p></div><div style='float: right;padding-right:30px;'><p>Press '0' for B</p> </div> </div></div>","null","","","","","","","","","","","","","",""
"3568","","test","audio-keyboard-response","41","220318","0.0-8.0-1.7","5e916cb9e502b1498e8fc059","condB","","resources/audio/wordStim/S9_AU_19_axb_Step-8.wav","49","","","","","AU","resources/audio/wordStim/S9_AU_19_axb_Step-8.wav","S9","19","axb","8","CN","0","1","false"
"null","","fixation","html-keyboard-response","42","221321","0.0-8.0-0.8","5e916cb9e502b1498e8fc059","condB","","<div class=""vertical-center"" style='width:60%;'><p style='font-weight:bold;'>Does the middle word sound more like the first word (A) or the last word (B)?</p> <br> <div class=""container""> <div id=""a-box""> <p class=""title-text"">A</h3></p> </div> <div id=""x-box""> <p class=""title-text"">X<p> </div> <div id=""b-box""> <p class=""title-text"">B</p></div> <br> <div style='float: left;padding-left:30px;'><p>Press '1' for A</p></div><div style='float: right;padding-right:30px;'><p>Press '0' for B</p> </div> </div></div>","null","","","","","","","","","","","","","",""
"4320","","test","audio-keyboard-response","43","225638","0.0-8.0-1.8","5e916cb9e502b1498e8fc059","condB","","resources/audio/wordStim/S3_AI_28_axb_Step-2.wav","49","","","","","AI","resources/audio/wordStim/S3_AI_28_axb_Step-2.wav","S3","28","axb","2","MI","0","1","false"
"null","","fixation","html-keyboard-response","44","226642","0.0-8.0-0.9","5e916cb9e502b1498e8fc059","condB","","<div class=""vertical-center"" style='width:60%;'><p style='font-weight:bold;'>Does the middle word sound more like the first word (A) or the last word (B)?</p> <br> <div class=""container""> <div id=""a-box""> <p class=""title-text"">A</h3></p> </div> <div id=""x-box""> <p class=""title-text"">X<p> </div> <div id=""b-box""> <p class=""title-text"">B</p></div> <br> <div style='float: left;padding-left:30px;'><p>Press '1' for A</p></div><div style='float: right;padding-right:30px;'><p>Press '0' for B</p> </div> </div></div>","null","","","","","","","","","","","","","",""
"3669","","test","audio-keyboard-response","45","230313","0.0-8.0-1.9","5e916cb9e502b1498e8fc059","condB","","resources/audio/wordStim/S9_AI_27_axb_Step-8.wav","49","","","","","AI","resources/audio/wordStim/S9_AI_27_axb_Step-8.wav","S9","27","axb","8","CN","0","1","false"
"null","","fixation","html-keyboard-response","46","231317","0.0-8.0-0.10","5e916cb9e502b1498e8fc059","condB","","<div class=""vertical-center"" style='width:60%;'><p style='font-weight:bold;'>Does the middle word sound more like the first word (A) or the last word (B)?</p> <br> <div class=""container""> <div id=""a-box""> <p class=""title-text"">A</h3></p> </div> <div id=""x-box""> <p class=""title-text"">X<p> </div> <div id=""b-box""> <p class=""title-text"">B</p></div> <br> <div style='float: left;padding-left:30px;'><p>Press '1' for A</p></div><div style='float: right;padding-right:30px;'><p>Press '0' for B</p> </div> </div></div>","null","","","","","","","","","","","","","",""
"3752","","test","audio-keyboard-response","47","235065","0.0-8.0-1.10","5e916cb9e502b1498e8fc059","condB","","resources/audio/wordStim/S9_AI_30_axb_Step-4.wav","49","","","","","AI","resources/audio/wordStim/S9_AI_30_axb_Step-4.wav","S9","30","axb","4","CN","0","1","false"
"null","","fixation","html-keyboard-response","48","236069","0.0-8.0-0.11","5e916cb9e502b1498e8fc059","condB","","<div class=""vertical-center"" style='width:60%;'><p style='font-weight:bold;'>Does the middle word sound more like the first word (A) or the last word (B)?</p> <br> <div class=""container""> <div id=""a-box""> <p class=""title-text"">A</h3></p> </div> <div id=""x-box""> <p class=""title-text"">X<p> </div> <div id=""b-box""> <p class=""title-text"">B</p></div> <br> <div style='float: left;padding-left:30px;'><p>Press '1' for A</p></div><div style='float: right;padding-right:30px;'><p>Press '0' for B</p> </div> </div></div>","null","","","","","","","","","","","","","",""
"3568","","test","audio-keyboard-response","49","239633","0.0-8.0-1.11","5e916cb9e502b1498e8fc059","condB","","resources/audio/wordStim/S9_AU_20_bxa_Step-10.wav","49","","","","","AU","resources/audio/wordStim/S9_AU_20_bxa_Step-10.wav","S9","20","bxa","10","CN","1","1","true"
"null","","fixation","html-keyboard-response","50","240636","0.0-8.0-0.12","5e916cb9e502b1498e8fc059","condB","","<div class=""vertical-center"" style='width:60%;'><p style='font-weight:bold;'>Does the middle word sound more like the first word (A) or the last word (B)?</p> <br> <div class=""container""> <div id=""a-box""> <p class=""title-text"">A</h3></p> </div> <div id=""x-box""> <p class=""title-text"">X<p> </div> <div id=""b-box""> <p class=""title-text"">B</p></div> <br> <div style='float: left;padding-left:30px;'><p>Press '1' for A</p></div><div style='float: right;padding-right:30px;'><p>Press '0' for B</p> </div> </div></div>","null","","","","","","","","","","","","","",""
"4480","","test","audio-keyboard-response","51","245122","0.0-8.0-1.12","5e916cb9e502b1498e8fc059","condB","","resources/audio/wordStim/S9_AI_23_bxa_Step-5.wav","48","","","","","AI","resources/audio/wordStim/S9_AI_23_bxa_Step-5.wav","S9","23","bxa","5","CN","1","0","false"
"null","","fixation","html-keyboard-response","52","246139","0.0-8.0-0.13","5e916cb9e502b1498e8fc059","condB","","<div class=""vertical-center"" style='width:60%;'><p style='font-weight:bold;'>Does the middle word sound more like the first word (A) or the last word (B)?</p> <br> <div class=""container""> <div id=""a-box""> <p class=""title-text"">A</h3></p> </div> <div id=""x-box""> <p class=""title-text"">X<p> </div> <div id=""b-box""> <p class=""title-text"">B</p></div> <br> <div style='float: left;padding-left:30px;'><p>Press '1' for A</p></div><div style='float: right;padding-right:30px;'><p>Press '0' for B</p> </div> </div></div>","null","","","","","","","","","","","","","",""
"4171","","test","audio-keyboard-response","53","250305","0.0-8.0-1.13","5e916cb9e502b1498e8fc059","condB","","resources/audio/wordStim/S3_AI_22_bxa_Step-10.wav","49","","","","","AI","resources/audio/wordStim/S3_AI_22_bxa_Step-10.wav","S3","22","bxa","10","MI","1","1","true"
"null","","fixation","html-keyboard-response","54","251308","0.0-8.0-0.14","5e916cb9e502b1498e8fc059","condB","","<div class=""vertical-center"" style='width:60%;'><p style='font-weight:bold;'>Does the middle word sound more like the first word (A) or the last word (B)?</p> <br> <div class=""container""> <div id=""a-box""> <p class=""title-text"">A</h3></p> </div> <div id=""x-box""> <p class=""title-text"">X<p> </div> <div id=""b-box""> <p class=""title-text"">B</p></div> <br> <div style='float: left;padding-left:30px;'><p>Press '1' for A</p></div><div style='float: right;padding-right:30px;'><p>Press '0' for B</p> </div> </div></div>","null","","","","","","","","","","","","","",""
"4069","","test","audio-keyboard-response","55","255377","0.0-8.0-1.14","5e916cb9e502b1498e8fc059","condB","","resources/audio/wordStim/S3_AU_18_axb_Step-2.wav","49","","","","","AU","resources/audio/wordStim/S3_AU_18_axb_Step-2.wav","S3","18","axb","2","MI","0","1","false"
"null","","fixation","html-keyboard-response","56","256381","0.0-8.0-0.15","5e916cb9e502b1498e8fc059","condB","","<div class=""vertical-center"" style='width:60%;'><p style='font-weight:bold;'>Does the middle word sound more like the first word (A) or the last word (B)?</p> <br> <div class=""container""> <div id=""a-box""> <p class=""title-text"">A</h3></p> </div> <div id=""x-box""> <p class=""title-text"">X<p> </div> <div id=""b-box""> <p class=""title-text"">B</p></div> <br> <div style='float: left;padding-left:30px;'><p>Press '1' for A</p></div><div style='float: right;padding-right:30px;'><p>Press '0' for B</p> </div> </div></div>","null","","","","","","","","","","","","","",""
"2869","","test","audio-keyboard-response","57","259257","0.0-8.0-1.15","5e916cb9e502b1498e8fc059","condB","","resources/audio/wordStim/S9_AU_17_axb_Step-4.wav","49","","","","","AU","resources/audio/wordStim/S9_AU_17_axb_Step-4.wav","S9","17","axb","4","CN","0","1","false"
"null","","fixation","html-keyboard-response","58","260261","0.0-8.0-0.16","5e916cb9e502b1498e8fc059","condB","","<div class=""vertical-center"" style='width:60%;'><p style='font-weight:bold;'>Does the middle word sound more like the first word (A) or the last word (B)?</p> <br> <div class=""container""> <div id=""a-box""> <p class=""title-text"">A</h3></p> </div> <div id=""x-box""> <p class=""title-text"">X<p> </div> <div id=""b-box""> <p class=""title-text"">B</p></div> <br> <div style='float: left;padding-left:30px;'><p>Press '1' for A</p></div><div style='float: right;padding-right:30px;'><p>Press '0' for B</p> </div> </div></div>","null","","","","","","","","","","","","","",""
"3200","","test","audio-keyboard-response","59","263463","0.0-8.0-1.16","5e916cb9e502b1498e8fc059","condB","","resources/audio/wordStim/S3_AU_16_bxa_Step-5.wav","49","","","","","AU","resources/audio/wordStim/S3_AU_16_bxa_Step-5.wav","S3","16","bxa","5","MI","1","1","true"
"null","","fixation","html-keyboard-response","60","264466","0.0-8.0-0.17","5e916cb9e502b1498e8fc059","condB","","<div class=""vertical-center"" style='width:60%;'><p style='font-weight:bold;'>Does the middle word sound more like the first word (A) or the last word (B)?</p> <br> <div class=""container""> <div id=""a-box""> <p class=""title-text"">A</h3></p> </div> <div id=""x-box""> <p class=""title-text"">X<p> </div> <div id=""b-box""> <p class=""title-text"">B</p></div> <br> <div style='float: left;padding-left:30px;'><p>Press '1' for A</p></div><div style='float: right;padding-right:30px;'><p>Press '0' for B</p> </div> </div></div>","null","","","","","","","","","","","","","",""
"3829","","test","audio-keyboard-response","61","268299","0.0-8.0-1.17","5e916cb9e502b1498e8fc059","condB","","resources/audio/wordStim/S3_AI_29_axb_Step-6.wav","49","","","","","AI","resources/audio/wordStim/S3_AI_29_axb_Step-6.wav","S3","29","axb","6","MI","0","1","false"
"null","","fixation","html-keyboard-response","62","269302","0.0-8.0-0.18","5e916cb9e502b1498e8fc059","condB","","<div class=""vertical-center"" style='width:60%;'><p style='font-weight:bold;'>Does the middle word sound more like the first word (A) or the last word (B)?</p> <br> <div class=""container""> <div id=""a-box""> <p class=""title-text"">A</h3></p> </div> <div id=""x-box""> <p class=""title-text"">X<p> </div> <div id=""b-box""> <p class=""title-text"">B</p></div> <br> <div style='float: left;padding-left:30px;'><p>Press '1' for A</p></div><div style='float: right;padding-right:30px;'><p>Press '0' for B</p> </div> </div></div>","null","","","","","","","","","","","","","",""
"3360","","test","audio-keyboard-response","63","272665","0.0-8.0-1.18","5e916cb9e502b1498e8fc059","condB","","resources/audio/wordStim/S9_AI_22_axb_Step-2.wav","48","","","","","AI","resources/audio/wordStim/S9_AI_22_axb_Step-2.wav","S9","22","axb","2","CN","0","0","true"
"null","","fixation","html-keyboard-response","64","273669","0.0-8.0-0.19","5e916cb9e502b1498e8fc059","condB","","<div class=""vertical-center"" style='width:60%;'><p style='font-weight:bold;'>Does the middle word sound more like the first word (A) or the last word (B)?</p> <br> <div class=""container""> <div id=""a-box""> <p class=""title-text"">A</h3></p> </div> <div id=""x-box""> <p class=""title-text"">X<p> </div> <div id=""b-box""> <p class=""title-text"">B</p></div> <br> <div style='float: left;padding-left:30px;'><p>Press '1' for A</p></div><div style='float: right;padding-right:30px;'><p>Press '0' for B</p> </div> </div></div>","null","","","","","","","","","","","","","",""
"3109","","test","audio-keyboard-response","65","276777","0.0-8.0-1.19","5e916cb9e502b1498e8fc059","condB","","resources/audio/wordStim/S9_AU_16_bxa_Step-10.wav","49","","","","","AU","resources/audio/wordStim/S9_AU_16_bxa_Step-10.wav","S9","16","bxa","10","CN","1","1","true"
"null","","fixation","html-keyboard-response","66","277781","0.0-8.0-0.20","5e916cb9e502b1498e8fc059","condB","","<div class=""vertical-center"" style='width:60%;'><p style='font-weight:bold;'>Does the middle word sound more like the first word (A) or the last word (B)?</p> <br> <div class=""container""> <div id=""a-box""> <p class=""title-text"">A</h3></p> </div> <div id=""x-box""> <p class=""title-text"">X<p> </div> <div id=""b-box""> <p class=""title-text"">B</p></div> <br> <div style='float: left;padding-left:30px;'><p>Press '1' for A</p></div><div style='float: right;padding-right:30px;'><p>Press '0' for B</p> </div> </div></div>","null","","","","","","","","","","","","","",""
"3640","","test","audio-keyboard-response","67","281431","0.0-8.0-1.20","5e916cb9e502b1498e8fc059","condB","","resources/audio/wordStim/S9_AU_17_bxa_Step-7.wav","49","","","","","AU","resources/audio/wordStim/S9_AU_17_bxa_Step-7.wav","S9","17","bxa","7","CN","1","1","true"
"null","","fixation","html-keyboard-response","68","282435","0.0-8.0-0.21","5e916cb9e502b1498e8fc059","condB","","<div class=""vertical-center"" style='width:60%;'><p style='font-weight:bold;'>Does the middle word sound more like the first word (A) or the last word (B)?</p> <br> <div class=""container""> <div id=""a-box""> <p class=""title-text"">A</h3></p> </div> <div id=""x-box""> <p class=""title-text"">X<p> </div> <div id=""b-box""> <p class=""title-text"">B</p></div> <br> <div style='float: left;padding-left:30px;'><p>Press '1' for A</p></div><div style='float: right;padding-right:30px;'><p>Press '0' for B</p> </div> </div></div>","null","","","","","","","","","","","","","",""
"3032","","test","audio-keyboard-response","69","285471","0.0-8.0-1.21","5e916cb9e502b1498e8fc059","condB","","resources/audio/wordStim/S9_AU_18_axb_Step-4.wav","49","","","","","AU","resources/audio/wordStim/S9_AU_18_axb_Step-4.wav","S9","18","axb","4","CN","0","1","false"
"null","","fixation","html-keyboard-response","70","286474","0.0-8.0-0.22","5e916cb9e502b1498e8fc059","condB","","<div class=""vertical-center"" style='width:60%;'><p style='font-weight:bold;'>Does the middle word sound more like the first word (A) or the last word (B)?</p> <br> <div class=""container""> <div id=""a-box""> <p class=""title-text"">A</h3></p> </div> <div id=""x-box""> <p class=""title-text"">X<p> </div> <div id=""b-box""> <p class=""title-text"">B</p></div> <br> <div style='float: left;padding-left:30px;'><p>Press '1' for A</p></div><div style='float: right;padding-right:30px;'><p>Press '0' for B</p> </div> </div></div>","null","","","","","","","","","","","","","",""
"3171","","test","audio-keyboard-response","71","289649","0.0-8.0-1.22","5e916cb9e502b1498e8fc059","condB","","resources/audio/wordStim/S3_AU_18_bxa_Step-9.wav","49","","","","","AU","resources/audio/wordStim/S3_AU_18_bxa_Step-9.wav","S3","18","bxa","9","MI","1","1","true"
"null","","fixation","html-keyboard-response","72","290653","0.0-8.0-0.23","5e916cb9e502b1498e8fc059","condB","","<div class=""vertical-center"" style='width:60%;'><p style='font-weight:bold;'>Does the middle word sound more like the first word (A) or the last word (B)?</p> <br> <div class=""container""> <div id=""a-box""> <p class=""title-text"">A</h3></p> </div> <div id=""x-box""> <p class=""title-text"">X<p> </div> <div id=""b-box""> <p class=""title-text"">B</p></div> <br> <div style='float: left;padding-left:30px;'><p>Press '1' for A</p></div><div style='float: right;padding-right:30px;'><p>Press '0' for B</p> </div> </div></div>","null","","","","","","","","","","","","","",""
"2309","","test","audio-keyboard-response","73","292970","0.0-8.0-1.23","5e916cb9e502b1498e8fc059","condB","","resources/audio/wordStim/S3_AU_15_axb_Step-4.wav","49","","","","","AU","resources/audio/wordStim/S3_AU_15_axb_Step-4.wav","S3","15","axb","4","MI","0","1","false"
"null","","fixation","html-keyboard-response","74","293973","0.0-8.0-0.24","5e916cb9e502b1498e8fc059","condB","","<div class=""vertical-center"" style='width:60%;'><p style='font-weight:bold;'>Does the middle word sound more like the first word (A) or the last word (B)?</p> <br> <div class=""container""> <div id=""a-box""> <p class=""title-text"">A</h3></p> </div> <div id=""x-box""> <p class=""title-text"">X<p> </div> <div id=""b-box""> <p class=""title-text"">B</p></div> <br> <div style='float: left;padding-left:30px;'><p>Press '1' for A</p></div><div style='float: right;padding-right:30px;'><p>Press '0' for B</p> </div> </div></div>","null","","","","","","","","","","","","","",""
"3691","","test","audio-keyboard-response","75","297672","0.0-8.0-1.24","5e916cb9e502b1498e8fc059","condB","","resources/audio/wordStim/S3_AI_30_axb_Step-2.wav","49","","","","","AI","resources/audio/wordStim/S3_AI_30_axb_Step-2.wav","S3","30","axb","2","MI","0","1","false"
"null","","fixation","html-keyboard-response","76","298675","0.0-8.0-0.25","5e916cb9e502b1498e8fc059","condB","","<div class=""vertical-center"" style='width:60%;'><p style='font-weight:bold;'>Does the middle word sound more like the first word (A) or the last word (B)?</p> <br> <div class=""container""> <div id=""a-box""> <p class=""title-text"">A</h3></p> </div> <div id=""x-box""> <p class=""title-text"">X<p> </div> <div id=""b-box""> <p class=""title-text"">B</p></div> <br> <div style='float: left;padding-left:30px;'><p>Press '1' for A</p></div><div style='float: right;padding-right:30px;'><p>Press '0' for B</p> </div> </div></div>","null","","","","","","","","","","","","","",""
"3051","","test","audio-keyboard-response","77","301729","0.0-8.0-1.25","5e916cb9e502b1498e8fc059","condB","","resources/audio/wordStim/S3_AU_14_bxa_Step-3.wav","49","","","","","AU","resources/audio/wordStim/S3_AU_14_bxa_Step-3.wav","S3","14","bxa","3","MI","1","1","true"
"null","","fixation","html-keyboard-response","78","302733","0.0-8.0-0.26","5e916cb9e502b1498e8fc059","condB","","<div class=""vertical-center"" style='width:60%;'><p style='font-weight:bold;'>Does the middle word sound more like the first word (A) or the last word (B)?</p> <br> <div class=""container""> <div id=""a-box""> <p class=""title-text"">A</h3></p> </div> <div id=""x-box""> <p class=""title-text"">X<p> </div> <div id=""b-box""> <p class=""title-text"">B</p></div> <br> <div style='float: left;padding-left:30px;'><p>Press '1' for A</p></div><div style='float: right;padding-right:30px;'><p>Press '0' for B</p> </div> </div></div>","null","","","","","","","","","","","","","",""
"3259","","test","audio-keyboard-response","79","305994","0.0-8.0-1.26","5e916cb9e502b1498e8fc059","condB","","resources/audio/wordStim/S9_AI_24_bxa_Step-10.wav","49","","","","","AI","resources/audio/wordStim/S9_AI_24_bxa_Step-10.wav","S9","24","bxa","10","CN","1","1","true"
"3073.3600000385195","","break","html-keyboard-response","80","309569","0.0-8.0-2.26-0.26","5e916cb9e502b1498e8fc059","condB","","<div class=""vertical-center""><p>Feel free to take a break!</p><i>When you're ready to continue, press SPACE to begin the next trial.</i></p></div>","32","","","","","","","","","","","","","",""
"null","","fixation","html-keyboard-response","81","310072","0.0-8.0-0.27","5e916cb9e502b1498e8fc059","condB","","<div class=""vertical-center"" style='width:60%;'><p style='font-weight:bold;'>Does the middle word sound more like the first word (A) or the last word (B)?</p> <br> <div class=""container""> <div id=""a-box""> <p class=""title-text"">A</h3></p> </div> <div id=""x-box""> <p class=""title-text"">X<p> </div> <div id=""b-box""> <p class=""title-text"">B</p></div> <br> <div style='float: left;padding-left:30px;'><p>Press '1' for A</p></div><div style='float: right;padding-right:30px;'><p>Press '0' for B</p> </div> </div></div>","null","","","","","","","","","","","","","",""
"2931","","test","audio-keyboard-response","82","313009","0.0-8.0-1.27","5e916cb9e502b1498e8fc059","condB","","resources/audio/wordStim/S3_AU_14_axb_Step-8.wav","49","","","","","AU","resources/audio/wordStim/S3_AU_14_axb_Step-8.wav","S3","14","axb","8","MI","0","1","false"
"null","","fixation","html-keyboard-response","83","314013","0.0-8.0-0.28","5e916cb9e502b1498e8fc059","condB","","<div class=""vertical-center"" style='width:60%;'><p style='font-weight:bold;'>Does the middle word sound more like the first word (A) or the last word (B)?</p> <br> <div class=""container""> <div id=""a-box""> <p class=""title-text"">A</h3></p> </div> <div id=""x-box""> <p class=""title-text"">X<p> </div> <div id=""b-box""> <p class=""title-text"">B</p></div> <br> <div style='float: left;padding-left:30px;'><p>Press '1' for A</p></div><div style='float: right;padding-right:30px;'><p>Press '0' for B</p> </div> </div></div>","null","","","","","","","","","","","","","",""
"2819","","test","audio-keyboard-response","84","316839","0.0-8.0-1.28","5e916cb9e502b1498e8fc059","condB","","resources/audio/wordStim/S3_AI_21_bxa_Step-3.wav","48","","","","","AI","resources/audio/wordStim/S3_AI_21_bxa_Step-3.wav","S3","21","bxa","3","MI","1","0","false"
"null","","fixation","html-keyboard-response","85","317841","0.0-8.0-0.29","5e916cb9e502b1498e8fc059","condB","","<div class=""vertical-center"" style='width:60%;'><p style='font-weight:bold;'>Does the middle word sound more like the first word (A) or the last word (B)?</p> <br> <div class=""container""> <div id=""a-box""> <p class=""title-text"">A</h3></p> </div> <div id=""x-box""> <p class=""title-text"">X<p> </div> <div id=""b-box""> <p class=""title-text"">B</p></div> <br> <div style='float: left;padding-left:30px;'><p>Press '1' for A</p></div><div style='float: right;padding-right:30px;'><p>Press '0' for B</p> </div> </div></div>","null","","","","","","","","","","","","","",""
"2720","","test","audio-keyboard-response","86","320569","0.0-8.0-1.29","5e916cb9e502b1498e8fc059","condB","","resources/audio/wordStim/S3_AI_29_axb_Step-4.wav","49","","","","","AI","resources/audio/wordStim/S3_AI_29_axb_Step-4.wav","S3","29","axb","4","MI","0","1","false"
"null","","fixation","html-keyboard-response","87","321574","0.0-8.0-0.30","5e916cb9e502b1498e8fc059","condB","","<div class=""vertical-center"" style='width:60%;'><p style='font-weight:bold;'>Does the middle word sound more like the first word (A) or the last word (B)?</p> <br> <div class=""container""> <div id=""a-box""> <p class=""title-text"">A</h3></p> </div> <div id=""x-box""> <p class=""title-text"">X<p> </div> <div id=""b-box""> <p class=""title-text"">B</p></div> <br> <div style='float: left;padding-left:30px;'><p>Press '1' for A</p></div><div style='float: right;padding-right:30px;'><p>Press '0' for B</p> </div> </div></div>","null","","","","","","","","","","","","","",""
"2811","","test","audio-keyboard-response","88","324391","0.0-8.0-1.30","5e916cb9e502b1498e8fc059","condB","","resources/audio/wordStim/S9_AU_13_axb_Step-2.wav","49","","","","","AU","resources/audio/wordStim/S9_AU_13_axb_Step-2.wav","S9","13","axb","2","CN","0","1","false"
"null","","fixation","html-keyboard-response","89","325394","0.0-8.0-0.31","5e916cb9e502b1498e8fc059","condB","","<div class=""vertical-center"" style='width:60%;'><p style='font-weight:bold;'>Does the middle word sound more like the first word (A) or the last word (B)?</p> <br> <div class=""container""> <div id=""a-box""> <p class=""title-text"">A</h3></p> </div> <div id=""x-box""> <p class=""title-text"">X<p> </div> <div id=""b-box""> <p class=""title-text"">B</p></div> <br> <div style='float: left;padding-left:30px;'><p>Press '1' for A</p></div><div style='float: right;padding-right:30px;'><p>Press '0' for B</p> </div> </div></div>","null","","","","","","","","","","","","","",""
"2741","","test","audio-keyboard-response","90","328138","0.0-8.0-1.31","5e916cb9e502b1498e8fc059","condB","","resources/audio/wordStim/S9_AU_16_bxa_Step-9.wav","49","","","","","AU","resources/audio/wordStim/S9_AU_16_bxa_Step-9.wav","S9","16","bxa","9","CN","1","1","true"
"null","","fixation","html-keyboard-response","91","329141","0.0-8.0-0.32","5e916cb9e502b1498e8fc059","condB","","<div class=""vertical-center"" style='width:60%;'><p style='font-weight:bold;'>Does the middle word sound more like the first word (A) or the last word (B)?</p> <br> <div class=""container""> <div id=""a-box""> <p class=""title-text"">A</h3></p> </div> <div id=""x-box""> <p class=""title-text"">X<p> </div> <div id=""b-box""> <p class=""title-text"">B</p></div> <br> <div style='float: left;padding-left:30px;'><p>Press '1' for A</p></div><div style='float: right;padding-right:30px;'><p>Press '0' for B</p> </div> </div></div>","null","","","","","","","","","","","","","",""
"3819","","test","audio-keyboard-response","92","332967","0.0-8.0-1.32","5e916cb9e502b1498e8fc059","condB","","resources/audio/wordStim/S9_AU_11_axb_Step-8.wav","49","","","","","AU","resources/audio/wordStim/S9_AU_11_axb_Step-8.wav","S9","11","axb","8","CN","0","1","false"
"null","","fixation","html-keyboard-response","93","333970","0.0-8.0-0.33","5e916cb9e502b1498e8fc059","condB","","<div class=""vertical-center"" style='width:60%;'><p style='font-weight:bold;'>Does the middle word sound more like the first word (A) or the last word (B)?</p> <br> <div class=""container""> <div id=""a-box""> <p class=""title-text"">A</h3></p> </div> <div id=""x-box""> <p class=""title-text"">X<p> </div> <div id=""b-box""> <p class=""title-text"">B</p></div> <br> <div style='float: left;padding-left:30px;'><p>Press '1' for A</p></div><div style='float: right;padding-right:30px;'><p>Press '0' for B</p> </div> </div></div>","null","","","","","","","","","","","","","",""
"3109","","test","audio-keyboard-response","94","337089","0.0-8.0-1.33","5e916cb9e502b1498e8fc059","condB","","resources/audio/wordStim/S9_AU_20_bxa_Step-3.wav","49","","","","","AU","resources/audio/wordStim/S9_AU_20_bxa_Step-3.wav","S9","20","bxa","3","CN","1","1","true"
"null","","fixation","html-keyboard-response","95","338093","0.0-8.0-0.34","5e916cb9e502b1498e8fc059","condB","","<div class=""vertical-center"" style='width:60%;'><p style='font-weight:bold;'>Does the middle word sound more like the first word (A) or the last word (B)?</p> <br> <div class=""container""> <div id=""a-box""> <p class=""title-text"">A</h3></p> </div> <div id=""x-box""> <p class=""title-text"">X<p> </div> <div id=""b-box""> <p class=""title-text"">B</p></div> <br> <div style='float: left;padding-left:30px;'><p>Press '1' for A</p></div><div style='float: right;padding-right:30px;'><p>Press '0' for B</p> </div> </div></div>","null","","","","","","","","","","","","","",""
"2819","","test","audio-keyboard-response","96","340921","0.0-8.0-1.34","5e916cb9e502b1498e8fc059","condB","","resources/audio/wordStim/S3_AI_25_bxa_Step-9.wav","49","","","","","AI","resources/audio/wordStim/S3_AI_25_bxa_Step-9.wav","S3","25","bxa","9","MI","1","1","true"
"null","","fixation","html-keyboard-response","97","341927","0.0-8.0-0.35","5e916cb9e502b1498e8fc059","condB","","<div class=""vertical-center"" style='width:60%;'><p style='font-weight:bold;'>Does the middle word sound more like the first word (A) or the last word (B)?</p> <br> <div class=""container""> <div id=""a-box""> <p class=""title-text"">A</h3></p> </div> <div id=""x-box""> <p class=""title-text"">X<p> </div> <div id=""b-box""> <p class=""title-text"">B</p></div> <br> <div style='float: left;padding-left:30px;'><p>Press '1' for A</p></div><div style='float: right;padding-right:30px;'><p>Press '0' for B</p> </div> </div></div>","null","","","","","","","","","","","","","",""
"2571","","test","audio-keyboard-response","98","344495","0.0-8.0-1.35","5e916cb9e502b1498e8fc059","condB","","resources/audio/wordStim/S3_AI_28_bxa_Step-3.wav","49","","","","","AI","resources/audio/wordStim/S3_AI_28_bxa_Step-3.wav","S3","28","bxa","3","MI","1","1","true"
"null","","fixation","html-keyboard-response","99","345498","0.0-8.0-0.36","5e916cb9e502b1498e8fc059","condB","","<div class=""vertical-center"" style='width:60%;'><p style='font-weight:bold;'>Does the middle word sound more like the first word (A) or the last word (B)?</p> <br> <div class=""container""> <div id=""a-box""> <p class=""title-text"">A</h3></p> </div> <div id=""x-box""> <p class=""title-text"">X<p> </div> <div id=""b-box""> <p class=""title-text"">B</p></div> <br> <div style='float: left;padding-left:30px;'><p>Press '1' for A</p></div><div style='float: right;padding-right:30px;'><p>Press '0' for B</p> </div> </div></div>","null","","","","","","","","","","","","","",""
"6429","","test","audio-keyboard-response","100","351929","0.0-8.0-1.36","5e916cb9e502b1498e8fc059","condB","","resources/audio/wordStim/S9_AI_24_axb_Step-4.wav","49","","","","","AI","resources/audio/wordStim/S9_AI_24_axb_Step-4.wav","S9","24","axb","4","CN","0","1","false"
"null","","fixation","html-keyboard-response","101","352932","0.0-8.0-0.37","5e916cb9e502b1498e8fc059","condB","","<div class=""vertical-center"" style='width:60%;'><p style='font-weight:bold;'>Does the middle word sound more like the first word (A) or the last word (B)?</p> <br> <div class=""container""> <div id=""a-box""> <p class=""title-text"">A</h3></p> </div> <div id=""x-box""> <p class=""title-text"">X<p> </div> <div id=""b-box""> <p class=""title-text"">B</p></div> <br> <div style='float: left;padding-left:30px;'><p>Press '1' for A</p></div><div style='float: right;padding-right:30px;'><p>Press '0' for B</p> </div> </div></div>","null","","","","","","","","","","","","","",""
"16059","","test","audio-keyboard-response","102","369002","0.0-8.0-1.37","5e916cb9e502b1498e8fc059","condB","","resources/audio/wordStim/S9_AU_11_axb_Step-4.wav","49","","","","","AU","resources/audio/wordStim/S9_AU_11_axb_Step-4.wav","S9","11","axb","4","CN","0","1","false"
"null","","fixation","html-keyboard-response","103","370005","0.0-8.0-0.38","5e916cb9e502b1498e8fc059","condB","","<div class=""vertical-center"" style='width:60%;'><p style='font-weight:bold;'>Does the middle word sound more like the first word (A) or the last word (B)?</p> <br> <div class=""container""> <div id=""a-box""> <p class=""title-text"">A</h3></p> </div> <div id=""x-box""> <p class=""title-text"">X<p> </div> <div id=""b-box""> <p class=""title-text"">B</p></div> <br> <div style='float: left;padding-left:30px;'><p>Press '1' for A</p></div><div style='float: right;padding-right:30px;'><p>Press '0' for B</p> </div> </div></div>","null","","","","","","","","","","","","","",""
"2941","","test","audio-keyboard-response","104","372951","0.0-8.0-1.38","5e916cb9e502b1498e8fc059","condB","","resources/audio/wordStim/S3_AU_18_axb_Step-6.wav","49","","","","","AU","resources/audio/wordStim/S3_AU_18_axb_Step-6.wav","S3","18","axb","6","MI","0","1","false"
"null","","fixation","html-keyboard-response","105","373954","0.0-8.0-0.39","5e916cb9e502b1498e8fc059","condB","","<div class=""vertical-center"" style='width:60%;'><p style='font-weight:bold;'>Does the middle word sound more like the first word (A) or the last word (B)?</p> <br> <div class=""container""> <div id=""a-box""> <p class=""title-text"">A</h3></p> </div> <div id=""x-box""> <p class=""title-text"">X<p> </div> <div id=""b-box""> <p class=""title-text"">B</p></div> <br> <div style='float: left;padding-left:30px;'><p>Press '1' for A</p></div><div style='float: right;padding-right:30px;'><p>Press '0' for B</p> </div> </div></div>","null","","","","","","","","","","","","","",""
"3061","","test","audio-keyboard-response","106","377016","0.0-8.0-1.39","5e916cb9e502b1498e8fc059","condB","","resources/audio/wordStim/S3_AU_18_bxa_Step-3.wav","49","","","","","AU","resources/audio/wordStim/S3_AU_18_bxa_Step-3.wav","S3","18","bxa","3","MI","1","1","true"
"null","","fixation","html-keyboard-response","107","378021","0.0-8.0-0.40","5e916cb9e502b1498e8fc059","condB","","<div class=""vertical-center"" style='width:60%;'><p style='font-weight:bold;'>Does the middle word sound more like the first word (A) or the last word (B)?</p> <br> <div class=""container""> <div id=""a-box""> <p class=""title-text"">A</h3></p> </div> <div id=""x-box""> <p class=""title-text"">X<p> </div> <div id=""b-box""> <p class=""title-text"">B</p></div> <br> <div style='float: left;padding-left:30px;'><p>Press '1' for A</p></div><div style='float: right;padding-right:30px;'><p>Press '0' for B</p> </div> </div></div>","null","","","","","","","","","","","","","",""
"4440","","test","audio-keyboard-response","108","382463","0.0-8.0-1.40","5e916cb9e502b1498e8fc059","condB","","resources/audio/wordStim/S3_AU_17_axb_Step-8.wav","49","","","","","AU","resources/audio/wordStim/S3_AU_17_axb_Step-8.wav","S3","17","axb","8","MI","0","1","false"
"null","","fixation","html-keyboard-response","109","383465","0.0-8.0-0.41","5e916cb9e502b1498e8fc059","condB","","<div class=""vertical-center"" style='width:60%;'><p style='font-weight:bold;'>Does the middle word sound more like the first word (A) or the last word (B)?</p> <br> <div class=""container""> <div id=""a-box""> <p class=""title-text"">A</h3></p> </div> <div id=""x-box""> <p class=""title-text"">X<p> </div> <div id=""b-box""> <p class=""title-text"">B</p></div> <br> <div style='float: left;padding-left:30px;'><p>Press '1' for A</p></div><div style='float: right;padding-right:30px;'><p>Press '0' for B</p> </div> </div></div>","null","","","","","","","","","","","","","",""
"2579","","test","audio-keyboard-response","110","386049","0.0-8.0-1.41","5e916cb9e502b1498e8fc059","condB","","resources/audio/wordStim/S9_AU_19_bxa_Step-3.wav","49","","","","","AU","resources/audio/wordStim/S9_AU_19_bxa_Step-3.wav","S9","19","bxa","3","CN","1","1","true"
"null","","fixation","html-keyboard-response","111","387053","0.0-8.0-0.42","5e916cb9e502b1498e8fc059","condB","","<div class=""vertical-center"" style='width:60%;'><p style='font-weight:bold;'>Does the middle word sound more like the first word (A) or the last word (B)?</p> <br> <div class=""container""> <div id=""a-box""> <p class=""title-text"">A</h3></p> </div> <div id=""x-box""> <p class=""title-text"">X<p> </div> <div id=""b-box""> <p class=""title-text"">B</p></div> <br> <div style='float: left;padding-left:30px;'><p>Press '1' for A</p></div><div style='float: right;padding-right:30px;'><p>Press '0' for B</p> </div> </div></div>","null","","","","","","","","","","","","","",""
"2819","","test","audio-keyboard-response","112","389873","0.0-8.0-1.42","5e916cb9e502b1498e8fc059","condB","","resources/audio/wordStim/S9_AU_16_axb_Step-8.wav","49","","","","","AU","resources/audio/wordStim/S9_AU_16_axb_Step-8.wav","S9","16","axb","8","CN","0","1","false"
"null","","fixation","html-keyboard-response","113","390877","0.0-8.0-0.43","5e916cb9e502b1498e8fc059","condB","","<div class=""vertical-center"" style='width:60%;'><p style='font-weight:bold;'>Does the middle word sound more like the first word (A) or the last word (B)?</p> <br> <div class=""container""> <div id=""a-box""> <p class=""title-text"">A</h3></p> </div> <div id=""x-box""> <p class=""title-text"">X<p> </div> <div id=""b-box""> <p class=""title-text"">B</p></div> <br> <div style='float: left;padding-left:30px;'><p>Press '1' for A</p></div><div style='float: right;padding-right:30px;'><p>Press '0' for B</p> </div> </div></div>","null","","","","","","","","","","","","","",""
"3312","","test","audio-keyboard-response","114","394185","0.0-8.0-1.43","5e916cb9e502b1498e8fc059","condB","","resources/audio/wordStim/S3_AI_28_bxa_Step-9.wav","48","","","","","AI","resources/audio/wordStim/S3_AI_28_bxa_Step-9.wav","S3","28","bxa","9","MI","1","0","false"
"null","","fixation","html-keyboard-response","115","395190","0.0-8.0-0.44","5e916cb9e502b1498e8fc059","condB","","<div class=""vertical-center"" style='width:60%;'><p style='font-weight:bold;'>Does the middle word sound more like the first word (A) or the last word (B)?</p> <br> <div class=""container""> <div id=""a-box""> <p class=""title-text"">A</h3></p> </div> <div id=""x-box""> <p class=""title-text"">X<p> </div> <div id=""b-box""> <p class=""title-text"">B</p></div> <br> <div style='float: left;padding-left:30px;'><p>Press '1' for A</p></div><div style='float: right;padding-right:30px;'><p>Press '0' for B</p> </div> </div></div>","null","","","","","","","","","","","","","",""
"2272","","test","audio-keyboard-response","116","397471","0.0-8.0-1.44","5e916cb9e502b1498e8fc059","condB","","resources/audio/wordStim/S3_AU_14_bxa_Step-5.wav","49","","","","","AU","resources/audio/wordStim/S3_AU_14_bxa_Step-5.wav","S3","14","bxa","5","MI","1","1","true"
"null","","fixation","html-keyboard-response","117","398474","0.0-8.0-0.45","5e916cb9e502b1498e8fc059","condB","","<div class=""vertical-center"" style='width:60%;'><p style='font-weight:bold;'>Does the middle word sound more like the first word (A) or the last word (B)?</p> <br> <div class=""container""> <div id=""a-box""> <p class=""title-text"">A</h3></p> </div> <div id=""x-box""> <p class=""title-text"">X<p> </div> <div id=""b-box""> <p class=""title-text"">B</p></div> <br> <div style='float: left;padding-left:30px;'><p>Press '1' for A</p></div><div style='float: right;padding-right:30px;'><p>Press '0' for B</p> </div> </div></div>","null","","","","","","","","","","","","","",""
"2632","","test","audio-keyboard-response","118","401103","0.0-8.0-1.45","5e916cb9e502b1498e8fc059","condB","","resources/audio/wordStim/S9_AU_13_bxa_Step-9.wav","49","","","","","AU","resources/audio/wordStim/S9_AU_13_bxa_Step-9.wav","S9","13","bxa","9","CN","1","1","true"
"null","","fixation","html-keyboard-response","119","402106","0.0-8.0-0.46","5e916cb9e502b1498e8fc059","condB","","<div class=""vertical-center"" style='width:60%;'><p style='font-weight:bold;'>Does the middle word sound more like the first word (A) or the last word (B)?</p> <br> <div class=""container""> <div id=""a-box""> <p class=""title-text"">A</h3></p> </div> <div id=""x-box""> <p class=""title-text"">X<p> </div> <div id=""b-box""> <p class=""title-text"">B</p></div> <br> <div style='float: left;padding-left:30px;'><p>Press '1' for A</p></div><div style='float: right;padding-right:30px;'><p>Press '0' for B</p> </div> </div></div>","null","","","","","","","","","","","","","",""
"3168","","test","audio-keyboard-response","120","405273","0.0-8.0-1.46","5e916cb9e502b1498e8fc059","condB","","resources/audio/wordStim/S9_AI_27_axb_Step-6.wav","49","","","","","AI","resources/audio/wordStim/S9_AI_27_axb_Step-6.wav","S9","27","axb","6","CN","0","1","false"
"null","","fixation","html-keyboard-response","121","406277","0.0-8.0-0.47","5e916cb9e502b1498e8fc059","condB","","<div class=""vertical-center"" style='width:60%;'><p style='font-weight:bold;'>Does the middle word sound more like the first word (A) or the last word (B)?</p> <br> <div class=""container""> <div id=""a-box""> <p class=""title-text"">A</h3></p> </div> <div id=""x-box""> <p class=""title-text"">X<p> </div> <div id=""b-box""> <p class=""title-text"">B</p></div> <br> <div style='float: left;padding-left:30px;'><p>Press '1' for A</p></div><div style='float: right;padding-right:30px;'><p>Press '0' for B</p> </div> </div></div>","null","","","","","","","","","","","","","",""
"2672","","test","audio-keyboard-response","122","408945","0.0-8.0-1.47","5e916cb9e502b1498e8fc059","condB","","resources/audio/wordStim/S9_AU_20_axb_Step-8.wav","49","","","","","AU","resources/audio/wordStim/S9_AU_20_axb_Step-8.wav","S9","20","axb","8","CN","0","1","false"
"null","","fixation","html-keyboard-response","123","409949","0.0-8.0-0.48","5e916cb9e502b1498e8fc059","condB","","<div class=""vertical-center"" style='width:60%;'><p style='font-weight:bold;'>Does the middle word sound more like the first word (A) or the last word (B)?</p> <br> <div class=""container""> <div id=""a-box""> <p class=""title-text"">A</h3></p> </div> <div id=""x-box""> <p class=""title-text"">X<p> </div> <div id=""b-box""> <p class=""title-text"">B</p></div> <br> <div style='float: left;padding-left:30px;'><p>Press '1' for A</p></div><div style='float: right;padding-right:30px;'><p>Press '0' for B</p> </div> </div></div>","null","","","","","","","","","","","","","",""
"3128","","test","audio-keyboard-response","124","413072","0.0-8.0-1.48","5e916cb9e502b1498e8fc059","condB","","resources/audio/wordStim/S3_AI_23_bxa_Step-5.wav","49","","","","","AI","resources/audio/wordStim/S3_AI_23_bxa_Step-5.wav","S3","23","bxa","5","MI","1","1","true"
"null","","fixation","html-keyboard-response","125","414076","0.0-8.0-0.49","5e916cb9e502b1498e8fc059","condB","","<div class=""vertical-center"" style='width:60%;'><p style='font-weight:bold;'>Does the middle word sound more like the first word (A) or the last word (B)?</p> <br> <div class=""container""> <div id=""a-box""> <p class=""title-text"">A</h3></p> </div> <div id=""x-box""> <p class=""title-text"">X<p> </div> <div id=""b-box""> <p class=""title-text"">B</p></div> <br> <div style='float: left;padding-left:30px;'><p>Press '1' for A</p></div><div style='float: right;padding-right:30px;'><p>Press '0' for B</p> </div> </div></div>","null","","","","","","","","","","","","","",""
"2840","","test","audio-keyboard-response","126","416918","0.0-8.0-1.49","5e916cb9e502b1498e8fc059","condB","","resources/audio/wordStim/S3_AU_18_axb_Step-4.wav","49","","","","","AU","resources/audio/wordStim/S3_AU_18_axb_Step-4.wav","S3","18","axb","4","MI","0","1","false"
"null","","fixation","html-keyboard-response","127","417920","0.0-8.0-0.50","5e916cb9e502b1498e8fc059","condB","","<div class=""vertical-center"" style='width:60%;'><p style='font-weight:bold;'>Does the middle word sound more like the first word (A) or the last word (B)?</p> <br> <div class=""container""> <div id=""a-box""> <p class=""title-text"">A</h3></p> </div> <div id=""x-box""> <p class=""title-text"">X<p> </div> <div id=""b-box""> <p class=""title-text"">B</p></div> <br> <div style='float: left;padding-left:30px;'><p>Press '1' for A</p></div><div style='float: right;padding-right:30px;'><p>Press '0' for B</p> </div> </div></div>","null","","","","","","","","","","","","","",""
"2232","","test","audio-keyboard-response","128","420151","0.0-8.0-1.50","5e916cb9e502b1498e8fc059","condB","","resources/audio/wordStim/S3_AI_25_bxa_Step-10.wav","49","","","","","AI","resources/audio/wordStim/S3_AI_25_bxa_Step-10.wav","S3","25","bxa","10","MI","1","1","true"
"null","","fixation","html-keyboard-response","129","421154","0.0-8.0-0.51","5e916cb9e502b1498e8fc059","condB","","<div class=""vertical-center"" style='width:60%;'><p style='font-weight:bold;'>Does the middle word sound more like the first word (A) or the last word (B)?</p> <br> <div class=""container""> <div id=""a-box""> <p class=""title-text"">A</h3></p> </div> <div id=""x-box""> <p class=""title-text"">X<p> </div> <div id=""b-box""> <p class=""title-text"">B</p></div> <br> <div style='float: left;padding-left:30px;'><p>Press '1' for A</p></div><div style='float: right;padding-right:30px;'><p>Press '0' for B</p> </div> </div></div>","null","","","","","","","","","","","","","",""
"4741","","test","audio-keyboard-response","130","425896","0.0-8.0-1.51","5e916cb9e502b1498e8fc059","condB","","resources/audio/wordStim/S9_AU_17_bxa_Step-9.wav","48","","","","","AU","resources/audio/wordStim/S9_AU_17_bxa_Step-9.wav","S9","17","bxa","9","CN","1","0","false"
"null","","fixation","html-keyboard-response","131","426900","0.0-8.0-0.52","5e916cb9e502b1498e8fc059","condB","","<div class=""vertical-center"" style='width:60%;'><p style='font-weight:bold;'>Does the middle word sound more like the first word (A) or the last word (B)?</p> <br> <div class=""container""> <div id=""a-box""> <p class=""title-text"">A</h3></p> </div> <div id=""x-box""> <p class=""title-text"">X<p> </div> <div id=""b-box""> <p class=""title-text"">B</p></div> <br> <div style='float: left;padding-left:30px;'><p>Press '1' for A</p></div><div style='float: right;padding-right:30px;'><p>Press '0' for B</p> </div> </div></div>","null","","","","","","","","","","","","","",""
"6229","","test","audio-keyboard-response","132","433135","0.0-8.0-1.52","5e916cb9e502b1498e8fc059","condB","","resources/audio/wordStim/S9_AU_19_axb_Step-6.wav","48","","","","","AU","resources/audio/wordStim/S9_AU_19_axb_Step-6.wav","S9","19","axb","6","CN","0","0","true"
"null","","fixation","html-keyboard-response","133","434138","0.0-8.0-0.53","5e916cb9e502b1498e8fc059","condB","","<div class=""vertical-center"" style='width:60%;'><p style='font-weight:bold;'>Does the middle word sound more like the first word (A) or the last word (B)?</p> <br> <div class=""container""> <div id=""a-box""> <p class=""title-text"">A</h3></p> </div> <div id=""x-box""> <p class=""title-text"">X<p> </div> <div id=""b-box""> <p class=""title-text"">B</p></div> <br> <div style='float: left;padding-left:30px;'><p>Press '1' for A</p></div><div style='float: right;padding-right:30px;'><p>Press '0' for B</p> </div> </div></div>","null","","","","","","","","","","","","","",""
"2819","","test","audio-keyboard-response","134","436952","0.0-8.0-1.53","5e916cb9e502b1498e8fc059","condB","","resources/audio/wordStim/S3_AI_23_axb_Step-2.wav","49","","","","","AI","resources/audio/wordStim/S3_AI_23_axb_Step-2.wav","S3","23","axb","2","MI","0","1","false"
"2128.130000026431","","break","html-keyboard-response","135","439583","0.0-8.0-2.53-0.53","5e916cb9e502b1498e8fc059","condB","","<div class=""vertical-center""><p>Feel free to take a break!</p><i>When you're ready to continue, press SPACE to begin the next trial.</i></p></div>","32","","","","","","","","","","","","","",""
"null","","fixation","html-keyboard-response","136","440085","0.0-8.0-0.54","5e916cb9e502b1498e8fc059","condB","","<div class=""vertical-center"" style='width:60%;'><p style='font-weight:bold;'>Does the middle word sound more like the first word (A) or the last word (B)?</p> <br> <div class=""container""> <div id=""a-box""> <p class=""title-text"">A</h3></p> </div> <div id=""x-box""> <p class=""title-text"">X<p> </div> <div id=""b-box""> <p class=""title-text"">B</p></div> <br> <div style='float: left;padding-left:30px;'><p>Press '1' for A</p></div><div style='float: right;padding-right:30px;'><p>Press '0' for B</p> </div> </div></div>","null","","","","","","","","","","","","","",""
"2349","","test","audio-keyboard-response","137","442439","0.0-8.0-1.54","5e916cb9e502b1498e8fc059","condB","","resources/audio/wordStim/S3_AU_20_bxa_Step-9.wav","49","","","","","AU","resources/audio/wordStim/S3_AU_20_bxa_Step-9.wav","S3","20","bxa","9","MI","1","1","true"
"null","","fixation","html-keyboard-response","138","443442","0.0-8.0-0.55","5e916cb9e502b1498e8fc059","condB","","<div class=""vertical-center"" style='width:60%;'><p style='font-weight:bold;'>Does the middle word sound more like the first word (A) or the last word (B)?</p> <br> <div class=""container""> <div id=""a-box""> <p class=""title-text"">A</h3></p> </div> <div id=""x-box""> <p class=""title-text"">X<p> </div> <div id=""b-box""> <p class=""title-text"">B</p></div> <br> <div style='float: left;padding-left:30px;'><p>Press '1' for A</p></div><div style='float: right;padding-right:30px;'><p>Press '0' for B</p> </div> </div></div>","null","","","","","","","","","","","","","",""
"3291","","test","audio-keyboard-response","139","446737","0.0-8.0-1.55","5e916cb9e502b1498e8fc059","condB","","resources/audio/wordStim/S3_AU_16_axb_Step-8.wav","49","","","","","AU","resources/audio/wordStim/S3_AU_16_axb_Step-8.wav","S3","16","axb","8","MI","0","1","false"
"null","","fixation","html-keyboard-response","140","447741","0.0-8.0-0.56","5e916cb9e502b1498e8fc059","condB","","<div class=""vertical-center"" style='width:60%;'><p style='font-weight:bold;'>Does the middle word sound more like the first word (A) or the last word (B)?</p> <br> <div class=""container""> <div id=""a-box""> <p class=""title-text"">A</h3></p> </div> <div id=""x-box""> <p class=""title-text"">X<p> </div> <div id=""b-box""> <p class=""title-text"">B</p></div> <br> <div style='float: left;padding-left:30px;'><p>Press '1' for A</p></div><div style='float: right;padding-right:30px;'><p>Press '0' for B</p> </div> </div></div>","null","","","","","","","","","","","","","",""
"3000","","test","audio-keyboard-response","141","450750","0.0-8.0-1.56","5e916cb9e502b1498e8fc059","condB","","resources/audio/wordStim/S9_AI_22_bxa_Step-10.wav","49","","","","","AI","resources/audio/wordStim/S9_AI_22_bxa_Step-10.wav","S9","22","bxa","10","CN","1","1","true"
"null","","fixation","html-keyboard-response","142","451753","0.0-8.0-0.57","5e916cb9e502b1498e8fc059","condB","","<div class=""vertical-center"" style='width:60%;'><p style='font-weight:bold;'>Does the middle word sound more like the first word (A) or the last word (B)?</p> <br> <div class=""container""> <div id=""a-box""> <p class=""title-text"">A</h3></p> </div> <div id=""x-box""> <p class=""title-text"">X<p> </div> <div id=""b-box""> <p class=""title-text"">B</p></div> <br> <div style='float: left;padding-left:30px;'><p>Press '1' for A</p></div><div style='float: right;padding-right:30px;'><p>Press '0' for B</p> </div> </div></div>","null","","","","","","","","","","","","","",""
"2752","","test","audio-keyboard-response","143","454512","0.0-8.0-1.57","5e916cb9e502b1498e8fc059","condB","","resources/audio/wordStim/S3_AI_28_bxa_Step-5.wav","49","","","","","AI","resources/audio/wordStim/S3_AI_28_bxa_Step-5.wav","S3","28","bxa","5","MI","1","1","true"
"null","","fixation","html-keyboard-response","144","455514","0.0-8.0-0.58","5e916cb9e502b1498e8fc059","condB","","<div class=""vertical-center"" style='width:60%;'><p style='font-weight:bold;'>Does the middle word sound more like the first word (A) or the last word (B)?</p> <br> <div class=""container""> <div id=""a-box""> <p class=""title-text"">A</h3></p> </div> <div id=""x-box""> <p class=""title-text"">X<p> </div> <div id=""b-box""> <p class=""title-text"">B</p></div> <br> <div style='float: left;padding-left:30px;'><p>Press '1' for A</p></div><div style='float: right;padding-right:30px;'><p>Press '0' for B</p> </div> </div></div>","null","","","","","","","","","","","","","",""
"2621","","test","audio-keyboard-response","145","458135","0.0-8.0-1.58","5e916cb9e502b1498e8fc059","condB","","resources/audio/wordStim/S3_AI_30_axb_Step-8.wav","49","","","","","AI","resources/audio/wordStim/S3_AI_30_axb_Step-8.wav","S3","30","axb","8","MI","0","1","false"
"null","","fixation","html-keyboard-response","146","459140","0.0-8.0-0.59","5e916cb9e502b1498e8fc059","condB","","<div class=""vertical-center"" style='width:60%;'><p style='font-weight:bold;'>Does the middle word sound more like the first word (A) or the last word (B)?</p> <br> <div class=""container""> <div id=""a-box""> <p class=""title-text"">A</h3></p> </div> <div id=""x-box""> <p class=""title-text"">X<p> </div> <div id=""b-box""> <p class=""title-text"">B</p></div> <br> <div style='float: left;padding-left:30px;'><p>Press '1' for A</p></div><div style='float: right;padding-right:30px;'><p>Press '0' for B</p> </div> </div></div>","null","","","","","","","","","","","","","",""
"3651","","test","audio-keyboard-response","147","462782","0.0-8.0-1.59","5e916cb9e502b1498e8fc059","condB","","resources/audio/wordStim/S3_AI_22_bxa_Step-7.wav","48","","","","","AI","resources/audio/wordStim/S3_AI_22_bxa_Step-7.wav","S3","22","bxa","7","MI","1","0","false"
"null","","fixation","html-keyboard-response","148","463784","0.0-8.0-0.60","5e916cb9e502b1498e8fc059","condB","","<div class=""vertical-center"" style='width:60%;'><p style='font-weight:bold;'>Does the middle word sound more like the first word (A) or the last word (B)?</p> <br> <div class=""container""> <div id=""a-box""> <p class=""title-text"">A</h3></p> </div> <div id=""x-box""> <p class=""title-text"">X<p> </div> <div id=""b-box""> <p class=""title-text"">B</p></div> <br> <div style='float: left;padding-left:30px;'><p>Press '1' for A</p></div><div style='float: right;padding-right:30px;'><p>Press '0' for B</p> </div> </div></div>","null","","","","","","","","","","","","","",""
"3720","","test","audio-keyboard-response","149","467510","0.0-8.0-1.60","5e916cb9e502b1498e8fc059","condB","","resources/audio/wordStim/S9_AI_30_bxa_Step-3.wav","49","","","","","AI","resources/audio/wordStim/S9_AI_30_bxa_Step-3.wav","S9","30","bxa","3","CN","1","1","true"
"null","","fixation","html-keyboard-response","150","468514","0.0-8.0-0.61","5e916cb9e502b1498e8fc059","condB","","<div class=""vertical-center"" style='width:60%;'><p style='font-weight:bold;'>Does the middle word sound more like the first word (A) or the last word (B)?</p> <br> <div class=""container""> <div id=""a-box""> <p class=""title-text"">A</h3></p> </div> <div id=""x-box""> <p class=""title-text"">X<p> </div> <div id=""b-box""> <p class=""title-text"">B</p></div> <br> <div style='float: left;padding-left:30px;'><p>Press '1' for A</p></div><div style='float: right;padding-right:30px;'><p>Press '0' for B</p> </div> </div></div>","null","","","","","","","","","","","","","",""
"2691","","test","audio-keyboard-response","151","471209","0.0-8.0-1.61","5e916cb9e502b1498e8fc059","condB","","resources/audio/wordStim/S3_AI_25_axb_Step-6.wav","49","","","","","AI","resources/audio/wordStim/S3_AI_25_axb_Step-6.wav","S3","25","axb","6","MI","0","1","false"
"null","","fixation","html-keyboard-response","152","472213","0.0-8.0-0.62","5e916cb9e502b1498e8fc059","condB","","<div class=""vertical-center"" style='width:60%;'><p style='font-weight:bold;'>Does the middle word sound more like the first word (A) or the last word (B)?</p> <br> <div class=""container""> <div id=""a-box""> <p class=""title-text"">A</h3></p> </div> <div id=""x-box""> <p class=""title-text"">X<p> </div> <div id=""b-box""> <p class=""title-text"">B</p></div> <br> <div style='float: left;padding-left:30px;'><p>Press '1' for A</p></div><div style='float: right;padding-right:30px;'><p>Press '0' for B</p> </div> </div></div>","null","","","","","","","","","","","","","",""
"2571","","test","audio-keyboard-response","153","474783","0.0-8.0-1.62","5e916cb9e502b1498e8fc059","condB","","resources/audio/wordStim/S3_AI_23_bxa_Step-3.wav","49","","","","","AI","resources/audio/wordStim/S3_AI_23_bxa_Step-3.wav","S3","23","bxa","3","MI","1","1","true"
"null","","fixation","html-keyboard-response","154","475788","0.0-8.0-0.63","5e916cb9e502b1498e8fc059","condB","","<div class=""vertical-center"" style='width:60%;'><p style='font-weight:bold;'>Does the middle word sound more like the first word (A) or the last word (B)?</p> <br> <div class=""container""> <div id=""a-box""> <p class=""title-text"">A</h3></p> </div> <div id=""x-box""> <p class=""title-text"">X<p> </div> <div id=""b-box""> <p class=""title-text"">B</p></div> <br> <div style='float: left;padding-left:30px;'><p>Press '1' for A</p></div><div style='float: right;padding-right:30px;'><p>Press '0' for B</p> </div> </div></div>","null","","","","","","","","","","","","","",""
"2488","","test","audio-keyboard-response","155","478280","0.0-8.0-1.63","5e916cb9e502b1498e8fc059","condB","","resources/audio/wordStim/S3_AU_14_axb_Step-2.wav","49","","","","","AU","resources/audio/wordStim/S3_AU_14_axb_Step-2.wav","S3","14","axb","2","MI","0","1","false"
"null","","fixation","html-keyboard-response","156","479284","0.0-8.0-0.64","5e916cb9e502b1498e8fc059","condB","","<div class=""vertical-center"" style='width:60%;'><p style='font-weight:bold;'>Does the middle word sound more like the first word (A) or the last word (B)?</p> <br> <div class=""container""> <div id=""a-box""> <p class=""title-text"">A</h3></p> </div> <div id=""x-box""> <p class=""title-text"">X<p> </div> <div id=""b-box""> <p class=""title-text"">B</p></div> <br> <div style='float: left;padding-left:30px;'><p>Press '1' for A</p></div><div style='float: right;padding-right:30px;'><p>Press '0' for B</p> </div> </div></div>","null","","","","","","","","","","","","","",""
"3520","","test","audio-keyboard-response","157","482808","0.0-8.0-1.64","5e916cb9e502b1498e8fc059","condB","","resources/audio/wordStim/S9_AI_29_bxa_Step-10.wav","49","","","","","AI","resources/audio/wordStim/S9_AI_29_bxa_Step-10.wav","S9","29","bxa","10","CN","1","1","true"
"null","","fixation","html-keyboard-response","158","483811","0.0-8.0-0.65","5e916cb9e502b1498e8fc059","condB","","<div class=""vertical-center"" style='width:60%;'><p style='font-weight:bold;'>Does the middle word sound more like the first word (A) or the last word (B)?</p> <br> <div class=""container""> <div id=""a-box""> <p class=""title-text"">A</h3></p> </div> <div id=""x-box""> <p class=""title-text"">X<p> </div> <div id=""b-box""> <p class=""title-text"">B</p></div> <br> <div style='float: left;padding-left:30px;'><p>Press '1' for A</p></div><div style='float: right;padding-right:30px;'><p>Press '0' for B</p> </div> </div></div>","null","","","","","","","","","","","","","",""
"3621","","test","audio-keyboard-response","159","487431","0.0-8.0-1.65","5e916cb9e502b1498e8fc059","condB","","resources/audio/wordStim/S3_AU_17_bxa_Step-10.wav","49","","","","","AU","resources/audio/wordStim/S3_AU_17_bxa_Step-10.wav","S3","17","bxa","10","MI","1","1","true"
"null","","fixation","html-keyboard-response","160","488433","0.0-8.0-0.66","5e916cb9e502b1498e8fc059","condB","","<div class=""vertical-center"" style='width:60%;'><p style='font-weight:bold;'>Does the middle word sound more like the first word (A) or the last word (B)?</p> <br> <div class=""container""> <div id=""a-box""> <p class=""title-text"">A</h3></p> </div> <div id=""x-box""> <p class=""title-text"">X<p> </div> <div id=""b-box""> <p class=""title-text"">B</p></div> <br> <div style='float: left;padding-left:30px;'><p>Press '1' for A</p></div><div style='float: right;padding-right:30px;'><p>Press '0' for B</p> </div> </div></div>","null","","","","","","","","","","","","","",""
"3400","","test","audio-keyboard-response","161","491841","0.0-8.0-1.66","5e916cb9e502b1498e8fc059","condB","","resources/audio/wordStim/S3_AU_16_axb_Step-6.wav","49","","","","","AU","resources/audio/wordStim/S3_AU_16_axb_Step-6.wav","S3","16","axb","6","MI","0","1","false"
"null","","fixation","html-keyboard-response","162","492843","0.0-8.0-0.67","5e916cb9e502b1498e8fc059","condB","","<div class=""vertical-center"" style='width:60%;'><p style='font-weight:bold;'>Does the middle word sound more like the first word (A) or the last word (B)?</p> <br> <div class=""container""> <div id=""a-box""> <p class=""title-text"">A</h3></p> </div> <div id=""x-box""> <p class=""title-text"">X<p> </div> <div id=""b-box""> <p class=""title-text"">B</p></div> <br> <div style='float: left;padding-left:30px;'><p>Press '1' for A</p></div><div style='float: right;padding-right:30px;'><p>Press '0' for B</p> </div> </div></div>","null","","","","","","","","","","","","","",""
"2880","","test","audio-keyboard-response","163","495729","0.0-8.0-1.67","5e916cb9e502b1498e8fc059","condB","","resources/audio/wordStim/S9_AU_14_axb_Step-2.wav","49","","","","","AU","resources/audio/wordStim/S9_AU_14_axb_Step-2.wav","S9","14","axb","2","CN","0","1","false"
"null","","fixation","html-keyboard-response","164","496737","0.0-8.0-0.68","5e916cb9e502b1498e8fc059","condB","","<div class=""vertical-center"" style='width:60%;'><p style='font-weight:bold;'>Does the middle word sound more like the first word (A) or the last word (B)?</p> <br> <div class=""container""> <div id=""a-box""> <p class=""title-text"">A</h3></p> </div> <div id=""x-box""> <p class=""title-text"">X<p> </div> <div id=""b-box""> <p class=""title-text"">B</p></div> <br> <div style='float: left;padding-left:30px;'><p>Press '1' for A</p></div><div style='float: right;padding-right:30px;'><p>Press '0' for B</p> </div> </div></div>","null","","","","","","","","","","","","","",""
"3019","","test","audio-keyboard-response","165","499761","0.0-8.0-1.68","5e916cb9e502b1498e8fc059","condB","","resources/audio/wordStim/S3_AU_20_axb_Step-6.wav","49","","","","","AU","resources/audio/wordStim/S3_AU_20_axb_Step-6.wav","S3","20","axb","6","MI","0","1","false"
"null","","fixation","html-keyboard-response","166","500764","0.0-8.0-0.69","5e916cb9e502b1498e8fc059","condB","","<div class=""vertical-center"" style='width:60%;'><p style='font-weight:bold;'>Does the middle word sound more like the first word (A) or the last word (B)?</p> <br> <div class=""container""> <div id=""a-box""> <p class=""title-text"">A</h3></p> </div> <div id=""x-box""> <p class=""title-text"">X<p> </div> <div id=""b-box""> <p class=""title-text"">B</p></div> <br> <div style='float: left;padding-left:30px;'><p>Press '1' for A</p></div><div style='float: right;padding-right:30px;'><p>Press '0' for B</p> </div> </div></div>","null","","","","","","","","","","","","","",""
"2349","","test","audio-keyboard-response","167","503113","0.0-8.0-1.69","5e916cb9e502b1498e8fc059","condB","","resources/audio/wordStim/S3_AU_20_axb_Step-4.wav","49","","","","","AU","resources/audio/wordStim/S3_AU_20_axb_Step-4.wav","S3","20","axb","4","MI","0","1","false"
"null","","fixation","html-keyboard-response","168","504115","0.0-8.0-0.70","5e916cb9e502b1498e8fc059","condB","","<div class=""vertical-center"" style='width:60%;'><p style='font-weight:bold;'>Does the middle word sound more like the first word (A) or the last word (B)?</p> <br> <div class=""container""> <div id=""a-box""> <p class=""title-text"">A</h3></p> </div> <div id=""x-box""> <p class=""title-text"">X<p> </div> <div id=""b-box""> <p class=""title-text"">B</p></div> <br> <div style='float: left;padding-left:30px;'><p>Press '1' for A</p></div><div style='float: right;padding-right:30px;'><p>Press '0' for B</p> </div> </div></div>","null","","","","","","","","","","","","","",""
"3160","","test","audio-keyboard-response","169","507281","0.0-8.0-1.70","5e916cb9e502b1498e8fc059","condB","","resources/audio/wordStim/S3_AI_22_bxa_Step-9.wav","49","","","","","AI","resources/audio/wordStim/S3_AI_22_bxa_Step-9.wav","S3","22","bxa","9","MI","1","1","true"
"null","","fixation","html-keyboard-response","170","508284","0.0-8.0-0.71","5e916cb9e502b1498e8fc059","condB","","<div class=""vertical-center"" style='width:60%;'><p style='font-weight:bold;'>Does the middle word sound more like the first word (A) or the last word (B)?</p> <br> <div class=""container""> <div id=""a-box""> <p class=""title-text"">A</h3></p> </div> <div id=""x-box""> <p class=""title-text"">X<p> </div> <div id=""b-box""> <p class=""title-text"">B</p></div> <br> <div style='float: left;padding-left:30px;'><p>Press '1' for A</p></div><div style='float: right;padding-right:30px;'><p>Press '0' for B</p> </div> </div></div>","null","","","","","","","","","","","","","",""
"2461","","test","audio-keyboard-response","171","510744","0.0-8.0-1.71","5e916cb9e502b1498e8fc059","condB","","resources/audio/wordStim/S9_AI_27_bxa_Step-7.wav","49","","","","","AI","resources/audio/wordStim/S9_AI_27_bxa_Step-7.wav","S9","27","bxa","7","CN","1","1","true"
"null","","fixation","html-keyboard-response","172","511747","0.0-8.0-0.72","5e916cb9e502b1498e8fc059","condB","","<div class=""vertical-center"" style='width:60%;'><p style='font-weight:bold;'>Does the middle word sound more like the first word (A) or the last word (B)?</p> <br> <div class=""container""> <div id=""a-box""> <p class=""title-text"">A</h3></p> </div> <div id=""x-box""> <p class=""title-text"">X<p> </div> <div id=""b-box""> <p class=""title-text"">B</p></div> <br> <div style='float: left;padding-left:30px;'><p>Press '1' for A</p></div><div style='float: right;padding-right:30px;'><p>Press '0' for B</p> </div> </div></div>","null","","","","","","","","","","","","","",""
"3379","","test","audio-keyboard-response","173","515129","0.0-8.0-1.72","5e916cb9e502b1498e8fc059","condB","","resources/audio/wordStim/S9_AI_22_bxa_Step-9.wav","49","","","","","AI","resources/audio/wordStim/S9_AI_22_bxa_Step-9.wav","S9","22","bxa","9","CN","1","1","true"
"null","","fixation","html-keyboard-response","174","516133","0.0-8.0-0.73","5e916cb9e502b1498e8fc059","condB","","<div class=""vertical-center"" style='width:60%;'><p style='font-weight:bold;'>Does the middle word sound more like the first word (A) or the last word (B)?</p> <br> <div class=""container""> <div id=""a-box""> <p class=""title-text"">A</h3></p> </div> <div id=""x-box""> <p class=""title-text"">X<p> </div> <div id=""b-box""> <p class=""title-text"">B</p></div> <br> <div style='float: left;padding-left:30px;'><p>Press '1' for A</p></div><div style='float: right;padding-right:30px;'><p>Press '0' for B</p> </div> </div></div>","null","","","","","","","","","","","","","",""
"3691","","test","audio-keyboard-response","175","519823","0.0-8.0-1.73","5e916cb9e502b1498e8fc059","condB","","resources/audio/wordStim/S3_AU_20_bxa_Step-10.wav","49","","","","","AU","resources/audio/wordStim/S3_AU_20_bxa_Step-10.wav","S3","20","bxa","10","MI","1","1","true"
"null","","fixation","html-keyboard-response","176","520826","0.0-8.0-0.74","5e916cb9e502b1498e8fc059","condB","","<div class=""vertical-center"" style='width:60%;'><p style='font-weight:bold;'>Does the middle word sound more like the first word (A) or the last word (B)?</p> <br> <div class=""container""> <div id=""a-box""> <p class=""title-text"">A</h3></p> </div> <div id=""x-box""> <p class=""title-text"">X<p> </div> <div id=""b-box""> <p class=""title-text"">B</p></div> <br> <div style='float: left;padding-left:30px;'><p>Press '1' for A</p></div><div style='float: right;padding-right:30px;'><p>Press '0' for B</p> </div> </div></div>","null","","","","","","","","","","","","","",""
"2568","","test","audio-keyboard-response","177","523392","0.0-8.0-1.74","5e916cb9e502b1498e8fc059","condB","","resources/audio/wordStim/S3_AU_15_bxa_Step-7.wav","48","","","","","AU","resources/audio/wordStim/S3_AU_15_bxa_Step-7.wav","S3","15","bxa","7","MI","1","0","false"
"null","","fixation","html-keyboard-response","178","524395","0.0-8.0-0.75","5e916cb9e502b1498e8fc059","condB","","<div class=""vertical-center"" style='width:60%;'><p style='font-weight:bold;'>Does the middle word sound more like the first word (A) or the last word (B)?</p> <br> <div class=""container""> <div id=""a-box""> <p class=""title-text"">A</h3></p> </div> <div id=""x-box""> <p class=""title-text"">X<p> </div> <div id=""b-box""> <p class=""title-text"">B</p></div> <br> <div style='float: left;padding-left:30px;'><p>Press '1' for A</p></div><div style='float: right;padding-right:30px;'><p>Press '0' for B</p> </div> </div></div>","null","","","","","","","","","","","","","",""
"3501","","test","audio-keyboard-response","179","527897","0.0-8.0-1.75","5e916cb9e502b1498e8fc059","condB","","resources/audio/wordStim/S3_AU_17_axb_Step-4.wav","48","","","","","AU","resources/audio/wordStim/S3_AU_17_axb_Step-4.wav","S3","17","axb","4","MI","0","0","true"
"null","","fixation","html-keyboard-response","180","528900","0.0-8.0-0.76","5e916cb9e502b1498e8fc059","condB","","<div class=""vertical-center"" style='width:60%;'><p style='font-weight:bold;'>Does the middle word sound more like the first word (A) or the last word (B)?</p> <br> <div class=""container""> <div id=""a-box""> <p class=""title-text"">A</h3></p> </div> <div id=""x-box""> <p class=""title-text"">X<p> </div> <div id=""b-box""> <p class=""title-text"">B</p></div> <br> <div style='float: left;padding-left:30px;'><p>Press '1' for A</p></div><div style='float: right;padding-right:30px;'><p>Press '0' for B</p> </div> </div></div>","null","","","","","","","","","","","","","",""
"2640","","test","audio-keyboard-response","181","531551","0.0-8.0-1.76","5e916cb9e502b1498e8fc059","condB","","resources/audio/wordStim/S9_AU_19_axb_Step-2.wav","49","","","","","AU","resources/audio/wordStim/S9_AU_19_axb_Step-2.wav","S9","19","axb","2","CN","0","1","false"
"null","","fixation","html-keyboard-response","182","532555","0.0-8.0-0.77","5e916cb9e502b1498e8fc059","condB","","<div class=""vertical-center"" style='width:60%;'><p style='font-weight:bold;'>Does the middle word sound more like the first word (A) or the last word (B)?</p> <br> <div class=""container""> <div id=""a-box""> <p class=""title-text"">A</h3></p> </div> <div id=""x-box""> <p class=""title-text"">X<p> </div> <div id=""b-box""> <p class=""title-text"">B</p></div> <br> <div style='float: left;padding-left:30px;'><p>Press '1' for A</p></div><div style='float: right;padding-right:30px;'><p>Press '0' for B</p> </div> </div></div>","null","","","","","","","","","","","","","",""
"3080","","test","audio-keyboard-response","183","535633","0.0-8.0-1.77","5e916cb9e502b1498e8fc059","condB","","resources/audio/wordStim/S9_AI_29_axb_Step-6.wav","49","","","","","AI","resources/audio/wordStim/S9_AI_29_axb_Step-6.wav","S9","29","axb","6","CN","0","1","false"
"null","","fixation","html-keyboard-response","184","536638","0.0-8.0-0.78","5e916cb9e502b1498e8fc059","condB","","<div class=""vertical-center"" style='width:60%;'><p style='font-weight:bold;'>Does the middle word sound more like the first word (A) or the last word (B)?</p> <br> <div class=""container""> <div id=""a-box""> <p class=""title-text"">A</h3></p> </div> <div id=""x-box""> <p class=""title-text"">X<p> </div> <div id=""b-box""> <p class=""title-text"">B</p></div> <br> <div style='float: left;padding-left:30px;'><p>Press '1' for A</p></div><div style='float: right;padding-right:30px;'><p>Press '0' for B</p> </div> </div></div>","null","","","","","","","","","","","","","",""
"2971","","test","audio-keyboard-response","185","539607","0.0-8.0-1.78","5e916cb9e502b1498e8fc059","condB","","resources/audio/wordStim/S9_AU_11_axb_Step-2.wav","49","","","","","AU","resources/audio/wordStim/S9_AU_11_axb_Step-2.wav","S9","11","axb","2","CN","0","1","false"
"null","","fixation","html-keyboard-response","186","540610","0.0-8.0-0.79","5e916cb9e502b1498e8fc059","condB","","<div class=""vertical-center"" style='width:60%;'><p style='font-weight:bold;'>Does the middle word sound more like the first word (A) or the last word (B)?</p> <br> <div class=""container""> <div id=""a-box""> <p class=""title-text"">A</h3></p> </div> <div id=""x-box""> <p class=""title-text"">X<p> </div> <div id=""b-box""> <p class=""title-text"">B</p></div> <br> <div style='float: left;padding-left:30px;'><p>Press '1' for A</p></div><div style='float: right;padding-right:30px;'><p>Press '0' for B</p> </div> </div></div>","null","","","","","","","","","","","","","",""
"3069","","test","audio-keyboard-response","187","543673","0.0-8.0-1.79","5e916cb9e502b1498e8fc059","condB","","resources/audio/wordStim/S9_AI_22_bxa_Step-3.wav","49","","","","","AI","resources/audio/wordStim/S9_AI_22_bxa_Step-3.wav","S9","22","bxa","3","CN","1","1","true"
"null","","fixation","html-keyboard-response","188","544679","0.0-8.0-0.80","5e916cb9e502b1498e8fc059","condB","","<div class=""vertical-center"" style='width:60%;'><p style='font-weight:bold;'>Does the middle word sound more like the first word (A) or the last word (B)?</p> <br> <div class=""container""> <div id=""a-box""> <p class=""title-text"">A</h3></p> </div> <div id=""x-box""> <p class=""title-text"">X<p> </div> <div id=""b-box""> <p class=""title-text"">B</p></div> <br> <div style='float: left;padding-left:30px;'><p>Press '1' for A</p></div><div style='float: right;padding-right:30px;'><p>Press '0' for B</p> </div> </div></div>","null","","","","","","","","","","","","","",""
"2680","","test","audio-keyboard-response","189","547361","0.0-8.0-1.80","5e916cb9e502b1498e8fc059","condB","","resources/audio/wordStim/S9_AU_14_bxa_Step-5.wav","49","","","","","AU","resources/audio/wordStim/S9_AU_14_bxa_Step-5.wav","S9","14","bxa","5","CN","1","1","true"
"2072.6650000433438","","break","html-keyboard-response","190","549936","0.0-8.0-2.80-0.80","5e916cb9e502b1498e8fc059","condB","","<div class=""vertical-center""><p>Feel free to take a break!</p><i>When you're ready to continue, press SPACE to begin the next trial.</i></p></div>","32","","","","","","","","","","","","","",""
"null","","fixation","html-keyboard-response","191","550440","0.0-8.0-0.81","5e916cb9e502b1498e8fc059","condB","","<div class=""vertical-center"" style='width:60%;'><p style='font-weight:bold;'>Does the middle word sound more like the first word (A) or the last word (B)?</p> <br> <div class=""container""> <div id=""a-box""> <p class=""title-text"">A</h3></p> </div> <div id=""x-box""> <p class=""title-text"">X<p> </div> <div id=""b-box""> <p class=""title-text"">B</p></div> <br> <div style='float: left;padding-left:30px;'><p>Press '1' for A</p></div><div style='float: right;padding-right:30px;'><p>Press '0' for B</p> </div> </div></div>","null","","","","","","","","","","","","","",""
"2272","","test","audio-keyboard-response","192","552711","0.0-8.0-1.81","5e916cb9e502b1498e8fc059","condB","","resources/audio/wordStim/S3_AU_19_bxa_Step-3.wav","49","","","","","AU","resources/audio/wordStim/S3_AU_19_bxa_Step-3.wav","S3","19","bxa","3","MI","1","1","true"
"null","","fixation","html-keyboard-response","193","553713","0.0-8.0-0.82","5e916cb9e502b1498e8fc059","condB","","<div class=""vertical-center"" style='width:60%;'><p style='font-weight:bold;'>Does the middle word sound more like the first word (A) or the last word (B)?</p> <br> <div class=""container""> <div id=""a-box""> <p class=""title-text"">A</h3></p> </div> <div id=""x-box""> <p class=""title-text"">X<p> </div> <div id=""b-box""> <p class=""title-text"">B</p></div> <br> <div style='float: left;padding-left:30px;'><p>Press '1' for A</p></div><div style='float: right;padding-right:30px;'><p>Press '0' for B</p> </div> </div></div>","null","","","","","","","","","","","","","",""
"2811","","test","audio-keyboard-response","194","556529","0.0-8.0-1.82","5e916cb9e502b1498e8fc059","condB","","resources/audio/wordStim/S3_AI_21_bxa_Step-10.wav","49","","","","","AI","resources/audio/wordStim/S3_AI_21_bxa_Step-10.wav","S3","21","bxa","10","MI","1","1","true"
"null","","fixation","html-keyboard-response","195","557532","0.0-8.0-0.83","5e916cb9e502b1498e8fc059","condB","","<div class=""vertical-center"" style='width:60%;'><p style='font-weight:bold;'>Does the middle word sound more like the first word (A) or the last word (B)?</p> <br> <div class=""container""> <div id=""a-box""> <p class=""title-text"">A</h3></p> </div> <div id=""x-box""> <p class=""title-text"">X<p> </div> <div id=""b-box""> <p class=""title-text"">B</p></div> <br> <div style='float: left;padding-left:30px;'><p>Press '1' for A</p></div><div style='float: right;padding-right:30px;'><p>Press '0' for B</p> </div> </div></div>","null","","","","","","","","","","","","","",""
"2611","","test","audio-keyboard-response","196","560144","0.0-8.0-1.83","5e916cb9e502b1498e8fc059","condB","","resources/audio/wordStim/S9_AU_17_bxa_Step-5.wav","48","","","","","AU","resources/audio/wordStim/S9_AU_17_bxa_Step-5.wav","S9","17","bxa","5","CN","1","0","false"
"null","","fixation","html-keyboard-response","197","561148","0.0-8.0-0.84","5e916cb9e502b1498e8fc059","condB","","<div class=""vertical-center"" style='width:60%;'><p style='font-weight:bold;'>Does the middle word sound more like the first word (A) or the last word (B)?</p> <br> <div class=""container""> <div id=""a-box""> <p class=""title-text"">A</h3></p> </div> <div id=""x-box""> <p class=""title-text"">X<p> </div> <div id=""b-box""> <p class=""title-text"">B</p></div> <br> <div style='float: left;padding-left:30px;'><p>Press '1' for A</p></div><div style='float: right;padding-right:30px;'><p>Press '0' for B</p> </div> </div></div>","null","","","","","","","","","","","","","",""
"3048","","test","audio-keyboard-response","198","564200","0.0-8.0-1.84","5e916cb9e502b1498e8fc059","condB","","resources/audio/wordStim/S9_AI_29_bxa_Step-7.wav","48","","","","","AI","resources/audio/wordStim/S9_AI_29_bxa_Step-7.wav","S9","29","bxa","7","CN","1","0","false"
"null","","fixation","html-keyboard-response","199","565204","0.0-8.0-0.85","5e916cb9e502b1498e8fc059","condB","","<div class=""vertical-center"" style='width:60%;'><p style='font-weight:bold;'>Does the middle word sound more like the first word (A) or the last word (B)?</p> <br> <div class=""container""> <div id=""a-box""> <p class=""title-text"">A</h3></p> </div> <div id=""x-box""> <p class=""title-text"">X<p> </div> <div id=""b-box""> <p class=""title-text"">B</p></div> <br> <div style='float: left;padding-left:30px;'><p>Press '1' for A</p></div><div style='float: right;padding-right:30px;'><p>Press '0' for B</p> </div> </div></div>","null","","","","","","","","","","","","","",""
"2611","","test","audio-keyboard-response","200","567817","0.0-8.0-1.85","5e916cb9e502b1498e8fc059","condB","","resources/audio/wordStim/S9_AI_23_axb_Step-2.wav","49","","","","","AI","resources/audio/wordStim/S9_AI_23_axb_Step-2.wav","S9","23","axb","2","CN","0","1","false"
"null","","fixation","html-keyboard-response","201","568820","0.0-8.0-0.86","5e916cb9e502b1498e8fc059","condB","","<div class=""vertical-center"" style='width:60%;'><p style='font-weight:bold;'>Does the middle word sound more like the first word (A) or the last word (B)?</p> <br> <div class=""container""> <div id=""a-box""> <p class=""title-text"">A</h3></p> </div> <div id=""x-box""> <p class=""title-text"">X<p> </div> <div id=""b-box""> <p class=""title-text"">B</p></div> <br> <div style='float: left;padding-left:30px;'><p>Press '1' for A</p></div><div style='float: right;padding-right:30px;'><p>Press '0' for B</p> </div> </div></div>","null","","","","","","","","","","","","","",""
"3859","","test","audio-keyboard-response","202","572688","0.0-8.0-1.86","5e916cb9e502b1498e8fc059","condB","","resources/audio/wordStim/S3_AU_17_bxa_Step-5.wav","49","","","","","AU","resources/audio/wordStim/S3_AU_17_bxa_Step-5.wav","S3","17","bxa","5","MI","1","1","true"
"null","","fixation","html-keyboard-response","203","573691","0.0-8.0-0.87","5e916cb9e502b1498e8fc059","condB","","<div class=""vertical-center"" style='width:60%;'><p style='font-weight:bold;'>Does the middle word sound more like the first word (A) or the last word (B)?</p> <br> <div class=""container""> <div id=""a-box""> <p class=""title-text"">A</h3></p> </div> <div id=""x-box""> <p class=""title-text"">X<p> </div> <div id=""b-box""> <p class=""title-text"">B</p></div> <br> <div style='float: left;padding-left:30px;'><p>Press '1' for A</p></div><div style='float: right;padding-right:30px;'><p>Press '0' for B</p> </div> </div></div>","null","","","","","","","","","","","","","",""
"2749","","test","audio-keyboard-response","204","576447","0.0-8.0-1.87","5e916cb9e502b1498e8fc059","condB","","resources/audio/wordStim/S9_AU_20_axb_Step-6.wav","49","","","","","AU","resources/audio/wordStim/S9_AU_20_axb_Step-6.wav","S9","20","axb","6","CN","0","1","false"
"null","","fixation","html-keyboard-response","205","577450","0.0-8.0-0.88","5e916cb9e502b1498e8fc059","condB","","<div class=""vertical-center"" style='width:60%;'><p style='font-weight:bold;'>Does the middle word sound more like the first word (A) or the last word (B)?</p> <br> <div class=""container""> <div id=""a-box""> <p class=""title-text"">A</h3></p> </div> <div id=""x-box""> <p class=""title-text"">X<p> </div> <div id=""b-box""> <p class=""title-text"">B</p></div> <br> <div style='float: left;padding-left:30px;'><p>Press '1' for A</p></div><div style='float: right;padding-right:30px;'><p>Press '0' for B</p> </div> </div></div>","null","","","","","","","","","","","","","",""
"3051","","test","audio-keyboard-response","206","580495","0.0-8.0-1.88","5e916cb9e502b1498e8fc059","condB","","resources/audio/wordStim/S3_AI_23_bxa_Step-9.wav","49","","","","","AI","resources/audio/wordStim/S3_AI_23_bxa_Step-9.wav","S3","23","bxa","9","MI","1","1","true"
"null","","fixation","html-keyboard-response","207","581498","0.0-8.0-0.89","5e916cb9e502b1498e8fc059","condB","","<div class=""vertical-center"" style='width:60%;'><p style='font-weight:bold;'>Does the middle word sound more like the first word (A) or the last word (B)?</p> <br> <div class=""container""> <div id=""a-box""> <p class=""title-text"">A</h3></p> </div> <div id=""x-box""> <p class=""title-text"">X<p> </div> <div id=""b-box""> <p class=""title-text"">B</p></div> <br> <div style='float: left;padding-left:30px;'><p>Press '1' for A</p></div><div style='float: right;padding-right:30px;'><p>Press '0' for B</p> </div> </div></div>","null","","","","","","","","","","","","","",""
"2880","","test","audio-keyboard-response","208","584374","0.0-8.0-1.89","5e916cb9e502b1498e8fc059","condB","","resources/audio/wordStim/S3_AI_25_axb_Step-8.wav","48","","","","","AI","resources/audio/wordStim/S3_AI_25_axb_Step-8.wav","S3","25","axb","8","MI","0","0","true"
"null","","fixation","html-keyboard-response","209","585377","0.0-8.0-0.90","5e916cb9e502b1498e8fc059","condB","","<div class=""vertical-center"" style='width:60%;'><p style='font-weight:bold;'>Does the middle word sound more like the first word (A) or the last word (B)?</p> <br> <div class=""container""> <div id=""a-box""> <p class=""title-text"">A</h3></p> </div> <div id=""x-box""> <p class=""title-text"">X<p> </div> <div id=""b-box""> <p class=""title-text"">B</p></div> <br> <div style='float: left;padding-left:30px;'><p>Press '1' for A</p></div><div style='float: right;padding-right:30px;'><p>Press '0' for B</p> </div> </div></div>","null","","","","","","","","","","","","","",""
"2819","","test","audio-keyboard-response","210","588200","0.0-8.0-1.90","5e916cb9e502b1498e8fc059","condB","","resources/audio/wordStim/S9_AI_30_axb_Step-6.wav","49","","","","","AI","resources/audio/wordStim/S9_AI_30_axb_Step-6.wav","S9","30","axb","6","CN","0","1","false"
"null","","fixation","html-keyboard-response","211","589204","0.0-8.0-0.91","5e916cb9e502b1498e8fc059","condB","","<div class=""vertical-center"" style='width:60%;'><p style='font-weight:bold;'>Does the middle word sound more like the first word (A) or the last word (B)?</p> <br> <div class=""container""> <div id=""a-box""> <p class=""title-text"">A</h3></p> </div> <div id=""x-box""> <p class=""title-text"">X<p> </div> <div id=""b-box""> <p class=""title-text"">B</p></div> <br> <div style='float: left;padding-left:30px;'><p>Press '1' for A</p></div><div style='float: right;padding-right:30px;'><p>Press '0' for B</p> </div> </div></div>","null","","","","","","","","","","","","","",""
"2280","","test","audio-keyboard-response","212","591488","0.0-8.0-1.91","5e916cb9e502b1498e8fc059","condB","","resources/audio/wordStim/S3_AI_28_bxa_Step-10.wav","49","","","","","AI","resources/audio/wordStim/S3_AI_28_bxa_Step-10.wav","S3","28","bxa","10","MI","1","1","true"
"null","","fixation","html-keyboard-response","213","592491","0.0-8.0-0.92","5e916cb9e502b1498e8fc059","condB","","<div class=""vertical-center"" style='width:60%;'><p style='font-weight:bold;'>Does the middle word sound more like the first word (A) or the last word (B)?</p> <br> <div class=""container""> <div id=""a-box""> <p class=""title-text"">A</h3></p> </div> <div id=""x-box""> <p class=""title-text"">X<p> </div> <div id=""b-box""> <p class=""title-text"">B</p></div> <br> <div style='float: left;padding-left:30px;'><p>Press '1' for A</p></div><div style='float: right;padding-right:30px;'><p>Press '0' for B</p> </div> </div></div>","null","","","","","","","","","","","","","",""
"2739","","test","audio-keyboard-response","214","595233","0.0-8.0-1.92","5e916cb9e502b1498e8fc059","condB","","resources/audio/wordStim/S3_AU_14_bxa_Step-10.wav","49","","","","","AU","resources/audio/wordStim/S3_AU_14_bxa_Step-10.wav","S3","14","bxa","10","MI","1","1","true"
