"rt","url","trial_role","trial_type","trial_index","time_elapsed","internal_node_id","participantId","condition","view_history","stimulus","key_press","button_pressed","correct_answer","correct_response","success","vowel","wordStim","speaker","sentNum","order","step","speakerIdentity","raised_answer","key_response","raised_response"
"16645.690000004834","micr.con.consent.html","consent","external-html","0","16680","0.0-0.0","5f07363e47bd2b2e4874684d","condB","","","","","","","","","","","","","","","","",""
"71277.2100000002","","instructions","instructions","1","87959","0.0-1.0","5f07363e47bd2b2e4874684d","condB","[{""page_index"":0,""viewing_time"":64355.42499998701},{""page_index"":1,""viewing_time"":4080.775000009453},{""page_index"":2,""viewing_time"":2840.425000002142}]","","","","","","","","","","","","","","","",""
"null","","fixation","html-keyboard-response","2","88460","0.0-2.0-0.0","5f07363e47bd2b2e4874684d","condB","","<div class=""vertical-center"" style=""font-size:60px;"">+</div>","null","","","","","","","","","","","","","",""
"5148.069999995641","","tonetest","audio-button-response","3","93610","0.0-2.0-1.0","5f07363e47bd2b2e4874684d","condB","","../../src/audio/toneTest_4.wav","","0","1","false","","","","","","","","","","",""
"null","","fixation","html-keyboard-response","4","94112","0.0-2.0-0.1","5f07363e47bd2b2e4874684d","condB","","<div class=""vertical-center"" style=""font-size:60px;"">+</div>","null","","","","","","","","","","","","","",""
"3543.244999978924","","tonetest","audio-button-response","5","97656","0.0-2.0-1.1","5f07363e47bd2b2e4874684d","condB","","../../src/audio/toneTest_1.wav","","1","2","false","","","","","","","","","","",""
"null","","fixation","html-keyboard-response","6","98157","0.0-2.0-0.2","5f07363e47bd2b2e4874684d","condB","","<div class=""vertical-center"" style=""font-size:60px;"">+</div>","null","","","","","","","","","","","","","",""
"3715.9000000101514","","tonetest","audio-button-response","7","101875","0.0-2.0-1.2","5f07363e47bd2b2e4874684d","condB","","../../src/audio/toneTest_4.wav","","0","1","false","","","","","","","","","","",""
"null","","fixation","html-keyboard-response","8","102375","0.0-2.0-0.3","5f07363e47bd2b2e4874684d","condB","","<div class=""vertical-center"" style=""font-size:60px;"">+</div>","null","","","","","","","","","","","","","",""
"4036.3949999737088","","tonetest","audio-button-response","9","106413","0.0-2.0-1.3","5f07363e47bd2b2e4874684d","condB","","../../src/audio/toneTest_5.wav","","2","0","false","","","","","","","","","","",""
"null","","fixation","html-keyboard-response","10","106916","0.0-2.0-0.4","5f07363e47bd2b2e4874684d","condB","","<div class=""vertical-center"" style=""font-size:60px;"">+</div>","null","","","","","","","","","","","","","",""
"3982.965000002878","","tonetest","audio-button-response","11","110900","0.0-2.0-1.4","5f07363e47bd2b2e4874684d","condB","","../../src/audio/toneTest_2.wav","","2","1","false","","","","","","","","","","",""
"null","","fixation","html-keyboard-response","12","111402","0.0-2.0-0.5","5f07363e47bd2b2e4874684d","condB","","<div class=""vertical-center"" style=""font-size:60px;"">+</div>","null","","","","","","","","","","","","","",""
"4083.844999986468","","tonetest","audio-button-response","13","115487","0.0-2.0-1.5","5f07363e47bd2b2e4874684d","condB","","../../src/audio/toneTest_6.wav","","1","0","false","","","","","","","","","","",""
"4462.009999988368","","instructions","html-keyboard-response","14","119950","0.0-3.0","5f07363e47bd2b2e4874684d","condB","","<div class=""vertical-center""><p><b>Your score was 0/6.</b></p><p>If you scored below 6, please ensure that you are wearing headphones and in a quiet location free of distractions.</p><p><i>To continue to the main experiment, press SPACE.</i></p></div>","32","","","","","","","","","","","","","",""
"","","","fullscreen","15","123320","0.0-4.0","5f07363e47bd2b2e4874684d","condB","","","","","","","true","","","","","","","","","",""
"3446.490000002086","","instructions","instructions","16","126767","0.0-5.0","5f07363e47bd2b2e4874684d","condB","[{""page_index"":0,""viewing_time"":3446.3350000150967}]","","","","","","","","","","","","","","","",""
"null","","fixation","html-keyboard-response","17","127268","0.0-6.0-0.0","5f07363e47bd2b2e4874684d","condB","","<div class=""vertical-center"" style='width:60%;'><p style='font-weight:bold;'>Does the middle word sound more like the first word (A) or the last word (B)?</p> <br> <div class=""container""> <div id=""a-box""> <p class=""title-text"">A</h3></p> </div> <div id=""x-box""> <p class=""title-text"">X<p> </div> <div id=""b-box""> <p class=""title-text"">B</p></div> <br> <div style='float: left;padding-left:30px;'><p>Press '1' for A</p></div><div style='float: right;padding-right:30px;'><p>Press '0' for B</p> </div> </div></div>","null","","","","","","","","","","","","","",""
"3149","","practice","audio-keyboard-response","18","130416","0.0-6.0-1.0","5f07363e47bd2b2e4874684d","condB","","resources/audio/practiceStim/S1_AU_14_axb_Step-6.wav","49","","","","","","","","","","","","","",""
"null","","fixation","html-keyboard-response","19","131417","0.0-6.0-0.1","5f07363e47bd2b2e4874684d","condB","","<div class=""vertical-center"" style='width:60%;'><p style='font-weight:bold;'>Does the middle word sound more like the first word (A) or the last word (B)?</p> <br> <div class=""container""> <div id=""a-box""> <p class=""title-text"">A</h3></p> </div> <div id=""x-box""> <p class=""title-text"">X<p> </div> <div id=""b-box""> <p class=""title-text"">B</p></div> <br> <div style='float: left;padding-left:30px;'><p>Press '1' for A</p></div><div style='float: right;padding-right:30px;'><p>Press '0' for B</p> </div> </div></div>","null","","","","","","","","","","","","","",""
"3030","","practice","audio-keyboard-response","20","134448","0.0-6.0-1.1","5f07363e47bd2b2e4874684d","condB","","resources/audio/practiceStim/S1_AI_21_axb_Step-6.wav","49","","","","","","","","","","","","","",""
"null","","fixation","html-keyboard-response","21","135450","0.0-6.0-0.2","5f07363e47bd2b2e4874684d","condB","","<div class=""vertical-center"" style='width:60%;'><p style='font-weight:bold;'>Does the middle word sound more like the first word (A) or the last word (B)?</p> <br> <div class=""container""> <div id=""a-box""> <p class=""title-text"">A</h3></p> </div> <div id=""x-box""> <p class=""title-text"">X<p> </div> <div id=""b-box""> <p class=""title-text"">B</p></div> <br> <div style='float: left;padding-left:30px;'><p>Press '1' for A</p></div><div style='float: right;padding-right:30px;'><p>Press '0' for B</p> </div> </div></div>","null","","","","","","","","","","","","","",""
"2990","","practice","audio-keyboard-response","22","138449","0.0-6.0-1.2","5f07363e47bd2b2e4874684d","condB","","resources/audio/practiceStim/S1_AU_14_bxa_Step-6.wav","49","","","","","","","","","","","","","",""
"null","","fixation","html-keyboard-response","23","139452","0.0-6.0-0.3","5f07363e47bd2b2e4874684d","condB","","<div class=""vertical-center"" style='width:60%;'><p style='font-weight:bold;'>Does the middle word sound more like the first word (A) or the last word (B)?</p> <br> <div class=""container""> <div id=""a-box""> <p class=""title-text"">A</h3></p> </div> <div id=""x-box""> <p class=""title-text"">X<p> </div> <div id=""b-box""> <p class=""title-text"">B</p></div> <br> <div style='float: left;padding-left:30px;'><p>Press '1' for A</p></div><div style='float: right;padding-right:30px;'><p>Press '0' for B</p> </div> </div></div>","null","","","","","","","","","","","","","",""
"3059","","practice","audio-keyboard-response","24","142513","0.0-6.0-1.3","5f07363e47bd2b2e4874684d","condB","","resources/audio/practiceStim/S1_AI_21_bxa_Step-6.wav","49","","","","","","","","","","","","","",""
"729.8200000077486","","instructions","instructions","25","143745","0.0-7.0","5f07363e47bd2b2e4874684d","condB","[{""page_index"":0,""viewing_time"":729.6950000163633}]","","","","","","","","","","","","","","","",""
"null","","fixation","html-keyboard-response","26","144246","0.0-8.0-0.0","5f07363e47bd2b2e4874684d","condB","","<div class=""vertical-center"" style='width:60%;'><p style='font-weight:bold;'>Does the middle word sound more like the first word (A) or the last word (B)?</p> <br> <div class=""container""> <div id=""a-box""> <p class=""title-text"">A</h3></p> </div> <div id=""x-box""> <p class=""title-text"">X<p> </div> <div id=""b-box""> <p class=""title-text"">B</p></div> <br> <div style='float: left;padding-left:30px;'><p>Press '1' for A</p></div><div style='float: right;padding-right:30px;'><p>Press '0' for B</p> </div> </div></div>","null","","","","","","","","","","","","","",""
"2972","","test","audio-keyboard-response","27","147218","0.0-8.0-1.0","5f07363e47bd2b2e4874684d","condB","","resources/audio/wordStim/S9_AI_29_bxa_Step-5.wav","48","","","","","AI","resources/audio/wordStim/S9_AI_29_bxa_Step-5.wav","S9","29","bxa","5","CN","1","0","false"
"null","","fixation","html-keyboard-response","28","148220","0.0-8.0-0.1","5f07363e47bd2b2e4874684d","condB","","<div class=""vertical-center"" style='width:60%;'><p style='font-weight:bold;'>Does the middle word sound more like the first word (A) or the last word (B)?</p> <br> <div class=""container""> <div id=""a-box""> <p class=""title-text"">A</h3></p> </div> <div id=""x-box""> <p class=""title-text"">X<p> </div> <div id=""b-box""> <p class=""title-text"">B</p></div> <br> <div style='float: left;padding-left:30px;'><p>Press '1' for A</p></div><div style='float: right;padding-right:30px;'><p>Press '0' for B</p> </div> </div></div>","null","","","","","","","","","","","","","",""
"2839","","test","audio-keyboard-response","29","151066","0.0-8.0-1.1","5f07363e47bd2b2e4874684d","condB","","resources/audio/wordStim/S3_AI_21_bxa_Step-10.wav","49","","","","","AI","resources/audio/wordStim/S3_AI_21_bxa_Step-10.wav","S3","21","bxa","10","MI","1","1","true"
"null","","fixation","html-keyboard-response","30","152068","0.0-8.0-0.2","5f07363e47bd2b2e4874684d","condB","","<div class=""vertical-center"" style='width:60%;'><p style='font-weight:bold;'>Does the middle word sound more like the first word (A) or the last word (B)?</p> <br> <div class=""container""> <div id=""a-box""> <p class=""title-text"">A</h3></p> </div> <div id=""x-box""> <p class=""title-text"">X<p> </div> <div id=""b-box""> <p class=""title-text"">B</p></div> <br> <div style='float: left;padding-left:30px;'><p>Press '1' for A</p></div><div style='float: right;padding-right:30px;'><p>Press '0' for B</p> </div> </div></div>","null","","","","","","","","","","","","","",""
"3068","","test","audio-keyboard-response","31","155131","0.0-8.0-1.2","5f07363e47bd2b2e4874684d","condB","","resources/audio/wordStim/S9_AU_16_bxa_Step-9.wav","49","","","","","AU","resources/audio/wordStim/S9_AU_16_bxa_Step-9.wav","S9","16","bxa","9","CN","1","1","true"
"null","","fixation","html-keyboard-response","32","156133","0.0-8.0-0.3","5f07363e47bd2b2e4874684d","condB","","<div class=""vertical-center"" style='width:60%;'><p style='font-weight:bold;'>Does the middle word sound more like the first word (A) or the last word (B)?</p> <br> <div class=""container""> <div id=""a-box""> <p class=""title-text"">A</h3></p> </div> <div id=""x-box""> <p class=""title-text"">X<p> </div> <div id=""b-box""> <p class=""title-text"">B</p></div> <br> <div style='float: left;padding-left:30px;'><p>Press '1' for A</p></div><div style='float: right;padding-right:30px;'><p>Press '0' for B</p> </div> </div></div>","null","","","","","","","","","","","","","",""
"3178","","test","audio-keyboard-response","33","159316","0.0-8.0-1.3","5f07363e47bd2b2e4874684d","condB","","resources/audio/wordStim/S9_AI_30_bxa_Step-10.wav","49","","","","","AI","resources/audio/wordStim/S9_AI_30_bxa_Step-10.wav","S9","30","bxa","10","CN","1","1","true"
"null","","fixation","html-keyboard-response","34","160317","0.0-8.0-0.4","5f07363e47bd2b2e4874684d","condB","","<div class=""vertical-center"" style='width:60%;'><p style='font-weight:bold;'>Does the middle word sound more like the first word (A) or the last word (B)?</p> <br> <div class=""container""> <div id=""a-box""> <p class=""title-text"">A</h3></p> </div> <div id=""x-box""> <p class=""title-text"">X<p> </div> <div id=""b-box""> <p class=""title-text"">B</p></div> <br> <div style='float: left;padding-left:30px;'><p>Press '1' for A</p></div><div style='float: right;padding-right:30px;'><p>Press '0' for B</p> </div> </div></div>","null","","","","","","","","","","","","","",""
"3071","","test","audio-keyboard-response","35","163380","0.0-8.0-1.4","5f07363e47bd2b2e4874684d","condB","","resources/audio/wordStim/S3_AI_29_axb_Step-6.wav","49","","","","","AI","resources/audio/wordStim/S3_AI_29_axb_Step-6.wav","S3","29","axb","6","MI","0","1","false"
"null","","fixation","html-keyboard-response","36","164383","0.0-8.0-0.5","5f07363e47bd2b2e4874684d","condB","","<div class=""vertical-center"" style='width:60%;'><p style='font-weight:bold;'>Does the middle word sound more like the first word (A) or the last word (B)?</p> <br> <div class=""container""> <div id=""a-box""> <p class=""title-text"">A</h3></p> </div> <div id=""x-box""> <p class=""title-text"">X<p> </div> <div id=""b-box""> <p class=""title-text"">B</p></div> <br> <div style='float: left;padding-left:30px;'><p>Press '1' for A</p></div><div style='float: right;padding-right:30px;'><p>Press '0' for B</p> </div> </div></div>","null","","","","","","","","","","","","","",""
"3709","","test","audio-keyboard-response","37","168093","0.0-8.0-1.5","5f07363e47bd2b2e4874684d","condB","","resources/audio/wordStim/S3_AU_18_bxa_Step-10.wav","49","","","","","AU","resources/audio/wordStim/S3_AU_18_bxa_Step-10.wav","S3","18","bxa","10","MI","1","1","true"
"null","","fixation","html-keyboard-response","38","169095","0.0-8.0-0.6","5f07363e47bd2b2e4874684d","condB","","<div class=""vertical-center"" style='width:60%;'><p style='font-weight:bold;'>Does the middle word sound more like the first word (A) or the last word (B)?</p> <br> <div class=""container""> <div id=""a-box""> <p class=""title-text"">A</h3></p> </div> <div id=""x-box""> <p class=""title-text"">X<p> </div> <div id=""b-box""> <p class=""title-text"">B</p></div> <br> <div style='float: left;padding-left:30px;'><p>Press '1' for A</p></div><div style='float: right;padding-right:30px;'><p>Press '0' for B</p> </div> </div></div>","null","","","","","","","","","","","","","",""
"3149","","test","audio-keyboard-response","39","172246","0.0-8.0-1.6","5f07363e47bd2b2e4874684d","condB","","resources/audio/wordStim/S9_AI_22_bxa_Step-7.wav","49","","","","","AI","resources/audio/wordStim/S9_AI_22_bxa_Step-7.wav","S9","22","bxa","7","CN","1","1","true"
"null","","fixation","html-keyboard-response","40","173248","0.0-8.0-0.7","5f07363e47bd2b2e4874684d","condB","","<div class=""vertical-center"" style='width:60%;'><p style='font-weight:bold;'>Does the middle word sound more like the first word (A) or the last word (B)?</p> <br> <div class=""container""> <div id=""a-box""> <p class=""title-text"">A</h3></p> </div> <div id=""x-box""> <p class=""title-text"">X<p> </div> <div id=""b-box""> <p class=""title-text"">B</p></div> <br> <div style='float: left;padding-left:30px;'><p>Press '1' for A</p></div><div style='float: right;padding-right:30px;'><p>Press '0' for B</p> </div> </div></div>","null","","","","","","","","","","","","","",""
"3550","","test","audio-keyboard-response","41","176798","0.0-8.0-1.7","5f07363e47bd2b2e4874684d","condB","","resources/audio/wordStim/S3_AU_17_axb_Step-2.wav","49","","","","","AU","resources/audio/wordStim/S3_AU_17_axb_Step-2.wav","S3","17","axb","2","MI","0","1","false"
"null","","fixation","html-keyboard-response","42","177800","0.0-8.0-0.8","5f07363e47bd2b2e4874684d","condB","","<div class=""vertical-center"" style='width:60%;'><p style='font-weight:bold;'>Does the middle word sound more like the first word (A) or the last word (B)?</p> <br> <div class=""container""> <div id=""a-box""> <p class=""title-text"">A</h3></p> </div> <div id=""x-box""> <p class=""title-text"">X<p> </div> <div id=""b-box""> <p class=""title-text"">B</p></div> <br> <div style='float: left;padding-left:30px;'><p>Press '1' for A</p></div><div style='float: right;padding-right:30px;'><p>Press '0' for B</p> </div> </div></div>","null","","","","","","","","","","","","","",""
"3190","","test","audio-keyboard-response","43","180991","0.0-8.0-1.8","5f07363e47bd2b2e4874684d","condB","","resources/audio/wordStim/S9_AI_30_axb_Step-2.wav","49","","","","","AI","resources/audio/wordStim/S9_AI_30_axb_Step-2.wav","S9","30","axb","2","CN","0","1","false"
"null","","fixation","html-keyboard-response","44","181993","0.0-8.0-0.9","5f07363e47bd2b2e4874684d","condB","","<div class=""vertical-center"" style='width:60%;'><p style='font-weight:bold;'>Does the middle word sound more like the first word (A) or the last word (B)?</p> <br> <div class=""container""> <div id=""a-box""> <p class=""title-text"">A</h3></p> </div> <div id=""x-box""> <p class=""title-text"">X<p> </div> <div id=""b-box""> <p class=""title-text"">B</p></div> <br> <div style='float: left;padding-left:30px;'><p>Press '1' for A</p></div><div style='float: right;padding-right:30px;'><p>Press '0' for B</p> </div> </div></div>","null","","","","","","","","","","","","","",""
"2792","","test","audio-keyboard-response","45","184783","0.0-8.0-1.9","5f07363e47bd2b2e4874684d","condB","","resources/audio/wordStim/S9_AU_14_bxa_Step-7.wav","49","","","","","AU","resources/audio/wordStim/S9_AU_14_bxa_Step-7.wav","S9","14","bxa","7","CN","1","1","true"
"null","","fixation","html-keyboard-response","46","185785","0.0-8.0-0.10","5f07363e47bd2b2e4874684d","condB","","<div class=""vertical-center"" style='width:60%;'><p style='font-weight:bold;'>Does the middle word sound more like the first word (A) or the last word (B)?</p> <br> <div class=""container""> <div id=""a-box""> <p class=""title-text"">A</h3></p> </div> <div id=""x-box""> <p class=""title-text"">X<p> </div> <div id=""b-box""> <p class=""title-text"">B</p></div> <br> <div style='float: left;padding-left:30px;'><p>Press '1' for A</p></div><div style='float: right;padding-right:30px;'><p>Press '0' for B</p> </div> </div></div>","null","","","","","","","","","","","","","",""
"2531","","test","audio-keyboard-response","47","188312","0.0-8.0-1.10","5f07363e47bd2b2e4874684d","condB","","resources/audio/wordStim/S3_AU_14_axb_Step-8.wav","49","","","","","AU","resources/audio/wordStim/S3_AU_14_axb_Step-8.wav","S3","14","axb","8","MI","0","1","false"
"null","","fixation","html-keyboard-response","48","189314","0.0-8.0-0.11","5f07363e47bd2b2e4874684d","condB","","<div class=""vertical-center"" style='width:60%;'><p style='font-weight:bold;'>Does the middle word sound more like the first word (A) or the last word (B)?</p> <br> <div class=""container""> <div id=""a-box""> <p class=""title-text"">A</h3></p> </div> <div id=""x-box""> <p class=""title-text"">X<p> </div> <div id=""b-box""> <p class=""title-text"">B</p></div> <br> <div style='float: left;padding-left:30px;'><p>Press '1' for A</p></div><div style='float: right;padding-right:30px;'><p>Press '0' for B</p> </div> </div></div>","null","","","","","","","","","","","","","",""
"2682","","test","audio-keyboard-response","49","191992","0.0-8.0-1.11","5f07363e47bd2b2e4874684d","condB","","resources/audio/wordStim/S3_AI_23_axb_Step-6.wav","49","","","","","AI","resources/audio/wordStim/S3_AI_23_axb_Step-6.wav","S3","23","axb","6","MI","0","1","false"
"null","","fixation","html-keyboard-response","50","192994","0.0-8.0-0.12","5f07363e47bd2b2e4874684d","condB","","<div class=""vertical-center"" style='width:60%;'><p style='font-weight:bold;'>Does the middle word sound more like the first word (A) or the last word (B)?</p> <br> <div class=""container""> <div id=""a-box""> <p class=""title-text"">A</h3></p> </div> <div id=""x-box""> <p class=""title-text"">X<p> </div> <div id=""b-box""> <p class=""title-text"">B</p></div> <br> <div style='float: left;padding-left:30px;'><p>Press '1' for A</p></div><div style='float: right;padding-right:30px;'><p>Press '0' for B</p> </div> </div></div>","null","","","","","","","","","","","","","",""
"3111","","test","audio-keyboard-response","51","196105","0.0-8.0-1.12","5f07363e47bd2b2e4874684d","condB","","resources/audio/wordStim/S3_AU_18_bxa_Step-3.wav","49","","","","","AU","resources/audio/wordStim/S3_AU_18_bxa_Step-3.wav","S3","18","bxa","3","MI","1","1","true"
"null","","fixation","html-keyboard-response","52","197109","0.0-8.0-0.13","5f07363e47bd2b2e4874684d","condB","","<div class=""vertical-center"" style='width:60%;'><p style='font-weight:bold;'>Does the middle word sound more like the first word (A) or the last word (B)?</p> <br> <div class=""container""> <div id=""a-box""> <p class=""title-text"">A</h3></p> </div> <div id=""x-box""> <p class=""title-text"">X<p> </div> <div id=""b-box""> <p class=""title-text"">B</p></div> <br> <div style='float: left;padding-left:30px;'><p>Press '1' for A</p></div><div style='float: right;padding-right:30px;'><p>Press '0' for B</p> </div> </div></div>","null","","","","","","","","","","","","","",""
"2961","","test","audio-keyboard-response","53","200074","0.0-8.0-1.13","5f07363e47bd2b2e4874684d","condB","","resources/audio/wordStim/S9_AI_27_axb_Step-4.wav","48","","","","","AI","resources/audio/wordStim/S9_AI_27_axb_Step-4.wav","S9","27","axb","4","CN","0","0","true"
"null","","fixation","html-keyboard-response","54","201075","0.0-8.0-0.14","5f07363e47bd2b2e4874684d","condB","","<div class=""vertical-center"" style='width:60%;'><p style='font-weight:bold;'>Does the middle word sound more like the first word (A) or the last word (B)?</p> <br> <div class=""container""> <div id=""a-box""> <p class=""title-text"">A</h3></p> </div> <div id=""x-box""> <p class=""title-text"">X<p> </div> <div id=""b-box""> <p class=""title-text"">B</p></div> <br> <div style='float: left;padding-left:30px;'><p>Press '1' for A</p></div><div style='float: right;padding-right:30px;'><p>Press '0' for B</p> </div> </div></div>","null","","","","","","","","","","","","","",""
"2699","","test","audio-keyboard-response","55","203778","0.0-8.0-1.14","5f07363e47bd2b2e4874684d","condB","","resources/audio/wordStim/S9_AU_13_bxa_Step-3.wav","48","","","","","AU","resources/audio/wordStim/S9_AU_13_bxa_Step-3.wav","S9","13","bxa","3","CN","1","0","false"
"null","","fixation","html-keyboard-response","56","204781","0.0-8.0-0.15","5f07363e47bd2b2e4874684d","condB","","<div class=""vertical-center"" style='width:60%;'><p style='font-weight:bold;'>Does the middle word sound more like the first word (A) or the last word (B)?</p> <br> <div class=""container""> <div id=""a-box""> <p class=""title-text"">A</h3></p> </div> <div id=""x-box""> <p class=""title-text"">X<p> </div> <div id=""b-box""> <p class=""title-text"">B</p></div> <br> <div style='float: left;padding-left:30px;'><p>Press '1' for A</p></div><div style='float: right;padding-right:30px;'><p>Press '0' for B</p> </div> </div></div>","null","","","","","","","","","","","","","",""
"2792","","test","audio-keyboard-response","57","207579","0.0-8.0-1.15","5f07363e47bd2b2e4874684d","condB","","resources/audio/wordStim/S9_AU_16_axb_Step-8.wav","48","","","","","AU","resources/audio/wordStim/S9_AU_16_axb_Step-8.wav","S9","16","axb","8","CN","0","0","true"
"null","","fixation","html-keyboard-response","58","208581","0.0-8.0-0.16","5f07363e47bd2b2e4874684d","condB","","<div class=""vertical-center"" style='width:60%;'><p style='font-weight:bold;'>Does the middle word sound more like the first word (A) or the last word (B)?</p> <br> <div class=""container""> <div id=""a-box""> <p class=""title-text"">A</h3></p> </div> <div id=""x-box""> <p class=""title-text"">X<p> </div> <div id=""b-box""> <p class=""title-text"">B</p></div> <br> <div style='float: left;padding-left:30px;'><p>Press '1' for A</p></div><div style='float: right;padding-right:30px;'><p>Press '0' for B</p> </div> </div></div>","null","","","","","","","","","","","","","",""
"2760","","test","audio-keyboard-response","59","211347","0.0-8.0-1.16","5f07363e47bd2b2e4874684d","condB","","resources/audio/wordStim/S3_AU_15_bxa_Step-10.wav","49","","","","","AU","resources/audio/wordStim/S3_AU_15_bxa_Step-10.wav","S3","15","bxa","10","MI","1","1","true"
"null","","fixation","html-keyboard-response","60","212348","0.0-8.0-0.17","5f07363e47bd2b2e4874684d","condB","","<div class=""vertical-center"" style='width:60%;'><p style='font-weight:bold;'>Does the middle word sound more like the first word (A) or the last word (B)?</p> <br> <div class=""container""> <div id=""a-box""> <p class=""title-text"">A</h3></p> </div> <div id=""x-box""> <p class=""title-text"">X<p> </div> <div id=""b-box""> <p class=""title-text"">B</p></div> <br> <div style='float: left;padding-left:30px;'><p>Press '1' for A</p></div><div style='float: right;padding-right:30px;'><p>Press '0' for B</p> </div> </div></div>","null","","","","","","","","","","","","","",""
"2911","","test","audio-keyboard-response","61","215260","0.0-8.0-1.17","5f07363e47bd2b2e4874684d","condB","","resources/audio/wordStim/S3_AU_19_axb_Step-2.wav","49","","","","","AU","resources/audio/wordStim/S3_AU_19_axb_Step-2.wav","S3","19","axb","2","MI","0","1","false"
"null","","fixation","html-keyboard-response","62","216261","0.0-8.0-0.18","5f07363e47bd2b2e4874684d","condB","","<div class=""vertical-center"" style='width:60%;'><p style='font-weight:bold;'>Does the middle word sound more like the first word (A) or the last word (B)?</p> <br> <div class=""container""> <div id=""a-box""> <p class=""title-text"">A</h3></p> </div> <div id=""x-box""> <p class=""title-text"">X<p> </div> <div id=""b-box""> <p class=""title-text"">B</p></div> <br> <div style='float: left;padding-left:30px;'><p>Press '1' for A</p></div><div style='float: right;padding-right:30px;'><p>Press '0' for B</p> </div> </div></div>","null","","","","","","","","","","","","","",""
"3091","","test","audio-keyboard-response","63","219357","0.0-8.0-1.18","5f07363e47bd2b2e4874684d","condB","","resources/audio/wordStim/S9_AU_11_axb_Step-6.wav","48","","","","","AU","resources/audio/wordStim/S9_AU_11_axb_Step-6.wav","S9","11","axb","6","CN","0","0","true"
"null","","fixation","html-keyboard-response","64","220359","0.0-8.0-0.19","5f07363e47bd2b2e4874684d","condB","","<div class=""vertical-center"" style='width:60%;'><p style='font-weight:bold;'>Does the middle word sound more like the first word (A) or the last word (B)?</p> <br> <div class=""container""> <div id=""a-box""> <p class=""title-text"">A</h3></p> </div> <div id=""x-box""> <p class=""title-text"">X<p> </div> <div id=""b-box""> <p class=""title-text"">B</p></div> <br> <div style='float: left;padding-left:30px;'><p>Press '1' for A</p></div><div style='float: right;padding-right:30px;'><p>Press '0' for B</p> </div> </div></div>","null","","","","","","","","","","","","","",""
"3001","","test","audio-keyboard-response","65","223365","0.0-8.0-1.19","5f07363e47bd2b2e4874684d","condB","","resources/audio/wordStim/S9_AU_13_axb_Step-2.wav","49","","","","","AU","resources/audio/wordStim/S9_AU_13_axb_Step-2.wav","S9","13","axb","2","CN","0","1","false"
"null","","fixation","html-keyboard-response","66","224366","0.0-8.0-0.20","5f07363e47bd2b2e4874684d","condB","","<div class=""vertical-center"" style='width:60%;'><p style='font-weight:bold;'>Does the middle word sound more like the first word (A) or the last word (B)?</p> <br> <div class=""container""> <div id=""a-box""> <p class=""title-text"">A</h3></p> </div> <div id=""x-box""> <p class=""title-text"">X<p> </div> <div id=""b-box""> <p class=""title-text"">B</p></div> <br> <div style='float: left;padding-left:30px;'><p>Press '1' for A</p></div><div style='float: right;padding-right:30px;'><p>Press '0' for B</p> </div> </div></div>","null","","","","","","","","","","","","","",""
"2900","","test","audio-keyboard-response","67","227262","0.0-8.0-1.20","5f07363e47bd2b2e4874684d","condB","","resources/audio/wordStim/S9_AU_14_bxa_Step-10.wav","49","","","","","AU","resources/audio/wordStim/S9_AU_14_bxa_Step-10.wav","S9","14","bxa","10","CN","1","1","true"
"null","","fixation","html-keyboard-response","68","228263","0.0-8.0-0.21","5f07363e47bd2b2e4874684d","condB","","<div class=""vertical-center"" style='width:60%;'><p style='font-weight:bold;'>Does the middle word sound more like the first word (A) or the last word (B)?</p> <br> <div class=""container""> <div id=""a-box""> <p class=""title-text"">A</h3></p> </div> <div id=""x-box""> <p class=""title-text"">X<p> </div> <div id=""b-box""> <p class=""title-text"">B</p></div> <br> <div style='float: left;padding-left:30px;'><p>Press '1' for A</p></div><div style='float: right;padding-right:30px;'><p>Press '0' for B</p> </div> </div></div>","null","","","","","","","","","","","","","",""
"2740","","test","audio-keyboard-response","69","231006","0.0-8.0-1.21","5f07363e47bd2b2e4874684d","condB","","resources/audio/wordStim/S9_AU_16_bxa_Step-5.wav","48","","","","","AU","resources/audio/wordStim/S9_AU_16_bxa_Step-5.wav","S9","16","bxa","5","CN","1","0","false"
"null","","fixation","html-keyboard-response","70","232009","0.0-8.0-0.22","5f07363e47bd2b2e4874684d","condB","","<div class=""vertical-center"" style='width:60%;'><p style='font-weight:bold;'>Does the middle word sound more like the first word (A) or the last word (B)?</p> <br> <div class=""container""> <div id=""a-box""> <p class=""title-text"">A</h3></p> </div> <div id=""x-box""> <p class=""title-text"">X<p> </div> <div id=""b-box""> <p class=""title-text"">B</p></div> <br> <div style='float: left;padding-left:30px;'><p>Press '1' for A</p></div><div style='float: right;padding-right:30px;'><p>Press '0' for B</p> </div> </div></div>","null","","","","","","","","","","","","","",""
"2769","","test","audio-keyboard-response","71","234783","0.0-8.0-1.22","5f07363e47bd2b2e4874684d","condB","","resources/audio/wordStim/S3_AU_15_axb_Step-8.wav","49","","","","","AU","resources/audio/wordStim/S3_AU_15_axb_Step-8.wav","S3","15","axb","8","MI","0","1","false"
"null","","fixation","html-keyboard-response","72","235787","0.0-8.0-0.23","5f07363e47bd2b2e4874684d","condB","","<div class=""vertical-center"" style='width:60%;'><p style='font-weight:bold;'>Does the middle word sound more like the first word (A) or the last word (B)?</p> <br> <div class=""container""> <div id=""a-box""> <p class=""title-text"">A</h3></p> </div> <div id=""x-box""> <p class=""title-text"">X<p> </div> <div id=""b-box""> <p class=""title-text"">B</p></div> <br> <div style='float: left;padding-left:30px;'><p>Press '1' for A</p></div><div style='float: right;padding-right:30px;'><p>Press '0' for B</p> </div> </div></div>","null","","","","","","","","","","","","","",""
"2888","","test","audio-keyboard-response","73","238671","0.0-8.0-1.23","5f07363e47bd2b2e4874684d","condB","","resources/audio/wordStim/S9_AI_30_axb_Step-4.wav","48","","","","","AI","resources/audio/wordStim/S9_AI_30_axb_Step-4.wav","S9","30","axb","4","CN","0","0","true"
"null","","fixation","html-keyboard-response","74","239673","0.0-8.0-0.24","5f07363e47bd2b2e4874684d","condB","","<div class=""vertical-center"" style='width:60%;'><p style='font-weight:bold;'>Does the middle word sound more like the first word (A) or the last word (B)?</p> <br> <div class=""container""> <div id=""a-box""> <p class=""title-text"">A</h3></p> </div> <div id=""x-box""> <p class=""title-text"">X<p> </div> <div id=""b-box""> <p class=""title-text"">B</p></div> <br> <div style='float: left;padding-left:30px;'><p>Press '1' for A</p></div><div style='float: right;padding-right:30px;'><p>Press '0' for B</p> </div> </div></div>","null","","","","","","","","","","","","","",""
"2670","","test","audio-keyboard-response","75","242344","0.0-8.0-1.24","5f07363e47bd2b2e4874684d","condB","","resources/audio/wordStim/S3_AI_25_axb_Step-6.wav","49","","","","","AI","resources/audio/wordStim/S3_AI_25_axb_Step-6.wav","S3","25","axb","6","MI","0","1","false"
"null","","fixation","html-keyboard-response","76","243345","0.0-8.0-0.25","5f07363e47bd2b2e4874684d","condB","","<div class=""vertical-center"" style='width:60%;'><p style='font-weight:bold;'>Does the middle word sound more like the first word (A) or the last word (B)?</p> <br> <div class=""container""> <div id=""a-box""> <p class=""title-text"">A</h3></p> </div> <div id=""x-box""> <p class=""title-text"">X<p> </div> <div id=""b-box""> <p class=""title-text"">B</p></div> <br> <div style='float: left;padding-left:30px;'><p>Press '1' for A</p></div><div style='float: right;padding-right:30px;'><p>Press '0' for B</p> </div> </div></div>","null","","","","","","","","","","","","","",""
"2940","","test","audio-keyboard-response","77","246281","0.0-8.0-1.25","5f07363e47bd2b2e4874684d","condB","","resources/audio/wordStim/S3_AI_29_axb_Step-2.wav","49","","","","","AI","resources/audio/wordStim/S3_AI_29_axb_Step-2.wav","S3","29","axb","2","MI","0","1","false"
"null","","fixation","html-keyboard-response","78","247283","0.0-8.0-0.26","5f07363e47bd2b2e4874684d","condB","","<div class=""vertical-center"" style='width:60%;'><p style='font-weight:bold;'>Does the middle word sound more like the first word (A) or the last word (B)?</p> <br> <div class=""container""> <div id=""a-box""> <p class=""title-text"">A</h3></p> </div> <div id=""x-box""> <p class=""title-text"">X<p> </div> <div id=""b-box""> <p class=""title-text"">B</p></div> <br> <div style='float: left;padding-left:30px;'><p>Press '1' for A</p></div><div style='float: right;padding-right:30px;'><p>Press '0' for B</p> </div> </div></div>","null","","","","","","","","","","","","","",""
"2929","","test","audio-keyboard-response","79","250217","0.0-8.0-1.26","5f07363e47bd2b2e4874684d","condB","","resources/audio/wordStim/S9_AU_18_axb_Step-8.wav","48","","","","","AU","resources/audio/wordStim/S9_AU_18_axb_Step-8.wav","S9","18","axb","8","CN","0","0","true"
"1210.689999978058","","break","html-keyboard-response","80","251929","0.0-8.0-2.26-0.26","5f07363e47bd2b2e4874684d","condB","","<div class=""vertical-center""><p>Feel free to take a break!</p><i>When you're ready to continue, press SPACE to begin the next trial.</i></p></div>","32","","","","","","","","","","","","","",""
"null","","fixation","html-keyboard-response","81","252430","0.0-8.0-0.27","5f07363e47bd2b2e4874684d","condB","","<div class=""vertical-center"" style='width:60%;'><p style='font-weight:bold;'>Does the middle word sound more like the first word (A) or the last word (B)?</p> <br> <div class=""container""> <div id=""a-box""> <p class=""title-text"">A</h3></p> </div> <div id=""x-box""> <p class=""title-text"">X<p> </div> <div id=""b-box""> <p class=""title-text"">B</p></div> <br> <div style='float: left;padding-left:30px;'><p>Press '1' for A</p></div><div style='float: right;padding-right:30px;'><p>Press '0' for B</p> </div> </div></div>","null","","","","","","","","","","","","","",""
"2969","","test","audio-keyboard-response","82","255402","0.0-8.0-1.27","5f07363e47bd2b2e4874684d","condB","","resources/audio/wordStim/S9_AU_17_bxa_Step-3.wav","48","","","","","AU","resources/audio/wordStim/S9_AU_17_bxa_Step-3.wav","S9","17","bxa","3","CN","1","0","false"
"null","","fixation","html-keyboard-response","83","256404","0.0-8.0-0.28","5f07363e47bd2b2e4874684d","condB","","<div class=""vertical-center"" style='width:60%;'><p style='font-weight:bold;'>Does the middle word sound more like the first word (A) or the last word (B)?</p> <br> <div class=""container""> <div id=""a-box""> <p class=""title-text"">A</h3></p> </div> <div id=""x-box""> <p class=""title-text"">X<p> </div> <div id=""b-box""> <p class=""title-text"">B</p></div> <br> <div style='float: left;padding-left:30px;'><p>Press '1' for A</p></div><div style='float: right;padding-right:30px;'><p>Press '0' for B</p> </div> </div></div>","null","","","","","","","","","","","","","",""
"10580","","test","audio-keyboard-response","84","266980","0.0-8.0-1.28","5f07363e47bd2b2e4874684d","condB","","resources/audio/wordStim/S9_AU_13_bxa_Step-10.wav","49","","","","","AU","resources/audio/wordStim/S9_AU_13_bxa_Step-10.wav","S9","13","bxa","10","CN","1","1","true"
"null","","fixation","html-keyboard-response","85","268906","0.0-8.0-0.29","5f07363e47bd2b2e4874684d","condB","","<div class=""vertical-center"" style='width:60%;'><p style='font-weight:bold;'>Does the middle word sound more like the first word (A) or the last word (B)?</p> <br> <div class=""container""> <div id=""a-box""> <p class=""title-text"">A</h3></p> </div> <div id=""x-box""> <p class=""title-text"">X<p> </div> <div id=""b-box""> <p class=""title-text"">B</p></div> <br> <div style='float: left;padding-left:30px;'><p>Press '1' for A</p></div><div style='float: right;padding-right:30px;'><p>Press '0' for B</p> </div> </div></div>","null","","","","","","","","","","","","","",""
"6609","","test","audio-keyboard-response","86","275517","0.0-8.0-1.29","5f07363e47bd2b2e4874684d","condB","","resources/audio/wordStim/S3_AI_22_bxa_Step-3.wav","49","","","","","AI","resources/audio/wordStim/S3_AI_22_bxa_Step-3.wav","S3","22","bxa","3","MI","1","1","true"
"null","","fixation","html-keyboard-response","87","276519","0.0-8.0-0.30","5f07363e47bd2b2e4874684d","condB","","<div class=""vertical-center"" style='width:60%;'><p style='font-weight:bold;'>Does the middle word sound more like the first word (A) or the last word (B)?</p> <br> <div class=""container""> <div id=""a-box""> <p class=""title-text"">A</h3></p> </div> <div id=""x-box""> <p class=""title-text"">X<p> </div> <div id=""b-box""> <p class=""title-text"">B</p></div> <br> <div style='float: left;padding-left:30px;'><p>Press '1' for A</p></div><div style='float: right;padding-right:30px;'><p>Press '0' for B</p> </div> </div></div>","null","","","","","","","","","","","","","",""
"261","","test","audio-keyboard-response","88","276782","0.0-8.0-1.30","5f07363e47bd2b2e4874684d","condB","","resources/audio/wordStim/S3_AI_23_bxa_Step-7.wav","49","","","","","AI","resources/audio/wordStim/S3_AI_23_bxa_Step-7.wav","S3","23","bxa","7","MI","1","1","true"
"null","","fixation","html-keyboard-response","89","277785","0.0-8.0-0.31","5f07363e47bd2b2e4874684d","condB","","<div class=""vertical-center"" style='width:60%;'><p style='font-weight:bold;'>Does the middle word sound more like the first word (A) or the last word (B)?</p> <br> <div class=""container""> <div id=""a-box""> <p class=""title-text"">A</h3></p> </div> <div id=""x-box""> <p class=""title-text"">X<p> </div> <div id=""b-box""> <p class=""title-text"">B</p></div> <br> <div style='float: left;padding-left:30px;'><p>Press '1' for A</p></div><div style='float: right;padding-right:30px;'><p>Press '0' for B</p> </div> </div></div>","null","","","","","","","","","","","","","",""
"70","","test","audio-keyboard-response","90","277853","0.0-8.0-1.31","5f07363e47bd2b2e4874684d","condB","","resources/audio/wordStim/S3_AU_11_bxa_Step-9.wav","49","","","","","AU","resources/audio/wordStim/S3_AU_11_bxa_Step-9.wav","S3","11","bxa","9","MI","1","1","true"
"null","","fixation","html-keyboard-response","91","278855","0.0-8.0-0.32","5f07363e47bd2b2e4874684d","condB","","<div class=""vertical-center"" style='width:60%;'><p style='font-weight:bold;'>Does the middle word sound more like the first word (A) or the last word (B)?</p> <br> <div class=""container""> <div id=""a-box""> <p class=""title-text"">A</h3></p> </div> <div id=""x-box""> <p class=""title-text"">X<p> </div> <div id=""b-box""> <p class=""title-text"">B</p></div> <br> <div style='float: left;padding-left:30px;'><p>Press '1' for A</p></div><div style='float: right;padding-right:30px;'><p>Press '0' for B</p> </div> </div></div>","null","","","","","","","","","","","","","",""
"9","","test","audio-keyboard-response","92","278861","0.0-8.0-1.32","5f07363e47bd2b2e4874684d","condB","","resources/audio/wordStim/S3_AU_14_bxa_Step-3.wav","48","","","","","AU","resources/audio/wordStim/S3_AU_14_bxa_Step-3.wav","S3","14","bxa","3","MI","1","0","false"
"null","","fixation","html-keyboard-response","93","279864","0.0-8.0-0.33","5f07363e47bd2b2e4874684d","condB","","<div class=""vertical-center"" style='width:60%;'><p style='font-weight:bold;'>Does the middle word sound more like the first word (A) or the last word (B)?</p> <br> <div class=""container""> <div id=""a-box""> <p class=""title-text"">A</h3></p> </div> <div id=""x-box""> <p class=""title-text"">X<p> </div> <div id=""b-box""> <p class=""title-text"">B</p></div> <br> <div style='float: left;padding-left:30px;'><p>Press '1' for A</p></div><div style='float: right;padding-right:30px;'><p>Press '0' for B</p> </div> </div></div>","null","","","","","","","","","","","","","",""
"49","","test","audio-keyboard-response","94","279910","0.0-8.0-1.33","5f07363e47bd2b2e4874684d","condB","","resources/audio/wordStim/S3_AU_15_axb_Step-2.wav","49","","","","","AU","resources/audio/wordStim/S3_AU_15_axb_Step-2.wav","S3","15","axb","2","MI","0","1","false"
"null","","fixation","html-keyboard-response","95","280911","0.0-8.0-0.34","5f07363e47bd2b2e4874684d","condB","","<div class=""vertical-center"" style='width:60%;'><p style='font-weight:bold;'>Does the middle word sound more like the first word (A) or the last word (B)?</p> <br> <div class=""container""> <div id=""a-box""> <p class=""title-text"">A</h3></p> </div> <div id=""x-box""> <p class=""title-text"">X<p> </div> <div id=""b-box""> <p class=""title-text"">B</p></div> <br> <div style='float: left;padding-left:30px;'><p>Press '1' for A</p></div><div style='float: right;padding-right:30px;'><p>Press '0' for B</p> </div> </div></div>","null","","","","","","","","","","","","","",""
"110","","test","audio-keyboard-response","96","281021","0.0-8.0-1.34","5f07363e47bd2b2e4874684d","condB","","resources/audio/wordStim/S9_AU_20_bxa_Step-10.wav","48","","","","","AU","resources/audio/wordStim/S9_AU_20_bxa_Step-10.wav","S9","20","bxa","10","CN","1","0","false"
"null","","fixation","html-keyboard-response","97","282024","0.0-8.0-0.35","5f07363e47bd2b2e4874684d","condB","","<div class=""vertical-center"" style='width:60%;'><p style='font-weight:bold;'>Does the middle word sound more like the first word (A) or the last word (B)?</p> <br> <div class=""container""> <div id=""a-box""> <p class=""title-text"">A</h3></p> </div> <div id=""x-box""> <p class=""title-text"">X<p> </div> <div id=""b-box""> <p class=""title-text"">B</p></div> <br> <div style='float: left;padding-left:30px;'><p>Press '1' for A</p></div><div style='float: right;padding-right:30px;'><p>Press '0' for B</p> </div> </div></div>","null","","","","","","","","","","","","","",""
"9","","test","audio-keyboard-response","98","282038","0.0-8.0-1.35","5f07363e47bd2b2e4874684d","condB","","resources/audio/wordStim/S9_AU_11_bxa_Step-3.wav","48","","","","","AU","resources/audio/wordStim/S9_AU_11_bxa_Step-3.wav","S9","11","bxa","3","CN","1","0","false"
"null","","fixation","html-keyboard-response","99","283041","0.0-8.0-0.36","5f07363e47bd2b2e4874684d","condB","","<div class=""vertical-center"" style='width:60%;'><p style='font-weight:bold;'>Does the middle word sound more like the first word (A) or the last word (B)?</p> <br> <div class=""container""> <div id=""a-box""> <p class=""title-text"">A</h3></p> </div> <div id=""x-box""> <p class=""title-text"">X<p> </div> <div id=""b-box""> <p class=""title-text"">B</p></div> <br> <div style='float: left;padding-left:30px;'><p>Press '1' for A</p></div><div style='float: right;padding-right:30px;'><p>Press '0' for B</p> </div> </div></div>","null","","","","","","","","","","","","","",""
"110","","test","audio-keyboard-response","100","283150","0.0-8.0-1.36","5f07363e47bd2b2e4874684d","condB","","resources/audio/wordStim/S9_AU_17_axb_Step-2.wav","49","","","","","AU","resources/audio/wordStim/S9_AU_17_axb_Step-2.wav","S9","17","axb","2","CN","0","1","false"
"null","","fixation","html-keyboard-response","101","284153","0.0-8.0-0.37","5f07363e47bd2b2e4874684d","condB","","<div class=""vertical-center"" style='width:60%;'><p style='font-weight:bold;'>Does the middle word sound more like the first word (A) or the last word (B)?</p> <br> <div class=""container""> <div id=""a-box""> <p class=""title-text"">A</h3></p> </div> <div id=""x-box""> <p class=""title-text"">X<p> </div> <div id=""b-box""> <p class=""title-text"">B</p></div> <br> <div style='float: left;padding-left:30px;'><p>Press '1' for A</p></div><div style='float: right;padding-right:30px;'><p>Press '0' for B</p> </div> </div></div>","null","","","","","","","","","","","","","",""
"9","","test","audio-keyboard-response","102","284166","0.0-8.0-1.37","5f07363e47bd2b2e4874684d","condB","","resources/audio/wordStim/S3_AU_17_axb_Step-4.wav","48","","","","","AU","resources/audio/wordStim/S3_AU_17_axb_Step-4.wav","S3","17","axb","4","MI","0","0","true"
"null","","fixation","html-keyboard-response","103","285168","0.0-8.0-0.38","5f07363e47bd2b2e4874684d","condB","","<div class=""vertical-center"" style='width:60%;'><p style='font-weight:bold;'>Does the middle word sound more like the first word (A) or the last word (B)?</p> <br> <div class=""container""> <div id=""a-box""> <p class=""title-text"">A</h3></p> </div> <div id=""x-box""> <p class=""title-text"">X<p> </div> <div id=""b-box""> <p class=""title-text"">B</p></div> <br> <div style='float: left;padding-left:30px;'><p>Press '1' for A</p></div><div style='float: right;padding-right:30px;'><p>Press '0' for B</p> </div> </div></div>","null","","","","","","","","","","","","","",""
"148","","test","audio-keyboard-response","104","285319","0.0-8.0-1.38","5f07363e47bd2b2e4874684d","condB","","resources/audio/wordStim/S9_AI_27_bxa_Step-10.wav","49","","","","","AI","resources/audio/wordStim/S9_AI_27_bxa_Step-10.wav","S9","27","bxa","10","CN","1","1","true"
"null","","fixation","html-keyboard-response","105","286321","0.0-8.0-0.39","5f07363e47bd2b2e4874684d","condB","","<div class=""vertical-center"" style='width:60%;'><p style='font-weight:bold;'>Does the middle word sound more like the first word (A) or the last word (B)?</p> <br> <div class=""container""> <div id=""a-box""> <p class=""title-text"">A</h3></p> </div> <div id=""x-box""> <p class=""title-text"">X<p> </div> <div id=""b-box""> <p class=""title-text"">B</p></div> <br> <div style='float: left;padding-left:30px;'><p>Press '1' for A</p></div><div style='float: right;padding-right:30px;'><p>Press '0' for B</p> </div> </div></div>","null","","","","","","","","","","","","","",""
"32","","test","audio-keyboard-response","106","286350","0.0-8.0-1.39","5f07363e47bd2b2e4874684d","condB","","resources/audio/wordStim/S9_AU_11_axb_Step-4.wav","48","","","","","AU","resources/audio/wordStim/S9_AU_11_axb_Step-4.wav","S9","11","axb","4","CN","0","0","true"
"null","","fixation","html-keyboard-response","107","287352","0.0-8.0-0.40","5f07363e47bd2b2e4874684d","condB","","<div class=""vertical-center"" style='width:60%;'><p style='font-weight:bold;'>Does the middle word sound more like the first word (A) or the last word (B)?</p> <br> <div class=""container""> <div id=""a-box""> <p class=""title-text"">A</h3></p> </div> <div id=""x-box""> <p class=""title-text"">X<p> </div> <div id=""b-box""> <p class=""title-text"">B</p></div> <br> <div style='float: left;padding-left:30px;'><p>Press '1' for A</p></div><div style='float: right;padding-right:30px;'><p>Press '0' for B</p> </div> </div></div>","null","","","","","","","","","","","","","",""
"81","","test","audio-keyboard-response","108","287431","0.0-8.0-1.40","5f07363e47bd2b2e4874684d","condB","","resources/audio/wordStim/S9_AU_16_axb_Step-2.wav","49","","","","","AU","resources/audio/wordStim/S9_AU_16_axb_Step-2.wav","S9","16","axb","2","CN","0","1","false"
"null","","fixation","html-keyboard-response","109","288433","0.0-8.0-0.41","5f07363e47bd2b2e4874684d","condB","","<div class=""vertical-center"" style='width:60%;'><p style='font-weight:bold;'>Does the middle word sound more like the first word (A) or the last word (B)?</p> <br> <div class=""container""> <div id=""a-box""> <p class=""title-text"">A</h3></p> </div> <div id=""x-box""> <p class=""title-text"">X<p> </div> <div id=""b-box""> <p class=""title-text"">B</p></div> <br> <div style='float: left;padding-left:30px;'><p>Press '1' for A</p></div><div style='float: right;padding-right:30px;'><p>Press '0' for B</p> </div> </div></div>","null","","","","","","","","","","","","","",""
"52","","test","audio-keyboard-response","110","288487","0.0-8.0-1.41","5f07363e47bd2b2e4874684d","condB","","resources/audio/wordStim/S3_AU_19_axb_Step-8.wav","48","","","","","AU","resources/audio/wordStim/S3_AU_19_axb_Step-8.wav","S3","19","axb","8","MI","0","0","true"
"null","","fixation","html-keyboard-response","111","289488","0.0-8.0-0.42","5f07363e47bd2b2e4874684d","condB","","<div class=""vertical-center"" style='width:60%;'><p style='font-weight:bold;'>Does the middle word sound more like the first word (A) or the last word (B)?</p> <br> <div class=""container""> <div id=""a-box""> <p class=""title-text"">A</h3></p> </div> <div id=""x-box""> <p class=""title-text"">X<p> </div> <div id=""b-box""> <p class=""title-text"">B</p></div> <br> <div style='float: left;padding-left:30px;'><p>Press '1' for A</p></div><div style='float: right;padding-right:30px;'><p>Press '0' for B</p> </div> </div></div>","null","","","","","","","","","","","","","",""
"17","","test","audio-keyboard-response","112","289519","0.0-8.0-1.42","5f07363e47bd2b2e4874684d","condB","","resources/audio/wordStim/S3_AI_22_axb_Step-4.wav","48","","","","","AI","resources/audio/wordStim/S3_AI_22_axb_Step-4.wav","S3","22","axb","4","MI","0","0","true"
"null","","fixation","html-keyboard-response","113","290521","0.0-8.0-0.43","5f07363e47bd2b2e4874684d","condB","","<div class=""vertical-center"" style='width:60%;'><p style='font-weight:bold;'>Does the middle word sound more like the first word (A) or the last word (B)?</p> <br> <div class=""container""> <div id=""a-box""> <p class=""title-text"">A</h3></p> </div> <div id=""x-box""> <p class=""title-text"">X<p> </div> <div id=""b-box""> <p class=""title-text"">B</p></div> <br> <div style='float: left;padding-left:30px;'><p>Press '1' for A</p></div><div style='float: right;padding-right:30px;'><p>Press '0' for B</p> </div> </div></div>","null","","","","","","","","","","","","","",""
"0","","test","audio-keyboard-response","114","290527","0.0-8.0-1.43","5f07363e47bd2b2e4874684d","condB","","resources/audio/wordStim/S9_AI_23_bxa_Step-3.wav","48","","","","","AI","resources/audio/wordStim/S9_AI_23_bxa_Step-3.wav","S9","23","bxa","3","CN","1","0","false"
"null","","fixation","html-keyboard-response","115","291529","0.0-8.0-0.44","5f07363e47bd2b2e4874684d","condB","","<div class=""vertical-center"" style='width:60%;'><p style='font-weight:bold;'>Does the middle word sound more like the first word (A) or the last word (B)?</p> <br> <div class=""container""> <div id=""a-box""> <p class=""title-text"">A</h3></p> </div> <div id=""x-box""> <p class=""title-text"">X<p> </div> <div id=""b-box""> <p class=""title-text"">B</p></div> <br> <div style='float: left;padding-left:30px;'><p>Press '1' for A</p></div><div style='float: right;padding-right:30px;'><p>Press '0' for B</p> </div> </div></div>","null","","","","","","","","","","","","","",""
"29","","test","audio-keyboard-response","116","291559","0.0-8.0-1.44","5f07363e47bd2b2e4874684d","condB","","resources/audio/wordStim/S3_AU_15_bxa_Step-7.wav","48","","","","","AU","resources/audio/wordStim/S3_AU_15_bxa_Step-7.wav","S3","15","bxa","7","MI","1","0","false"
"null","","fixation","html-keyboard-response","117","292562","0.0-8.0-0.45","5f07363e47bd2b2e4874684d","condB","","<div class=""vertical-center"" style='width:60%;'><p style='font-weight:bold;'>Does the middle word sound more like the first word (A) or the last word (B)?</p> <br> <div class=""container""> <div id=""a-box""> <p class=""title-text"">A</h3></p> </div> <div id=""x-box""> <p class=""title-text"">X<p> </div> <div id=""b-box""> <p class=""title-text"">B</p></div> <br> <div style='float: left;padding-left:30px;'><p>Press '1' for A</p></div><div style='float: right;padding-right:30px;'><p>Press '0' for B</p> </div> </div></div>","null","","","","","","","","","","","","","",""
"32","","test","audio-keyboard-response","118","292591","0.0-8.0-1.45","5f07363e47bd2b2e4874684d","condB","","resources/audio/wordStim/S9_AI_29_axb_Step-6.wav","48","","","","","AI","resources/audio/wordStim/S9_AI_29_axb_Step-6.wav","S9","29","axb","6","CN","0","0","true"
"null","","fixation","html-keyboard-response","119","293593","0.0-8.0-0.46","5f07363e47bd2b2e4874684d","condB","","<div class=""vertical-center"" style='width:60%;'><p style='font-weight:bold;'>Does the middle word sound more like the first word (A) or the last word (B)?</p> <br> <div class=""container""> <div id=""a-box""> <p class=""title-text"">A</h3></p> </div> <div id=""x-box""> <p class=""title-text"">X<p> </div> <div id=""b-box""> <p class=""title-text"">B</p></div> <br> <div style='float: left;padding-left:30px;'><p>Press '1' for A</p></div><div style='float: right;padding-right:30px;'><p>Press '0' for B</p> </div> </div></div>","null","","","","","","","","","","","","","",""
"12","","test","audio-keyboard-response","120","293607","0.0-8.0-1.46","5f07363e47bd2b2e4874684d","condB","","resources/audio/wordStim/S3_AU_19_bxa_Step-7.wav","49","","","","","AU","resources/audio/wordStim/S3_AU_19_bxa_Step-7.wav","S3","19","bxa","7","MI","1","1","true"
"null","","fixation","html-keyboard-response","121","294610","0.0-8.0-0.47","5f07363e47bd2b2e4874684d","condB","","<div class=""vertical-center"" style='width:60%;'><p style='font-weight:bold;'>Does the middle word sound more like the first word (A) or the last word (B)?</p> <br> <div class=""container""> <div id=""a-box""> <p class=""title-text"">A</h3></p> </div> <div id=""x-box""> <p class=""title-text"">X<p> </div> <div id=""b-box""> <p class=""title-text"">B</p></div> <br> <div style='float: left;padding-left:30px;'><p>Press '1' for A</p></div><div style='float: right;padding-right:30px;'><p>Press '0' for B</p> </div> </div></div>","null","","","","","","","","","","","","","",""
"29","","test","audio-keyboard-response","122","294640","0.0-8.0-1.47","5f07363e47bd2b2e4874684d","condB","","resources/audio/wordStim/S9_AU_17_bxa_Step-9.wav","49","","","","","AU","resources/audio/wordStim/S9_AU_17_bxa_Step-9.wav","S9","17","bxa","9","CN","1","1","true"
"null","","fixation","html-keyboard-response","123","295642","0.0-8.0-0.48","5f07363e47bd2b2e4874684d","condB","","<div class=""vertical-center"" style='width:60%;'><p style='font-weight:bold;'>Does the middle word sound more like the first word (A) or the last word (B)?</p> <br> <div class=""container""> <div id=""a-box""> <p class=""title-text"">A</h3></p> </div> <div id=""x-box""> <p class=""title-text"">X<p> </div> <div id=""b-box""> <p class=""title-text"">B</p></div> <br> <div style='float: left;padding-left:30px;'><p>Press '1' for A</p></div><div style='float: right;padding-right:30px;'><p>Press '0' for B</p> </div> </div></div>","null","","","","","","","","","","","","","",""
"12","","test","audio-keyboard-response","124","295656","0.0-8.0-1.48","5f07363e47bd2b2e4874684d","condB","","resources/audio/wordStim/S3_AI_23_axb_Step-2.wav","48","","","","","AI","resources/audio/wordStim/S3_AI_23_axb_Step-2.wav","S3","23","axb","2","MI","0","0","true"
"null","","fixation","html-keyboard-response","125","296659","0.0-8.0-0.49","5f07363e47bd2b2e4874684d","condB","","<div class=""vertical-center"" style='width:60%;'><p style='font-weight:bold;'>Does the middle word sound more like the first word (A) or the last word (B)?</p> <br> <div class=""container""> <div id=""a-box""> <p class=""title-text"">A</h3></p> </div> <div id=""x-box""> <p class=""title-text"">X<p> </div> <div id=""b-box""> <p class=""title-text"">B</p></div> <br> <div style='float: left;padding-left:30px;'><p>Press '1' for A</p></div><div style='float: right;padding-right:30px;'><p>Press '0' for B</p> </div> </div></div>","null","","","","","","","","","","","","","",""
"99","","test","audio-keyboard-response","126","296768","0.0-8.0-1.49","5f07363e47bd2b2e4874684d","condB","","resources/audio/wordStim/S3_AI_25_bxa_Step-7.wav","49","","","","","AI","resources/audio/wordStim/S3_AI_25_bxa_Step-7.wav","S3","25","bxa","7","MI","1","1","true"
"null","","fixation","html-keyboard-response","127","297772","0.0-8.0-0.50","5f07363e47bd2b2e4874684d","condB","","<div class=""vertical-center"" style='width:60%;'><p style='font-weight:bold;'>Does the middle word sound more like the first word (A) or the last word (B)?</p> <br> <div class=""container""> <div id=""a-box""> <p class=""title-text"">A</h3></p> </div> <div id=""x-box""> <p class=""title-text"">X<p> </div> <div id=""b-box""> <p class=""title-text"">B</p></div> <br> <div style='float: left;padding-left:30px;'><p>Press '1' for A</p></div><div style='float: right;padding-right:30px;'><p>Press '0' for B</p> </div> </div></div>","null","","","","","","","","","","","","","",""
"171","","test","audio-keyboard-response","128","297944","0.0-8.0-1.50","5f07363e47bd2b2e4874684d","condB","","resources/audio/wordStim/S3_AI_28_axb_Step-8.wav","49","","","","","AI","resources/audio/wordStim/S3_AI_28_axb_Step-8.wav","S3","28","axb","8","MI","0","1","false"
"null","","fixation","html-keyboard-response","129","298947","0.0-8.0-0.51","5f07363e47bd2b2e4874684d","condB","","<div class=""vertical-center"" style='width:60%;'><p style='font-weight:bold;'>Does the middle word sound more like the first word (A) or the last word (B)?</p> <br> <div class=""container""> <div id=""a-box""> <p class=""title-text"">A</h3></p> </div> <div id=""x-box""> <p class=""title-text"">X<p> </div> <div id=""b-box""> <p class=""title-text"">B</p></div> <br> <div style='float: left;padding-left:30px;'><p>Press '1' for A</p></div><div style='float: right;padding-right:30px;'><p>Press '0' for B</p> </div> </div></div>","null","","","","","","","","","","","","","",""
"3741","","test","audio-keyboard-response","130","302681","0.0-8.0-1.51","5f07363e47bd2b2e4874684d","condB","","resources/audio/wordStim/S3_AU_18_axb_Step-8.wav","48","","","","","AU","resources/audio/wordStim/S3_AU_18_axb_Step-8.wav","S3","18","axb","8","MI","0","0","true"
"null","","fixation","html-keyboard-response","131","303683","0.0-8.0-0.52","5f07363e47bd2b2e4874684d","condB","","<div class=""vertical-center"" style='width:60%;'><p style='font-weight:bold;'>Does the middle word sound more like the first word (A) or the last word (B)?</p> <br> <div class=""container""> <div id=""a-box""> <p class=""title-text"">A</h3></p> </div> <div id=""x-box""> <p class=""title-text"">X<p> </div> <div id=""b-box""> <p class=""title-text"">B</p></div> <br> <div style='float: left;padding-left:30px;'><p>Press '1' for A</p></div><div style='float: right;padding-right:30px;'><p>Press '0' for B</p> </div> </div></div>","null","","","","","","","","","","","","","",""
"90","","test","audio-keyboard-response","132","303777","0.0-8.0-1.52","5f07363e47bd2b2e4874684d","condB","","resources/audio/wordStim/S9_AI_29_bxa_Step-9.wav","48","","","","","AI","resources/audio/wordStim/S9_AI_29_bxa_Step-9.wav","S9","29","bxa","9","CN","1","0","false"
"null","","fixation","html-keyboard-response","133","304779","0.0-8.0-0.53","5f07363e47bd2b2e4874684d","condB","","<div class=""vertical-center"" style='width:60%;'><p style='font-weight:bold;'>Does the middle word sound more like the first word (A) or the last word (B)?</p> <br> <div class=""container""> <div id=""a-box""> <p class=""title-text"">A</h3></p> </div> <div id=""x-box""> <p class=""title-text"">X<p> </div> <div id=""b-box""> <p class=""title-text"">B</p></div> <br> <div style='float: left;padding-left:30px;'><p>Press '1' for A</p></div><div style='float: right;padding-right:30px;'><p>Press '0' for B</p> </div> </div></div>","null","","","","","","","","","","","","","",""
"180","","test","audio-keyboard-response","134","304961","0.0-8.0-1.53","5f07363e47bd2b2e4874684d","condB","","resources/audio/wordStim/S9_AU_19_bxa_Step-3.wav","48","","","","","AU","resources/audio/wordStim/S9_AU_19_bxa_Step-3.wav","S9","19","bxa","3","CN","1","0","false"
"819.1399999777786","","break","html-keyboard-response","135","306282","0.0-8.0-2.53-0.53","5f07363e47bd2b2e4874684d","condB","","<div class=""vertical-center""><p>Feel free to take a break!</p><i>When you're ready to continue, press SPACE to begin the next trial.</i></p></div>","32","","","","","","","","","","","","","",""
"null","","fixation","html-keyboard-response","136","306784","0.0-8.0-0.54","5f07363e47bd2b2e4874684d","condB","","<div class=""vertical-center"" style='width:60%;'><p style='font-weight:bold;'>Does the middle word sound more like the first word (A) or the last word (B)?</p> <br> <div class=""container""> <div id=""a-box""> <p class=""title-text"">A</h3></p> </div> <div id=""x-box""> <p class=""title-text"">X<p> </div> <div id=""b-box""> <p class=""title-text"">B</p></div> <br> <div style='float: left;padding-left:30px;'><p>Press '1' for A</p></div><div style='float: right;padding-right:30px;'><p>Press '0' for B</p> </div> </div></div>","null","","","","","","","","","","","","","",""
"392","","test","audio-keyboard-response","137","307170","0.0-8.0-1.54","5f07363e47bd2b2e4874684d","condB","","resources/audio/wordStim/S9_AI_25_bxa_Step-5.wav","48","","","","","AI","resources/audio/wordStim/S9_AI_25_bxa_Step-5.wav","S9","25","bxa","5","CN","1","0","false"
"null","","fixation","html-keyboard-response","138","308172","0.0-8.0-0.55","5f07363e47bd2b2e4874684d","condB","","<div class=""vertical-center"" style='width:60%;'><p style='font-weight:bold;'>Does the middle word sound more like the first word (A) or the last word (B)?</p> <br> <div class=""container""> <div id=""a-box""> <p class=""title-text"">A</h3></p> </div> <div id=""x-box""> <p class=""title-text"">X<p> </div> <div id=""b-box""> <p class=""title-text"">B</p></div> <br> <div style='float: left;padding-left:30px;'><p>Press '1' for A</p></div><div style='float: right;padding-right:30px;'><p>Press '0' for B</p> </div> </div></div>","null","","","","","","","","","","","","","",""
"160","","test","audio-keyboard-response","139","308330","0.0-8.0-1.55","5f07363e47bd2b2e4874684d","condB","","resources/audio/wordStim/S9_AI_29_bxa_Step-3.wav","49","","","","","AI","resources/audio/wordStim/S9_AI_29_bxa_Step-3.wav","S9","29","bxa","3","CN","1","1","true"
"null","","fixation","html-keyboard-response","140","309331","0.0-8.0-0.56","5f07363e47bd2b2e4874684d","condB","","<div class=""vertical-center"" style='width:60%;'><p style='font-weight:bold;'>Does the middle word sound more like the first word (A) or the last word (B)?</p> <br> <div class=""container""> <div id=""a-box""> <p class=""title-text"">A</h3></p> </div> <div id=""x-box""> <p class=""title-text"">X<p> </div> <div id=""b-box""> <p class=""title-text"">B</p></div> <br> <div style='float: left;padding-left:30px;'><p>Press '1' for A</p></div><div style='float: right;padding-right:30px;'><p>Press '0' for B</p> </div> </div></div>","null","","","","","","","","","","","","","",""
"209","","test","audio-keyboard-response","141","309546","0.0-8.0-1.56","5f07363e47bd2b2e4874684d","condB","","resources/audio/wordStim/S9_AU_17_bxa_Step-5.wav","48","","","","","AU","resources/audio/wordStim/S9_AU_17_bxa_Step-5.wav","S9","17","bxa","5","CN","1","0","false"
"null","","fixation","html-keyboard-response","142","310548","0.0-8.0-0.57","5f07363e47bd2b2e4874684d","condB","","<div class=""vertical-center"" style='width:60%;'><p style='font-weight:bold;'>Does the middle word sound more like the first word (A) or the last word (B)?</p> <br> <div class=""container""> <div id=""a-box""> <p class=""title-text"">A</h3></p> </div> <div id=""x-box""> <p class=""title-text"">X<p> </div> <div id=""b-box""> <p class=""title-text"">B</p></div> <br> <div style='float: left;padding-left:30px;'><p>Press '1' for A</p></div><div style='float: right;padding-right:30px;'><p>Press '0' for B</p> </div> </div></div>","null","","","","","","","","","","","","","",""
"20","","test","audio-keyboard-response","143","310562","0.0-8.0-1.57","5f07363e47bd2b2e4874684d","condB","","resources/audio/wordStim/S3_AU_20_axb_Step-4.wav","48","","","","","AU","resources/audio/wordStim/S3_AU_20_axb_Step-4.wav","S3","20","axb","4","MI","0","0","true"
"null","","fixation","html-keyboard-response","144","311565","0.0-8.0-0.58","5f07363e47bd2b2e4874684d","condB","","<div class=""vertical-center"" style='width:60%;'><p style='font-weight:bold;'>Does the middle word sound more like the first word (A) or the last word (B)?</p> <br> <div class=""container""> <div id=""a-box""> <p class=""title-text"">A</h3></p> </div> <div id=""x-box""> <p class=""title-text"">X<p> </div> <div id=""b-box""> <p class=""title-text"">B</p></div> <br> <div style='float: left;padding-left:30px;'><p>Press '1' for A</p></div><div style='float: right;padding-right:30px;'><p>Press '0' for B</p> </div> </div></div>","null","","","","","","","","","","","","","",""
"351","","test","audio-keyboard-response","145","311914","0.0-8.0-1.58","5f07363e47bd2b2e4874684d","condB","","resources/audio/wordStim/S3_AI_30_bxa_Step-3.wav","49","","","","","AI","resources/audio/wordStim/S3_AI_30_bxa_Step-3.wav","S3","30","bxa","3","MI","1","1","true"
"null","","fixation","html-keyboard-response","146","312916","0.0-8.0-0.59","5f07363e47bd2b2e4874684d","condB","","<div class=""vertical-center"" style='width:60%;'><p style='font-weight:bold;'>Does the middle word sound more like the first word (A) or the last word (B)?</p> <br> <div class=""container""> <div id=""a-box""> <p class=""title-text"">A</h3></p> </div> <div id=""x-box""> <p class=""title-text"">X<p> </div> <div id=""b-box""> <p class=""title-text"">B</p></div> <br> <div style='float: left;padding-left:30px;'><p>Press '1' for A</p></div><div style='float: right;padding-right:30px;'><p>Press '0' for B</p> </div> </div></div>","null","","","","","","","","","","","","","",""
"102","","test","audio-keyboard-response","147","313019","0.0-8.0-1.59","5f07363e47bd2b2e4874684d","condB","","resources/audio/wordStim/S3_AU_16_bxa_Step-10.wav","48","","","","","AU","resources/audio/wordStim/S3_AU_16_bxa_Step-10.wav","S3","16","bxa","10","MI","1","0","false"
"null","","fixation","html-keyboard-response","148","314020","0.0-8.0-0.60","5f07363e47bd2b2e4874684d","condB","","<div class=""vertical-center"" style='width:60%;'><p style='font-weight:bold;'>Does the middle word sound more like the first word (A) or the last word (B)?</p> <br> <div class=""container""> <div id=""a-box""> <p class=""title-text"">A</h3></p> </div> <div id=""x-box""> <p class=""title-text"">X<p> </div> <div id=""b-box""> <p class=""title-text"">B</p></div> <br> <div style='float: left;padding-left:30px;'><p>Press '1' for A</p></div><div style='float: right;padding-right:30px;'><p>Press '0' for B</p> </div> </div></div>","null","","","","","","","","","","","","","",""
"0","","test","audio-keyboard-response","149","314027","0.0-8.0-1.60","5f07363e47bd2b2e4874684d","condB","","resources/audio/wordStim/S3_AI_22_axb_Step-8.wav","49","","","","","AI","resources/audio/wordStim/S3_AI_22_axb_Step-8.wav","S3","22","axb","8","MI","0","1","false"
"null","","fixation","html-keyboard-response","150","315029","0.0-8.0-0.61","5f07363e47bd2b2e4874684d","condB","","<div class=""vertical-center"" style='width:60%;'><p style='font-weight:bold;'>Does the middle word sound more like the first word (A) or the last word (B)?</p> <br> <div class=""container""> <div id=""a-box""> <p class=""title-text"">A</h3></p> </div> <div id=""x-box""> <p class=""title-text"">X<p> </div> <div id=""b-box""> <p class=""title-text"">B</p></div> <br> <div style='float: left;padding-left:30px;'><p>Press '1' for A</p></div><div style='float: right;padding-right:30px;'><p>Press '0' for B</p> </div> </div></div>","null","","","","","","","","","","","","","",""
"479","","test","audio-keyboard-response","151","315515","0.0-8.0-1.61","5f07363e47bd2b2e4874684d","condB","","resources/audio/wordStim/S9_AI_30_bxa_Step-9.wav","48","","","","","AI","resources/audio/wordStim/S9_AI_30_bxa_Step-9.wav","S9","30","bxa","9","CN","1","0","false"
"null","","fixation","html-keyboard-response","152","316518","0.0-8.0-0.62","5f07363e47bd2b2e4874684d","condB","","<div class=""vertical-center"" style='width:60%;'><p style='font-weight:bold;'>Does the middle word sound more like the first word (A) or the last word (B)?</p> <br> <div class=""container""> <div id=""a-box""> <p class=""title-text"">A</h3></p> </div> <div id=""x-box""> <p class=""title-text"">X<p> </div> <div id=""b-box""> <p class=""title-text"">B</p></div> <br> <div style='float: left;padding-left:30px;'><p>Press '1' for A</p></div><div style='float: right;padding-right:30px;'><p>Press '0' for B</p> </div> </div></div>","null","","","","","","","","","","","","","",""
"618","","test","audio-keyboard-response","153","317131","0.0-8.0-1.62","5f07363e47bd2b2e4874684d","condB","","resources/audio/wordStim/S3_AI_29_bxa_Step-9.wav","49","","","","","AI","resources/audio/wordStim/S3_AI_29_bxa_Step-9.wav","S3","29","bxa","9","MI","1","1","true"
"null","","fixation","html-keyboard-response","154","318133","0.0-8.0-0.63","5f07363e47bd2b2e4874684d","condB","","<div class=""vertical-center"" style='width:60%;'><p style='font-weight:bold;'>Does the middle word sound more like the first word (A) or the last word (B)?</p> <br> <div class=""container""> <div id=""a-box""> <p class=""title-text"">A</h3></p> </div> <div id=""x-box""> <p class=""title-text"">X<p> </div> <div id=""b-box""> <p class=""title-text"">B</p></div> <br> <div style='float: left;padding-left:30px;'><p>Press '1' for A</p></div><div style='float: right;padding-right:30px;'><p>Press '0' for B</p> </div> </div></div>","null","","","","","","","","","","","","","",""
"180","","test","audio-keyboard-response","155","318315","0.0-8.0-1.63","5f07363e47bd2b2e4874684d","condB","","resources/audio/wordStim/S3_AI_22_axb_Step-2.wav","49","","","","","AI","resources/audio/wordStim/S3_AI_22_axb_Step-2.wav","S3","22","axb","2","MI","0","1","false"
"null","","fixation","html-keyboard-response","156","319318","0.0-8.0-0.64","5f07363e47bd2b2e4874684d","condB","","<div class=""vertical-center"" style='width:60%;'><p style='font-weight:bold;'>Does the middle word sound more like the first word (A) or the last word (B)?</p> <br> <div class=""container""> <div id=""a-box""> <p class=""title-text"">A</h3></p> </div> <div id=""x-box""> <p class=""title-text"">X<p> </div> <div id=""b-box""> <p class=""title-text"">B</p></div> <br> <div style='float: left;padding-left:30px;'><p>Press '1' for A</p></div><div style='float: right;padding-right:30px;'><p>Press '0' for B</p> </div> </div></div>","null","","","","","","","","","","","","","",""
"221","","test","audio-keyboard-response","157","319539","0.0-8.0-1.64","5f07363e47bd2b2e4874684d","condB","","resources/audio/wordStim/S9_AI_22_axb_Step-6.wav","48","","","","","AI","resources/audio/wordStim/S9_AI_22_axb_Step-6.wav","S9","22","axb","6","CN","0","0","true"
"null","","fixation","html-keyboard-response","158","320541","0.0-8.0-0.65","5f07363e47bd2b2e4874684d","condB","","<div class=""vertical-center"" style='width:60%;'><p style='font-weight:bold;'>Does the middle word sound more like the first word (A) or the last word (B)?</p> <br> <div class=""container""> <div id=""a-box""> <p class=""title-text"">A</h3></p> </div> <div id=""x-box""> <p class=""title-text"">X<p> </div> <div id=""b-box""> <p class=""title-text"">B</p></div> <br> <div style='float: left;padding-left:30px;'><p>Press '1' for A</p></div><div style='float: right;padding-right:30px;'><p>Press '0' for B</p> </div> </div></div>","null","","","","","","","","","","","","","",""
"0","","test","audio-keyboard-response","159","320548","0.0-8.0-1.65","5f07363e47bd2b2e4874684d","condB","","resources/audio/wordStim/S9_AU_17_axb_Step-4.wav","49","","","","","AU","resources/audio/wordStim/S9_AU_17_axb_Step-4.wav","S9","17","axb","4","CN","0","1","false"
"null","","fixation","html-keyboard-response","160","321552","0.0-8.0-0.66","5f07363e47bd2b2e4874684d","condB","","<div class=""vertical-center"" style='width:60%;'><p style='font-weight:bold;'>Does the middle word sound more like the first word (A) or the last word (B)?</p> <br> <div class=""container""> <div id=""a-box""> <p class=""title-text"">A</h3></p> </div> <div id=""x-box""> <p class=""title-text"">X<p> </div> <div id=""b-box""> <p class=""title-text"">B</p></div> <br> <div style='float: left;padding-left:30px;'><p>Press '1' for A</p></div><div style='float: right;padding-right:30px;'><p>Press '0' for B</p> </div> </div></div>","null","","","","","","","","","","","","","",""
"131","","test","audio-keyboard-response","161","321684","0.0-8.0-1.66","5f07363e47bd2b2e4874684d","condB","","resources/audio/wordStim/S9_AU_16_axb_Step-4.wav","48","","","","","AU","resources/audio/wordStim/S9_AU_16_axb_Step-4.wav","S9","16","axb","4","CN","0","0","true"
"null","","fixation","html-keyboard-response","162","322685","0.0-8.0-0.67","5f07363e47bd2b2e4874684d","condB","","<div class=""vertical-center"" style='width:60%;'><p style='font-weight:bold;'>Does the middle word sound more like the first word (A) or the last word (B)?</p> <br> <div class=""container""> <div id=""a-box""> <p class=""title-text"">A</h3></p> </div> <div id=""x-box""> <p class=""title-text"">X<p> </div> <div id=""b-box""> <p class=""title-text"">B</p></div> <br> <div style='float: left;padding-left:30px;'><p>Press '1' for A</p></div><div style='float: right;padding-right:30px;'><p>Press '0' for B</p> </div> </div></div>","null","","","","","","","","","","","","","",""
"17","","test","audio-keyboard-response","163","322708","0.0-8.0-1.67","5f07363e47bd2b2e4874684d","condB","","resources/audio/wordStim/S9_AI_22_bxa_Step-10.wav","49","","","","","AI","resources/audio/wordStim/S9_AI_22_bxa_Step-10.wav","S9","22","bxa","10","CN","1","1","true"
"null","","fixation","html-keyboard-response","164","323711","0.0-8.0-0.68","5f07363e47bd2b2e4874684d","condB","","<div class=""vertical-center"" style='width:60%;'><p style='font-weight:bold;'>Does the middle word sound more like the first word (A) or the last word (B)?</p> <br> <div class=""container""> <div id=""a-box""> <p class=""title-text"">A</h3></p> </div> <div id=""x-box""> <p class=""title-text"">X<p> </div> <div id=""b-box""> <p class=""title-text"">B</p></div> <br> <div style='float: left;padding-left:30px;'><p>Press '1' for A</p></div><div style='float: right;padding-right:30px;'><p>Press '0' for B</p> </div> </div></div>","null","","","","","","","","","","","","","",""
"32","","test","audio-keyboard-response","165","323740","0.0-8.0-1.68","5f07363e47bd2b2e4874684d","condB","","resources/audio/wordStim/S3_AU_20_axb_Step-2.wav","48","","","","","AU","resources/audio/wordStim/S3_AU_20_axb_Step-2.wav","S3","20","axb","2","MI","0","0","true"
"null","","fixation","html-keyboard-response","166","324742","0.0-8.0-0.69","5f07363e47bd2b2e4874684d","condB","","<div class=""vertical-center"" style='width:60%;'><p style='font-weight:bold;'>Does the middle word sound more like the first word (A) or the last word (B)?</p> <br> <div class=""container""> <div id=""a-box""> <p class=""title-text"">A</h3></p> </div> <div id=""x-box""> <p class=""title-text"">X<p> </div> <div id=""b-box""> <p class=""title-text"">B</p></div> <br> <div style='float: left;padding-left:30px;'><p>Press '1' for A</p></div><div style='float: right;padding-right:30px;'><p>Press '0' for B</p> </div> </div></div>","null","","","","","","","","","","","","","",""
"450","","test","audio-keyboard-response","167","325197","0.0-8.0-1.69","5f07363e47bd2b2e4874684d","condB","","resources/audio/wordStim/S3_AU_11_axb_Step-6.wav","48","","","","","AU","resources/audio/wordStim/S3_AU_11_axb_Step-6.wav","S3","11","axb","6","MI","0","0","true"
"null","","fixation","html-keyboard-response","168","326199","0.0-8.0-0.70","5f07363e47bd2b2e4874684d","condB","","<div class=""vertical-center"" style='width:60%;'><p style='font-weight:bold;'>Does the middle word sound more like the first word (A) or the last word (B)?</p> <br> <div class=""container""> <div id=""a-box""> <p class=""title-text"">A</h3></p> </div> <div id=""x-box""> <p class=""title-text"">X<p> </div> <div id=""b-box""> <p class=""title-text"">B</p></div> <br> <div style='float: left;padding-left:30px;'><p>Press '1' for A</p></div><div style='float: right;padding-right:30px;'><p>Press '0' for B</p> </div> </div></div>","null","","","","","","","","","","","","","",""
"200","","test","audio-keyboard-response","169","326405","0.0-8.0-1.70","5f07363e47bd2b2e4874684d","condB","","resources/audio/wordStim/S9_AI_27_bxa_Step-5.wav","48","","","","","AI","resources/audio/wordStim/S9_AI_27_bxa_Step-5.wav","S9","27","bxa","5","CN","1","0","false"
"null","","fixation","html-keyboard-response","170","327409","0.0-8.0-0.71","5f07363e47bd2b2e4874684d","condB","","<div class=""vertical-center"" style='width:60%;'><p style='font-weight:bold;'>Does the middle word sound more like the first word (A) or the last word (B)?</p> <br> <div class=""container""> <div id=""a-box""> <p class=""title-text"">A</h3></p> </div> <div id=""x-box""> <p class=""title-text"">X<p> </div> <div id=""b-box""> <p class=""title-text"">B</p></div> <br> <div style='float: left;padding-left:30px;'><p>Press '1' for A</p></div><div style='float: right;padding-right:30px;'><p>Press '0' for B</p> </div> </div></div>","null","","","","","","","","","","","","","",""
"20","","test","audio-keyboard-response","171","327421","0.0-8.0-1.71","5f07363e47bd2b2e4874684d","condB","","resources/audio/wordStim/S3_AU_14_axb_Step-2.wav","48","","","","","AU","resources/audio/wordStim/S3_AU_14_axb_Step-2.wav","S3","14","axb","2","MI","0","0","true"
"null","","fixation","html-keyboard-response","172","328424","0.0-8.0-0.72","5f07363e47bd2b2e4874684d","condB","","<div class=""vertical-center"" style='width:60%;'><p style='font-weight:bold;'>Does the middle word sound more like the first word (A) or the last word (B)?</p> <br> <div class=""container""> <div id=""a-box""> <p class=""title-text"">A</h3></p> </div> <div id=""x-box""> <p class=""title-text"">X<p> </div> <div id=""b-box""> <p class=""title-text"">B</p></div> <br> <div style='float: left;padding-left:30px;'><p>Press '1' for A</p></div><div style='float: right;padding-right:30px;'><p>Press '0' for B</p> </div> </div></div>","null","","","","","","","","","","","","","",""
"119","","test","audio-keyboard-response","173","328541","0.0-8.0-1.72","5f07363e47bd2b2e4874684d","condB","","resources/audio/wordStim/S9_AI_24_bxa_Step-3.wav","48","","","","","AI","resources/audio/wordStim/S9_AI_24_bxa_Step-3.wav","S9","24","bxa","3","CN","1","0","false"
"null","","fixation","html-keyboard-response","174","329543","0.0-8.0-0.73","5f07363e47bd2b2e4874684d","condB","","<div class=""vertical-center"" style='width:60%;'><p style='font-weight:bold;'>Does the middle word sound more like the first word (A) or the last word (B)?</p> <br> <div class=""container""> <div id=""a-box""> <p class=""title-text"">A</h3></p> </div> <div id=""x-box""> <p class=""title-text"">X<p> </div> <div id=""b-box""> <p class=""title-text"">B</p></div> <br> <div style='float: left;padding-left:30px;'><p>Press '1' for A</p></div><div style='float: right;padding-right:30px;'><p>Press '0' for B</p> </div> </div></div>","null","","","","","","","","","","","","","",""
"90","","test","audio-keyboard-response","175","329637","0.0-8.0-1.73","5f07363e47bd2b2e4874684d","condB","","resources/audio/wordStim/S3_AU_17_bxa_Step-7.wav","48","","","","","AU","resources/audio/wordStim/S3_AU_17_bxa_Step-7.wav","S3","17","bxa","7","MI","1","0","false"
"null","","fixation","html-keyboard-response","176","330639","0.0-8.0-0.74","5f07363e47bd2b2e4874684d","condB","","<div class=""vertical-center"" style='width:60%;'><p style='font-weight:bold;'>Does the middle word sound more like the first word (A) or the last word (B)?</p> <br> <div class=""container""> <div id=""a-box""> <p class=""title-text"">A</h3></p> </div> <div id=""x-box""> <p class=""title-text"">X<p> </div> <div id=""b-box""> <p class=""title-text"">B</p></div> <br> <div style='float: left;padding-left:30px;'><p>Press '1' for A</p></div><div style='float: right;padding-right:30px;'><p>Press '0' for B</p> </div> </div></div>","null","","","","","","","","","","","","","",""
"70","","test","audio-keyboard-response","177","330710","0.0-8.0-1.74","5f07363e47bd2b2e4874684d","condB","","resources/audio/wordStim/S3_AU_16_axb_Step-2.wav","49","","","","","AU","resources/audio/wordStim/S3_AU_16_axb_Step-2.wav","S3","16","axb","2","MI","0","1","false"
"null","","fixation","html-keyboard-response","178","331713","0.0-8.0-0.75","5f07363e47bd2b2e4874684d","condB","","<div class=""vertical-center"" style='width:60%;'><p style='font-weight:bold;'>Does the middle word sound more like the first word (A) or the last word (B)?</p> <br> <div class=""container""> <div id=""a-box""> <p class=""title-text"">A</h3></p> </div> <div id=""x-box""> <p class=""title-text"">X<p> </div> <div id=""b-box""> <p class=""title-text"">B</p></div> <br> <div style='float: left;padding-left:30px;'><p>Press '1' for A</p></div><div style='float: right;padding-right:30px;'><p>Press '0' for B</p> </div> </div></div>","null","","","","","","","","","","","","","",""
"180","","test","audio-keyboard-response","179","331894","0.0-8.0-1.75","5f07363e47bd2b2e4874684d","condB","","resources/audio/wordStim/S3_AI_25_bxa_Step-3.wav","48","","","","","AI","resources/audio/wordStim/S3_AI_25_bxa_Step-3.wav","S3","25","bxa","3","MI","1","0","false"
"null","","fixation","html-keyboard-response","180","332896","0.0-8.0-0.76","5f07363e47bd2b2e4874684d","condB","","<div class=""vertical-center"" style='width:60%;'><p style='font-weight:bold;'>Does the middle word sound more like the first word (A) or the last word (B)?</p> <br> <div class=""container""> <div id=""a-box""> <p class=""title-text"">A</h3></p> </div> <div id=""x-box""> <p class=""title-text"">X<p> </div> <div id=""b-box""> <p class=""title-text"">B</p></div> <br> <div style='float: left;padding-left:30px;'><p>Press '1' for A</p></div><div style='float: right;padding-right:30px;'><p>Press '0' for B</p> </div> </div></div>","null","","","","","","","","","","","","","",""
"842","","test","audio-keyboard-response","181","333734","0.0-8.0-1.76","5f07363e47bd2b2e4874684d","condB","","resources/audio/wordStim/S9_AU_16_bxa_Step-10.wav","49","","","","","AU","resources/audio/wordStim/S9_AU_16_bxa_Step-10.wav","S9","16","bxa","10","CN","1","1","true"
"null","","fixation","html-keyboard-response","182","334737","0.0-8.0-0.77","5f07363e47bd2b2e4874684d","condB","","<div class=""vertical-center"" style='width:60%;'><p style='font-weight:bold;'>Does the middle word sound more like the first word (A) or the last word (B)?</p> <br> <div class=""container""> <div id=""a-box""> <p class=""title-text"">A</h3></p> </div> <div id=""x-box""> <p class=""title-text"">X<p> </div> <div id=""b-box""> <p class=""title-text"">B</p></div> <br> <div style='float: left;padding-left:30px;'><p>Press '1' for A</p></div><div style='float: right;padding-right:30px;'><p>Press '0' for B</p> </div> </div></div>","null","","","","","","","","","","","","","",""
"969","","test","audio-keyboard-response","183","335702","0.0-8.0-1.77","5f07363e47bd2b2e4874684d","condB","","resources/audio/wordStim/S9_AU_20_bxa_Step-3.wav","49","","","","","AU","resources/audio/wordStim/S9_AU_20_bxa_Step-3.wav","S9","20","bxa","3","CN","1","1","true"
"null","","fixation","html-keyboard-response","184","336704","0.0-8.0-0.78","5f07363e47bd2b2e4874684d","condB","","<div class=""vertical-center"" style='width:60%;'><p style='font-weight:bold;'>Does the middle word sound more like the first word (A) or the last word (B)?</p> <br> <div class=""container""> <div id=""a-box""> <p class=""title-text"">A</h3></p> </div> <div id=""x-box""> <p class=""title-text"">X<p> </div> <div id=""b-box""> <p class=""title-text"">B</p></div> <br> <div style='float: left;padding-left:30px;'><p>Press '1' for A</p></div><div style='float: right;padding-right:30px;'><p>Press '0' for B</p> </div> </div></div>","null","","","","","","","","","","","","","",""
"139","","test","audio-keyboard-response","185","336846","0.0-8.0-1.78","5f07363e47bd2b2e4874684d","condB","","resources/audio/wordStim/S9_AU_14_axb_Step-2.wav","49","","","","","AU","resources/audio/wordStim/S9_AU_14_axb_Step-2.wav","S9","14","axb","2","CN","0","1","false"
"null","","fixation","html-keyboard-response","186","337849","0.0-8.0-0.79","5f07363e47bd2b2e4874684d","condB","","<div class=""vertical-center"" style='width:60%;'><p style='font-weight:bold;'>Does the middle word sound more like the first word (A) or the last word (B)?</p> <br> <div class=""container""> <div id=""a-box""> <p class=""title-text"">A</h3></p> </div> <div id=""x-box""> <p class=""title-text"">X<p> </div> <div id=""b-box""> <p class=""title-text"">B</p></div> <br> <div style='float: left;padding-left:30px;'><p>Press '1' for A</p></div><div style='float: right;padding-right:30px;'><p>Press '0' for B</p> </div> </div></div>","null","","","","","","","","","","","","","",""
"360","","test","audio-keyboard-response","187","338214","0.0-8.0-1.79","5f07363e47bd2b2e4874684d","condB","","resources/audio/wordStim/S3_AU_17_bxa_Step-10.wav","49","","","","","AU","resources/audio/wordStim/S3_AU_17_bxa_Step-10.wav","S3","17","bxa","10","MI","1","1","true"
"null","","fixation","html-keyboard-response","188","339217","0.0-8.0-0.80","5f07363e47bd2b2e4874684d","condB","","<div class=""vertical-center"" style='width:60%;'><p style='font-weight:bold;'>Does the middle word sound more like the first word (A) or the last word (B)?</p> <br> <div class=""container""> <div id=""a-box""> <p class=""title-text"">A</h3></p> </div> <div id=""x-box""> <p class=""title-text"">X<p> </div> <div id=""b-box""> <p class=""title-text"">B</p></div> <br> <div style='float: left;padding-left:30px;'><p>Press '1' for A</p></div><div style='float: right;padding-right:30px;'><p>Press '0' for B</p> </div> </div></div>","null","","","","","","","","","","","","","",""
"180","","test","audio-keyboard-response","189","339391","0.0-8.0-1.80","5f07363e47bd2b2e4874684d","condB","","resources/audio/wordStim/S3_AU_18_bxa_Step-7.wav","49","","","","","AU","resources/audio/wordStim/S3_AU_18_bxa_Step-7.wav","S3","18","bxa","7","MI","1","1","true"
"2971.5199999918696","","break","html-keyboard-response","190","342863","0.0-8.0-2.80-0.80","5f07363e47bd2b2e4874684d","condB","","<div class=""vertical-center""><p>Feel free to take a break!</p><i>When you're ready to continue, press SPACE to begin the next trial.</i></p></div>","32","","","","","","","","","","","","","",""
"null","","fixation","html-keyboard-response","191","343365","0.0-8.0-0.81","5f07363e47bd2b2e4874684d","condB","","<div class=""vertical-center"" style='width:60%;'><p style='font-weight:bold;'>Does the middle word sound more like the first word (A) or the last word (B)?</p> <br> <div class=""container""> <div id=""a-box""> <p class=""title-text"">A</h3></p> </div> <div id=""x-box""> <p class=""title-text"">X<p> </div> <div id=""b-box""> <p class=""title-text"">B</p></div> <br> <div style='float: left;padding-left:30px;'><p>Press '1' for A</p></div><div style='float: right;padding-right:30px;'><p>Press '0' for B</p> </div> </div></div>","null","","","","","","","","","","","","","",""
"163","","test","audio-keyboard-response","192","343520","0.0-8.0-1.81","5f07363e47bd2b2e4874684d","condB","","resources/audio/wordStim/S3_AU_11_bxa_Step-3.wav","49","","","","","AU","resources/audio/wordStim/S3_AU_11_bxa_Step-3.wav","S3","11","bxa","3","MI","1","1","true"
"null","","fixation","html-keyboard-response","193","344523","0.0-8.0-0.82","5f07363e47bd2b2e4874684d","condB","","<div class=""vertical-center"" style='width:60%;'><p style='font-weight:bold;'>Does the middle word sound more like the first word (A) or the last word (B)?</p> <br> <div class=""container""> <div id=""a-box""> <p class=""title-text"">A</h3></p> </div> <div id=""x-box""> <p class=""title-text"">X<p> </div> <div id=""b-box""> <p class=""title-text"">B</p></div> <br> <div style='float: left;padding-left:30px;'><p>Press '1' for A</p></div><div style='float: right;padding-right:30px;'><p>Press '0' for B</p> </div> </div></div>","null","","","","","","","","","","","","","",""
"81","","test","audio-keyboard-response","194","344600","0.0-8.0-1.82","5f07363e47bd2b2e4874684d","condB","","resources/audio/wordStim/S3_AI_25_axb_Step-4.wav","49","","","","","AI","resources/audio/wordStim/S3_AI_25_axb_Step-4.wav","S3","25","axb","4","MI","0","1","false"
"null","","fixation","html-keyboard-response","195","345601","0.0-8.0-0.83","5f07363e47bd2b2e4874684d","condB","","<div class=""vertical-center"" style='width:60%;'><p style='font-weight:bold;'>Does the middle word sound more like the first word (A) or the last word (B)?</p> <br> <div class=""container""> <div id=""a-box""> <p class=""title-text"">A</h3></p> </div> <div id=""x-box""> <p class=""title-text"">X<p> </div> <div id=""b-box""> <p class=""title-text"">B</p></div> <br> <div style='float: left;padding-left:30px;'><p>Press '1' for A</p></div><div style='float: right;padding-right:30px;'><p>Press '0' for B</p> </div> </div></div>","null","","","","","","","","","","","","","",""
"61","","test","audio-keyboard-response","196","345664","0.0-8.0-1.83","5f07363e47bd2b2e4874684d","condB","","resources/audio/wordStim/S9_AI_24_bxa_Step-5.wav","49","","","","","AI","resources/audio/wordStim/S9_AI_24_bxa_Step-5.wav","S9","24","bxa","5","CN","1","1","true"
"null","","fixation","html-keyboard-response","197","346666","0.0-8.0-0.84","5f07363e47bd2b2e4874684d","condB","","<div class=""vertical-center"" style='width:60%;'><p style='font-weight:bold;'>Does the middle word sound more like the first word (A) or the last word (B)?</p> <br> <div class=""container""> <div id=""a-box""> <p class=""title-text"">A</h3></p> </div> <div id=""x-box""> <p class=""title-text"">X<p> </div> <div id=""b-box""> <p class=""title-text"">B</p></div> <br> <div style='float: left;padding-left:30px;'><p>Press '1' for A</p></div><div style='float: right;padding-right:30px;'><p>Press '0' for B</p> </div> </div></div>","null","","","","","","","","","","","","","",""
"180","","test","audio-keyboard-response","198","346840","0.0-8.0-1.84","5f07363e47bd2b2e4874684d","condB","","resources/audio/wordStim/S9_AI_23_axb_Step-8.wav","48","","","","","AI","resources/audio/wordStim/S9_AI_23_axb_Step-8.wav","S9","23","axb","8","CN","0","0","true"
"null","","fixation","html-keyboard-response","199","347843","0.0-8.0-0.85","5f07363e47bd2b2e4874684d","condB","","<div class=""vertical-center"" style='width:60%;'><p style='font-weight:bold;'>Does the middle word sound more like the first word (A) or the last word (B)?</p> <br> <div class=""container""> <div id=""a-box""> <p class=""title-text"">A</h3></p> </div> <div id=""x-box""> <p class=""title-text"">X<p> </div> <div id=""b-box""> <p class=""title-text"">B</p></div> <br> <div style='float: left;padding-left:30px;'><p>Press '1' for A</p></div><div style='float: right;padding-right:30px;'><p>Press '0' for B</p> </div> </div></div>","null","","","","","","","","","","","","","",""
"99","","test","audio-keyboard-response","200","347944","0.0-8.0-1.85","5f07363e47bd2b2e4874684d","condB","","resources/audio/wordStim/S9_AI_22_axb_Step-4.wav","48","","","","","AI","resources/audio/wordStim/S9_AI_22_axb_Step-4.wav","S9","22","axb","4","CN","0","0","true"
"null","","fixation","html-keyboard-response","201","348947","0.0-8.0-0.86","5f07363e47bd2b2e4874684d","condB","","<div class=""vertical-center"" style='width:60%;'><p style='font-weight:bold;'>Does the middle word sound more like the first word (A) or the last word (B)?</p> <br> <div class=""container""> <div id=""a-box""> <p class=""title-text"">A</h3></p> </div> <div id=""x-box""> <p class=""title-text"">X<p> </div> <div id=""b-box""> <p class=""title-text"">B</p></div> <br> <div style='float: left;padding-left:30px;'><p>Press '1' for A</p></div><div style='float: right;padding-right:30px;'><p>Press '0' for B</p> </div> </div></div>","null","","","","","","","","","","","","","",""
"49","","test","audio-keyboard-response","202","349000","0.0-8.0-1.86","5f07363e47bd2b2e4874684d","condB","","resources/audio/wordStim/S9_AI_24_axb_Step-2.wav","49","","","","","AI","resources/audio/wordStim/S9_AI_24_axb_Step-2.wav","S9","24","axb","2","CN","0","1","false"
"null","","fixation","html-keyboard-response","203","350002","0.0-8.0-0.87","5f07363e47bd2b2e4874684d","condB","","<div class=""vertical-center"" style='width:60%;'><p style='font-weight:bold;'>Does the middle word sound more like the first word (A) or the last word (B)?</p> <br> <div class=""container""> <div id=""a-box""> <p class=""title-text"">A</h3></p> </div> <div id=""x-box""> <p class=""title-text"">X<p> </div> <div id=""b-box""> <p class=""title-text"">B</p></div> <br> <div style='float: left;padding-left:30px;'><p>Press '1' for A</p></div><div style='float: right;padding-right:30px;'><p>Press '0' for B</p> </div> </div></div>","null","","","","","","","","","","","","","",""
"110","","test","audio-keyboard-response","204","350112","0.0-8.0-1.87","5f07363e47bd2b2e4874684d","condB","","resources/audio/wordStim/S3_AU_20_axb_Step-8.wav","49","","","","","AU","resources/audio/wordStim/S3_AU_20_axb_Step-8.wav","S3","20","axb","8","MI","0","1","false"
"null","","fixation","html-keyboard-response","205","351115","0.0-8.0-0.88","5f07363e47bd2b2e4874684d","condB","","<div class=""vertical-center"" style='width:60%;'><p style='font-weight:bold;'>Does the middle word sound more like the first word (A) or the last word (B)?</p> <br> <div class=""container""> <div id=""a-box""> <p class=""title-text"">A</h3></p> </div> <div id=""x-box""> <p class=""title-text"">X<p> </div> <div id=""b-box""> <p class=""title-text"">B</p></div> <br> <div style='float: left;padding-left:30px;'><p>Press '1' for A</p></div><div style='float: right;padding-right:30px;'><p>Press '0' for B</p> </div> </div></div>","null","","","","","","","","","","","","","",""
"107","","test","audio-keyboard-response","206","351225","0.0-8.0-1.88","5f07363e47bd2b2e4874684d","condB","","resources/audio/wordStim/S3_AU_16_bxa_Step-7.wav","49","","","","","AU","resources/audio/wordStim/S3_AU_16_bxa_Step-7.wav","S3","16","bxa","7","MI","1","1","true"
"null","","fixation","html-keyboard-response","207","352228","0.0-8.0-0.89","5f07363e47bd2b2e4874684d","condB","","<div class=""vertical-center"" style='width:60%;'><p style='font-weight:bold;'>Does the middle word sound more like the first word (A) or the last word (B)?</p> <br> <div class=""container""> <div id=""a-box""> <p class=""title-text"">A</h3></p> </div> <div id=""x-box""> <p class=""title-text"">X<p> </div> <div id=""b-box""> <p class=""title-text"">B</p></div> <br> <div style='float: left;padding-left:30px;'><p>Press '1' for A</p></div><div style='float: right;padding-right:30px;'><p>Press '0' for B</p> </div> </div></div>","null","","","","","","","","","","","","","",""
"20","","test","audio-keyboard-response","208","352241","0.0-8.0-1.89","5f07363e47bd2b2e4874684d","condB","","resources/audio/wordStim/S9_AU_18_bxa_Step-9.wav","48","","","","","AU","resources/audio/wordStim/S9_AU_18_bxa_Step-9.wav","S9","18","bxa","9","CN","1","0","false"
"null","","fixation","html-keyboard-response","209","353244","0.0-8.0-0.90","5f07363e47bd2b2e4874684d","condB","","<div class=""vertical-center"" style='width:60%;'><p style='font-weight:bold;'>Does the middle word sound more like the first word (A) or the last word (B)?</p> <br> <div class=""container""> <div id=""a-box""> <p class=""title-text"">A</h3></p> </div> <div id=""x-box""> <p class=""title-text"">X<p> </div> <div id=""b-box""> <p class=""title-text"">B</p></div> <br> <div style='float: left;padding-left:30px;'><p>Press '1' for A</p></div><div style='float: right;padding-right:30px;'><p>Press '0' for B</p> </div> </div></div>","null","","","","","","","","","","","","","",""
"41","","test","audio-keyboard-response","210","353289","0.0-8.0-1.90","5f07363e47bd2b2e4874684d","condB","","resources/audio/wordStim/S9_AU_19_axb_Step-6.wav","48","","","","","AU","resources/audio/wordStim/S9_AU_19_axb_Step-6.wav","S9","19","axb","6","CN","0","0","true"
"null","","fixation","html-keyboard-response","211","354292","0.0-8.0-0.91","5f07363e47bd2b2e4874684d","condB","","<div class=""vertical-center"" style='width:60%;'><p style='font-weight:bold;'>Does the middle word sound more like the first word (A) or the last word (B)?</p> <br> <div class=""container""> <div id=""a-box""> <p class=""title-text"">A</h3></p> </div> <div id=""x-box""> <p class=""title-text"">X<p> </div> <div id=""b-box""> <p class=""title-text"">B</p></div> <br> <div style='float: left;padding-left:30px;'><p>Press '1' for A</p></div><div style='float: right;padding-right:30px;'><p>Press '0' for B</p> </div> </div></div>","null","","","","","","","","","","","","","",""
"70","","test","audio-keyboard-response","212","354361","0.0-8.0-1.91","5f07363e47bd2b2e4874684d","condB","","resources/audio/wordStim/S3_AI_30_axb_Step-4.wav","49","","","","","AI","resources/audio/wordStim/S3_AI_30_axb_Step-4.wav","S3","30","axb","4","MI","0","1","false"
"null","","fixation","html-keyboard-response","213","355363","0.0-8.0-0.92","5f07363e47bd2b2e4874684d","condB","","<div class=""vertical-center"" style='width:60%;'><p style='font-weight:bold;'>Does the middle word sound more like the first word (A) or the last word (B)?</p> <br> <div class=""container""> <div id=""a-box""> <p class=""title-text"">A</h3></p> </div> <div id=""x-box""> <p class=""title-text"">X<p> </div> <div id=""b-box""> <p class=""title-text"">B</p></div> <br> <div style='float: left;padding-left:30px;'><p>Press '1' for A</p></div><div style='float: right;padding-right:30px;'><p>Press '0' for B</p> </div> </div></div>","null","","","","","","","","","","","","","",""
"0","","test","audio-keyboard-response","214","355369","0.0-8.0-1.92","5f07363e47bd2b2e4874684d","condB","","resources/audio/wordStim/S3_AU_14_bxa_Step-5.wav","48","","","","","AU","resources/audio/wordStim/S3_AU_14_bxa_Step-5.wav","S3","14","bxa","5","MI","1","0","false"
"null","","fixation","html-keyboard-response","215","356373","0.0-8.0-0.93","5f07363e47bd2b2e4874684d","condB","","<div class=""vertical-center"" style='width:60%;'><p style='font-weight:bold;'>Does the middle word sound more like the first word (A) or the last word (B)?</p> <br> <div class=""container""> <div id=""a-box""> <p class=""title-text"">A</h3></p> </div> <div id=""x-box""> <p class=""title-text"">X<p> </div> <div id=""b-box""> <p class=""title-text"">B</p></div> <br> <div style='float: left;padding-left:30px;'><p>Press '1' for A</p></div><div style='float: right;padding-right:30px;'><p>Press '0' for B</p> </div> </div></div>","null","","","","","","","","","","","","","",""
