"rt","url","trial_role","trial_type","trial_index","time_elapsed","internal_node_id","participantId","condition","view_history","stimulus","key_press","button_pressed","correct_answer","correct_response","success","vowel","wordStim","speaker","sentNum","order","step","speakerIdentity","raised_answer","key_response","raised_response"
"27810.27499999618","micr.con.consent.html","consent","external-html","0","28194","0.0-0.0","5f345fec952faa3654e9975e","condB","","","","","","","","","","","","","","","","",""
"29321.27999997465","","instructions","instructions","1","57520","0.0-1.0","5f345fec952faa3654e9975e","condB","[{""page_index"":0,""viewing_time"":7957.394999975804},{""page_index"":1,""viewing_time"":7913.6250000447035},{""page_index"":2,""viewing_time"":13449.79499996407}]","","","","","","","","","","","","","","","",""
"null","","fixation","html-keyboard-response","2","58023","0.0-2.0-0.0","5f345fec952faa3654e9975e","condB","","<div class=""vertical-center"" style=""font-size:60px;"">+</div>","null","","","","","","","","","","","","","",""
"4798.819999967236","","tonetest","audio-button-response","3","62825","0.0-2.0-1.0","5f345fec952faa3654e9975e","condB","","../../src/audio/toneTest_6.wav","","0","0","true","","","","","","","","","","",""
"null","","fixation","html-keyboard-response","4","63326","0.0-2.0-0.1","5f345fec952faa3654e9975e","condB","","<div class=""vertical-center"" style=""font-size:60px;"">+</div>","null","","","","","","","","","","","","","",""
"4388.035000010859","","tonetest","audio-button-response","5","67716","0.0-2.0-1.1","5f345fec952faa3654e9975e","condB","","../../src/audio/toneTest_5.wav","","0","0","true","","","","","","","","","","",""
"null","","fixation","html-keyboard-response","6","68217","0.0-2.0-0.2","5f345fec952faa3654e9975e","condB","","<div class=""vertical-center"" style=""font-size:60px;"">+</div>","null","","","","","","","","","","","","","",""
"4381.570000026841","","tonetest","audio-button-response","7","72600","0.0-2.0-1.2","5f345fec952faa3654e9975e","condB","","../../src/audio/toneTest_5.wav","","0","0","true","","","","","","","","","","",""
"null","","fixation","html-keyboard-response","8","73102","0.0-2.0-0.3","5f345fec952faa3654e9975e","condB","","<div class=""vertical-center"" style=""font-size:60px;"">+</div>","null","","","","","","","","","","","","","",""
"4112.410000001546","","tonetest","audio-button-response","9","77217","0.0-2.0-1.3","5f345fec952faa3654e9975e","condB","","../../src/audio/toneTest_1.wav","","2","2","true","","","","","","","","","","",""
"null","","fixation","html-keyboard-response","10","77718","0.0-2.0-0.4","5f345fec952faa3654e9975e","condB","","<div class=""vertical-center"" style=""font-size:60px;"">+</div>","null","","","","","","","","","","","","","",""
"3849.1350000258535","","tonetest","audio-button-response","11","81569","0.0-2.0-1.4","5f345fec952faa3654e9975e","condB","","../../src/audio/toneTest_2.wav","","1","1","true","","","","","","","","","","",""
"null","","fixation","html-keyboard-response","12","82071","0.0-2.0-0.5","5f345fec952faa3654e9975e","condB","","<div class=""vertical-center"" style=""font-size:60px;"">+</div>","null","","","","","","","","","","","","","",""
"3665.789999999106","","tonetest","audio-button-response","13","85738","0.0-2.0-1.5","5f345fec952faa3654e9975e","condB","","../../src/audio/toneTest_1.wav","","2","2","true","","","","","","","","","","",""
"4206.01500000339","","instructions","html-keyboard-response","14","89946","0.0-3.0","5f345fec952faa3654e9975e","condB","","<div class=""vertical-center""><p><b>Your score was 6/6.</b></p><p>If you scored below 6, please ensure that you are wearing headphones and in a quiet location free of distractions.</p><p><i>To continue to the main experiment, press SPACE.</i></p></div>","32","","","","","","","","","","","","","",""
"","","","fullscreen","15","344018","0.0-4.0","5f345fec952faa3654e9975e","condB","","","","","","","true","","","","","","","","","",""
"22354.96000002604","","instructions","instructions","16","366375","0.0-5.0","5f345fec952faa3654e9975e","condB","[{""page_index"":0,""viewing_time"":22354.80000003008}]","","","","","","","","","","","","","","","",""
"null","","fixation","html-keyboard-response","17","366877","0.0-6.0-0.0","5f345fec952faa3654e9975e","condB","","<div class=""vertical-center"" style='width:60%;'><p style='font-weight:bold;'>Does the middle word sound more like the first word (A) or the last word (B)?</p> <br> <div class=""container""> <div id=""a-box""> <p class=""title-text"">A</h3></p> </div> <div id=""x-box""> <p class=""title-text"">X<p> </div> <div id=""b-box""> <p class=""title-text"">B</p></div> <br> <div style='float: left;padding-left:30px;'><p>Press '1' for A</p></div><div style='float: right;padding-right:30px;'><p>Press '0' for B</p> </div> </div></div>","null","","","","","","","","","","","","","",""
"6840","","practice","audio-keyboard-response","18","373751","0.0-6.0-1.0","5f345fec952faa3654e9975e","condB","","resources/audio/practiceStim/S1_AU_14_axb_Step-6.wav","49","","","","","","","","","","","","","",""
"null","","fixation","html-keyboard-response","19","374753","0.0-6.0-0.1","5f345fec952faa3654e9975e","condB","","<div class=""vertical-center"" style='width:60%;'><p style='font-weight:bold;'>Does the middle word sound more like the first word (A) or the last word (B)?</p> <br> <div class=""container""> <div id=""a-box""> <p class=""title-text"">A</h3></p> </div> <div id=""x-box""> <p class=""title-text"">X<p> </div> <div id=""b-box""> <p class=""title-text"">B</p></div> <br> <div style='float: left;padding-left:30px;'><p>Press '1' for A</p></div><div style='float: right;padding-right:30px;'><p>Press '0' for B</p> </div> </div></div>","null","","","","","","","","","","","","","",""
"4989","","practice","audio-keyboard-response","20","379743","0.0-6.0-1.1","5f345fec952faa3654e9975e","condB","","resources/audio/practiceStim/S1_AI_21_bxa_Step-6.wav","48","","","","","","","","","","","","","",""
"null","","fixation","html-keyboard-response","21","380744","0.0-6.0-0.2","5f345fec952faa3654e9975e","condB","","<div class=""vertical-center"" style='width:60%;'><p style='font-weight:bold;'>Does the middle word sound more like the first word (A) or the last word (B)?</p> <br> <div class=""container""> <div id=""a-box""> <p class=""title-text"">A</h3></p> </div> <div id=""x-box""> <p class=""title-text"">X<p> </div> <div id=""b-box""> <p class=""title-text"">B</p></div> <br> <div style='float: left;padding-left:30px;'><p>Press '1' for A</p></div><div style='float: right;padding-right:30px;'><p>Press '0' for B</p> </div> </div></div>","null","","","","","","","","","","","","","",""
"3331","","practice","audio-keyboard-response","22","384079","0.0-6.0-1.2","5f345fec952faa3654e9975e","condB","","resources/audio/practiceStim/S1_AI_21_axb_Step-6.wav","48","","","","","","","","","","","","","",""
"null","","fixation","html-keyboard-response","23","385082","0.0-6.0-0.3","5f345fec952faa3654e9975e","condB","","<div class=""vertical-center"" style='width:60%;'><p style='font-weight:bold;'>Does the middle word sound more like the first word (A) or the last word (B)?</p> <br> <div class=""container""> <div id=""a-box""> <p class=""title-text"">A</h3></p> </div> <div id=""x-box""> <p class=""title-text"">X<p> </div> <div id=""b-box""> <p class=""title-text"">B</p></div> <br> <div style='float: left;padding-left:30px;'><p>Press '1' for A</p></div><div style='float: right;padding-right:30px;'><p>Press '0' for B</p> </div> </div></div>","null","","","","","","","","","","","","","",""
"3000","","practice","audio-keyboard-response","24","388088","0.0-6.0-1.3","5f345fec952faa3654e9975e","condB","","resources/audio/practiceStim/S1_AU_14_bxa_Step-6.wav","48","","","","","","","","","","","","","",""
"3377.5749999913387","","instructions","instructions","25","391967","0.0-7.0","5f345fec952faa3654e9975e","condB","[{""page_index"":0,""viewing_time"":3377.3999999975786}]","","","","","","","","","","","","","","","",""
"null","","fixation","html-keyboard-response","26","392470","0.0-8.0-0.0","5f345fec952faa3654e9975e","condB","","<div class=""vertical-center"" style='width:60%;'><p style='font-weight:bold;'>Does the middle word sound more like the first word (A) or the last word (B)?</p> <br> <div class=""container""> <div id=""a-box""> <p class=""title-text"">A</h3></p> </div> <div id=""x-box""> <p class=""title-text"">X<p> </div> <div id=""b-box""> <p class=""title-text"">B</p></div> <br> <div style='float: left;padding-left:30px;'><p>Press '1' for A</p></div><div style='float: right;padding-right:30px;'><p>Press '0' for B</p> </div> </div></div>","null","","","","","","","","","","","","","",""
"4080","","test","audio-keyboard-response","27","396544","0.0-8.0-1.0","5f345fec952faa3654e9975e","condB","","resources/audio/wordStim/S9_AI_29_axb_Step-8.wav","49","","","","","AI","resources/audio/wordStim/S9_AI_29_axb_Step-8.wav","S9","29","axb","8","CN","0","1","false"
"null","","fixation","html-keyboard-response","28","397547","0.0-8.0-0.1","5f345fec952faa3654e9975e","condB","","<div class=""vertical-center"" style='width:60%;'><p style='font-weight:bold;'>Does the middle word sound more like the first word (A) or the last word (B)?</p> <br> <div class=""container""> <div id=""a-box""> <p class=""title-text"">A</h3></p> </div> <div id=""x-box""> <p class=""title-text"">X<p> </div> <div id=""b-box""> <p class=""title-text"">B</p></div> <br> <div style='float: left;padding-left:30px;'><p>Press '1' for A</p></div><div style='float: right;padding-right:30px;'><p>Press '0' for B</p> </div> </div></div>","null","","","","","","","","","","","","","",""
"3360","","test","audio-keyboard-response","29","400913","0.0-8.0-1.1","5f345fec952faa3654e9975e","condB","","resources/audio/wordStim/S9_AI_27_bxa_Step-9.wav","48","","","","","AI","resources/audio/wordStim/S9_AI_27_bxa_Step-9.wav","S9","27","bxa","9","CN","1","0","false"
"null","","fixation","html-keyboard-response","30","401915","0.0-8.0-0.2","5f345fec952faa3654e9975e","condB","","<div class=""vertical-center"" style='width:60%;'><p style='font-weight:bold;'>Does the middle word sound more like the first word (A) or the last word (B)?</p> <br> <div class=""container""> <div id=""a-box""> <p class=""title-text"">A</h3></p> </div> <div id=""x-box""> <p class=""title-text"">X<p> </div> <div id=""b-box""> <p class=""title-text"">B</p></div> <br> <div style='float: left;padding-left:30px;'><p>Press '1' for A</p></div><div style='float: right;padding-right:30px;'><p>Press '0' for B</p> </div> </div></div>","null","","","","","","","","","","","","","",""
"5139","","test","audio-keyboard-response","31","407056","0.0-8.0-1.2","5f345fec952faa3654e9975e","condB","","resources/audio/wordStim/S9_AU_18_bxa_Step-3.wav","49","","","","","AU","resources/audio/wordStim/S9_AU_18_bxa_Step-3.wav","S9","18","bxa","3","CN","1","1","true"
"null","","fixation","html-keyboard-response","32","408058","0.0-8.0-0.3","5f345fec952faa3654e9975e","condB","","<div class=""vertical-center"" style='width:60%;'><p style='font-weight:bold;'>Does the middle word sound more like the first word (A) or the last word (B)?</p> <br> <div class=""container""> <div id=""a-box""> <p class=""title-text"">A</h3></p> </div> <div id=""x-box""> <p class=""title-text"">X<p> </div> <div id=""b-box""> <p class=""title-text"">B</p></div> <br> <div style='float: left;padding-left:30px;'><p>Press '1' for A</p></div><div style='float: right;padding-right:30px;'><p>Press '0' for B</p> </div> </div></div>","null","","","","","","","","","","","","","",""
"3021","","test","audio-keyboard-response","33","411081","0.0-8.0-1.3","5f345fec952faa3654e9975e","condB","","resources/audio/wordStim/S9_AU_17_bxa_Step-10.wav","49","","","","","AU","resources/audio/wordStim/S9_AU_17_bxa_Step-10.wav","S9","17","bxa","10","CN","1","1","true"
"null","","fixation","html-keyboard-response","34","412085","0.0-8.0-0.4","5f345fec952faa3654e9975e","condB","","<div class=""vertical-center"" style='width:60%;'><p style='font-weight:bold;'>Does the middle word sound more like the first word (A) or the last word (B)?</p> <br> <div class=""container""> <div id=""a-box""> <p class=""title-text"">A</h3></p> </div> <div id=""x-box""> <p class=""title-text"">X<p> </div> <div id=""b-box""> <p class=""title-text"">B</p></div> <br> <div style='float: left;padding-left:30px;'><p>Press '1' for A</p></div><div style='float: right;padding-right:30px;'><p>Press '0' for B</p> </div> </div></div>","null","","","","","","","","","","","","","",""
"3171","","test","audio-keyboard-response","35","415257","0.0-8.0-1.4","5f345fec952faa3654e9975e","condB","","resources/audio/wordStim/S9_AI_23_bxa_Step-3.wav","49","","","","","AI","resources/audio/wordStim/S9_AI_23_bxa_Step-3.wav","S9","23","bxa","3","CN","1","1","true"
"null","","fixation","html-keyboard-response","36","416260","0.0-8.0-0.5","5f345fec952faa3654e9975e","condB","","<div class=""vertical-center"" style='width:60%;'><p style='font-weight:bold;'>Does the middle word sound more like the first word (A) or the last word (B)?</p> <br> <div class=""container""> <div id=""a-box""> <p class=""title-text"">A</h3></p> </div> <div id=""x-box""> <p class=""title-text"">X<p> </div> <div id=""b-box""> <p class=""title-text"">B</p></div> <br> <div style='float: left;padding-left:30px;'><p>Press '1' for A</p></div><div style='float: right;padding-right:30px;'><p>Press '0' for B</p> </div> </div></div>","null","","","","","","","","","","","","","",""
"2960","","test","audio-keyboard-response","37","419217","0.0-8.0-1.5","5f345fec952faa3654e9975e","condB","","resources/audio/wordStim/S3_AI_23_bxa_Step-5.wav","49","","","","","AI","resources/audio/wordStim/S3_AI_23_bxa_Step-5.wav","S3","23","bxa","5","MI","1","1","true"
"null","","fixation","html-keyboard-response","38","420221","0.0-8.0-0.6","5f345fec952faa3654e9975e","condB","","<div class=""vertical-center"" style='width:60%;'><p style='font-weight:bold;'>Does the middle word sound more like the first word (A) or the last word (B)?</p> <br> <div class=""container""> <div id=""a-box""> <p class=""title-text"">A</h3></p> </div> <div id=""x-box""> <p class=""title-text"">X<p> </div> <div id=""b-box""> <p class=""title-text"">B</p></div> <br> <div style='float: left;padding-left:30px;'><p>Press '1' for A</p></div><div style='float: right;padding-right:30px;'><p>Press '0' for B</p> </div> </div></div>","null","","","","","","","","","","","","","",""
"2611","","test","audio-keyboard-response","39","422834","0.0-8.0-1.6","5f345fec952faa3654e9975e","condB","","resources/audio/wordStim/S3_AU_14_bxa_Step-5.wav","48","","","","","AU","resources/audio/wordStim/S3_AU_14_bxa_Step-5.wav","S3","14","bxa","5","MI","1","0","false"
"null","","fixation","html-keyboard-response","40","423837","0.0-8.0-0.7","5f345fec952faa3654e9975e","condB","","<div class=""vertical-center"" style='width:60%;'><p style='font-weight:bold;'>Does the middle word sound more like the first word (A) or the last word (B)?</p> <br> <div class=""container""> <div id=""a-box""> <p class=""title-text"">A</h3></p> </div> <div id=""x-box""> <p class=""title-text"">X<p> </div> <div id=""b-box""> <p class=""title-text"">B</p></div> <br> <div style='float: left;padding-left:30px;'><p>Press '1' for A</p></div><div style='float: right;padding-right:30px;'><p>Press '0' for B</p> </div> </div></div>","null","","","","","","","","","","","","","",""
"3109","","test","audio-keyboard-response","41","426946","0.0-8.0-1.7","5f345fec952faa3654e9975e","condB","","resources/audio/wordStim/S3_AU_11_bxa_Step-7.wav","48","","","","","AU","resources/audio/wordStim/S3_AU_11_bxa_Step-7.wav","S3","11","bxa","7","MI","1","0","false"
"null","","fixation","html-keyboard-response","42","427949","0.0-8.0-0.8","5f345fec952faa3654e9975e","condB","","<div class=""vertical-center"" style='width:60%;'><p style='font-weight:bold;'>Does the middle word sound more like the first word (A) or the last word (B)?</p> <br> <div class=""container""> <div id=""a-box""> <p class=""title-text"">A</h3></p> </div> <div id=""x-box""> <p class=""title-text"">X<p> </div> <div id=""b-box""> <p class=""title-text"">B</p></div> <br> <div style='float: left;padding-left:30px;'><p>Press '1' for A</p></div><div style='float: right;padding-right:30px;'><p>Press '0' for B</p> </div> </div></div>","null","","","","","","","","","","","","","",""
"3160","","test","audio-keyboard-response","43","431115","0.0-8.0-1.8","5f345fec952faa3654e9975e","condB","","resources/audio/wordStim/S9_AI_29_bxa_Step-10.wav","49","","","","","AI","resources/audio/wordStim/S9_AI_29_bxa_Step-10.wav","S9","29","bxa","10","CN","1","1","true"
"null","","fixation","html-keyboard-response","44","432117","0.0-8.0-0.9","5f345fec952faa3654e9975e","condB","","<div class=""vertical-center"" style='width:60%;'><p style='font-weight:bold;'>Does the middle word sound more like the first word (A) or the last word (B)?</p> <br> <div class=""container""> <div id=""a-box""> <p class=""title-text"">A</h3></p> </div> <div id=""x-box""> <p class=""title-text"">X<p> </div> <div id=""b-box""> <p class=""title-text"">B</p></div> <br> <div style='float: left;padding-left:30px;'><p>Press '1' for A</p></div><div style='float: right;padding-right:30px;'><p>Press '0' for B</p> </div> </div></div>","null","","","","","","","","","","","","","",""
"2888","","test","audio-keyboard-response","45","435011","0.0-8.0-1.9","5f345fec952faa3654e9975e","condB","","resources/audio/wordStim/S3_AU_20_axb_Step-6.wav","48","","","","","AU","resources/audio/wordStim/S3_AU_20_axb_Step-6.wav","S3","20","axb","6","MI","0","0","true"
"null","","fixation","html-keyboard-response","46","436014","0.0-8.0-0.10","5f345fec952faa3654e9975e","condB","","<div class=""vertical-center"" style='width:60%;'><p style='font-weight:bold;'>Does the middle word sound more like the first word (A) or the last word (B)?</p> <br> <div class=""container""> <div id=""a-box""> <p class=""title-text"">A</h3></p> </div> <div id=""x-box""> <p class=""title-text"">X<p> </div> <div id=""b-box""> <p class=""title-text"">B</p></div> <br> <div style='float: left;padding-left:30px;'><p>Press '1' for A</p></div><div style='float: right;padding-right:30px;'><p>Press '0' for B</p> </div> </div></div>","null","","","","","","","","","","","","","",""
"3632","","test","audio-keyboard-response","47","439643","0.0-8.0-1.10","5f345fec952faa3654e9975e","condB","","resources/audio/wordStim/S9_AU_11_bxa_Step-3.wav","48","","","","","AU","resources/audio/wordStim/S9_AU_11_bxa_Step-3.wav","S9","11","bxa","3","CN","1","0","false"
"null","","fixation","html-keyboard-response","48","440646","0.0-8.0-0.11","5f345fec952faa3654e9975e","condB","","<div class=""vertical-center"" style='width:60%;'><p style='font-weight:bold;'>Does the middle word sound more like the first word (A) or the last word (B)?</p> <br> <div class=""container""> <div id=""a-box""> <p class=""title-text"">A</h3></p> </div> <div id=""x-box""> <p class=""title-text"">X<p> </div> <div id=""b-box""> <p class=""title-text"">B</p></div> <br> <div style='float: left;padding-left:30px;'><p>Press '1' for A</p></div><div style='float: right;padding-right:30px;'><p>Press '0' for B</p> </div> </div></div>","null","","","","","","","","","","","","","",""
"3328","","test","audio-keyboard-response","49","443971","0.0-8.0-1.11","5f345fec952faa3654e9975e","condB","","resources/audio/wordStim/S9_AI_22_axb_Step-2.wav","49","","","","","AI","resources/audio/wordStim/S9_AI_22_axb_Step-2.wav","S9","22","axb","2","CN","0","1","false"
"null","","fixation","html-keyboard-response","50","444974","0.0-8.0-0.12","5f345fec952faa3654e9975e","condB","","<div class=""vertical-center"" style='width:60%;'><p style='font-weight:bold;'>Does the middle word sound more like the first word (A) or the last word (B)?</p> <br> <div class=""container""> <div id=""a-box""> <p class=""title-text"">A</h3></p> </div> <div id=""x-box""> <p class=""title-text"">X<p> </div> <div id=""b-box""> <p class=""title-text"">B</p></div> <br> <div style='float: left;padding-left:30px;'><p>Press '1' for A</p></div><div style='float: right;padding-right:30px;'><p>Press '0' for B</p> </div> </div></div>","null","","","","","","","","","","","","","",""
"3021","","test","audio-keyboard-response","51","447989","0.0-8.0-1.12","5f345fec952faa3654e9975e","condB","","resources/audio/wordStim/S9_AU_20_axb_Step-2.wav","49","","","","","AU","resources/audio/wordStim/S9_AU_20_axb_Step-2.wav","S9","20","axb","2","CN","0","1","false"
"null","","fixation","html-keyboard-response","52","448993","0.0-8.0-0.13","5f345fec952faa3654e9975e","condB","","<div class=""vertical-center"" style='width:60%;'><p style='font-weight:bold;'>Does the middle word sound more like the first word (A) or the last word (B)?</p> <br> <div class=""container""> <div id=""a-box""> <p class=""title-text"">A</h3></p> </div> <div id=""x-box""> <p class=""title-text"">X<p> </div> <div id=""b-box""> <p class=""title-text"">B</p></div> <br> <div style='float: left;padding-left:30px;'><p>Press '1' for A</p></div><div style='float: right;padding-right:30px;'><p>Press '0' for B</p> </div> </div></div>","null","","","","","","","","","","","","","",""
"4531","","test","audio-keyboard-response","53","453524","0.0-8.0-1.13","5f345fec952faa3654e9975e","condB","","resources/audio/wordStim/S3_AU_15_axb_Step-8.wav","49","","","","","AU","resources/audio/wordStim/S3_AU_15_axb_Step-8.wav","S3","15","axb","8","MI","0","1","false"
"null","","fixation","html-keyboard-response","54","454526","0.0-8.0-0.14","5f345fec952faa3654e9975e","condB","","<div class=""vertical-center"" style='width:60%;'><p style='font-weight:bold;'>Does the middle word sound more like the first word (A) or the last word (B)?</p> <br> <div class=""container""> <div id=""a-box""> <p class=""title-text"">A</h3></p> </div> <div id=""x-box""> <p class=""title-text"">X<p> </div> <div id=""b-box""> <p class=""title-text"">B</p></div> <br> <div style='float: left;padding-left:30px;'><p>Press '1' for A</p></div><div style='float: right;padding-right:30px;'><p>Press '0' for B</p> </div> </div></div>","null","","","","","","","","","","","","","",""
"2648","","test","audio-keyboard-response","55","457172","0.0-8.0-1.14","5f345fec952faa3654e9975e","condB","","resources/audio/wordStim/S9_AU_16_bxa_Step-3.wav","48","","","","","AU","resources/audio/wordStim/S9_AU_16_bxa_Step-3.wav","S9","16","bxa","3","CN","1","0","false"
"null","","fixation","html-keyboard-response","56","458175","0.0-8.0-0.15","5f345fec952faa3654e9975e","condB","","<div class=""vertical-center"" style='width:60%;'><p style='font-weight:bold;'>Does the middle word sound more like the first word (A) or the last word (B)?</p> <br> <div class=""container""> <div id=""a-box""> <p class=""title-text"">A</h3></p> </div> <div id=""x-box""> <p class=""title-text"">X<p> </div> <div id=""b-box""> <p class=""title-text"">B</p></div> <br> <div style='float: left;padding-left:30px;'><p>Press '1' for A</p></div><div style='float: right;padding-right:30px;'><p>Press '0' for B</p> </div> </div></div>","null","","","","","","","","","","","","","",""
"2891","","test","audio-keyboard-response","57","461061","0.0-8.0-1.15","5f345fec952faa3654e9975e","condB","","resources/audio/wordStim/S9_AU_11_axb_Step-2.wav","49","","","","","AU","resources/audio/wordStim/S9_AU_11_axb_Step-2.wav","S9","11","axb","2","CN","0","1","false"
"null","","fixation","html-keyboard-response","58","462065","0.0-8.0-0.16","5f345fec952faa3654e9975e","condB","","<div class=""vertical-center"" style='width:60%;'><p style='font-weight:bold;'>Does the middle word sound more like the first word (A) or the last word (B)?</p> <br> <div class=""container""> <div id=""a-box""> <p class=""title-text"">A</h3></p> </div> <div id=""x-box""> <p class=""title-text"">X<p> </div> <div id=""b-box""> <p class=""title-text"">B</p></div> <br> <div style='float: left;padding-left:30px;'><p>Press '1' for A</p></div><div style='float: right;padding-right:30px;'><p>Press '0' for B</p> </div> </div></div>","null","","","","","","","","","","","","","",""
"2560","","test","audio-keyboard-response","59","464629","0.0-8.0-1.16","5f345fec952faa3654e9975e","condB","","resources/audio/wordStim/S9_AU_16_bxa_Step-7.wav","49","","","","","AU","resources/audio/wordStim/S9_AU_16_bxa_Step-7.wav","S9","16","bxa","7","CN","1","1","true"
"null","","fixation","html-keyboard-response","60","465632","0.0-8.0-0.17","5f345fec952faa3654e9975e","condB","","<div class=""vertical-center"" style='width:60%;'><p style='font-weight:bold;'>Does the middle word sound more like the first word (A) or the last word (B)?</p> <br> <div class=""container""> <div id=""a-box""> <p class=""title-text"">A</h3></p> </div> <div id=""x-box""> <p class=""title-text"">X<p> </div> <div id=""b-box""> <p class=""title-text"">B</p></div> <br> <div style='float: left;padding-left:30px;'><p>Press '1' for A</p></div><div style='float: right;padding-right:30px;'><p>Press '0' for B</p> </div> </div></div>","null","","","","","","","","","","","","","",""
"2789","","test","audio-keyboard-response","61","468421","0.0-8.0-1.17","5f345fec952faa3654e9975e","condB","","resources/audio/wordStim/S9_AI_23_bxa_Step-10.wav","49","","","","","AI","resources/audio/wordStim/S9_AI_23_bxa_Step-10.wav","S9","23","bxa","10","CN","1","1","true"
"null","","fixation","html-keyboard-response","62","469424","0.0-8.0-0.18","5f345fec952faa3654e9975e","condB","","<div class=""vertical-center"" style='width:60%;'><p style='font-weight:bold;'>Does the middle word sound more like the first word (A) or the last word (B)?</p> <br> <div class=""container""> <div id=""a-box""> <p class=""title-text"">A</h3></p> </div> <div id=""x-box""> <p class=""title-text"">X<p> </div> <div id=""b-box""> <p class=""title-text"">B</p></div> <br> <div style='float: left;padding-left:30px;'><p>Press '1' for A</p></div><div style='float: right;padding-right:30px;'><p>Press '0' for B</p> </div> </div></div>","null","","","","","","","","","","","","","",""
"3029","","test","audio-keyboard-response","63","472454","0.0-8.0-1.18","5f345fec952faa3654e9975e","condB","","resources/audio/wordStim/S9_AU_20_axb_Step-4.wav","49","","","","","AU","resources/audio/wordStim/S9_AU_20_axb_Step-4.wav","S9","20","axb","4","CN","0","1","false"
"null","","fixation","html-keyboard-response","64","473456","0.0-8.0-0.19","5f345fec952faa3654e9975e","condB","","<div class=""vertical-center"" style='width:60%;'><p style='font-weight:bold;'>Does the middle word sound more like the first word (A) or the last word (B)?</p> <br> <div class=""container""> <div id=""a-box""> <p class=""title-text"">A</h3></p> </div> <div id=""x-box""> <p class=""title-text"">X<p> </div> <div id=""b-box""> <p class=""title-text"">B</p></div> <br> <div style='float: left;padding-left:30px;'><p>Press '1' for A</p></div><div style='float: right;padding-right:30px;'><p>Press '0' for B</p> </div> </div></div>","null","","","","","","","","","","","","","",""
"2832","","test","audio-keyboard-response","65","476285","0.0-8.0-1.19","5f345fec952faa3654e9975e","condB","","resources/audio/wordStim/S9_AU_14_axb_Step-2.wav","49","","","","","AU","resources/audio/wordStim/S9_AU_14_axb_Step-2.wav","S9","14","axb","2","CN","0","1","false"
"null","","fixation","html-keyboard-response","66","477288","0.0-8.0-0.20","5f345fec952faa3654e9975e","condB","","<div class=""vertical-center"" style='width:60%;'><p style='font-weight:bold;'>Does the middle word sound more like the first word (A) or the last word (B)?</p> <br> <div class=""container""> <div id=""a-box""> <p class=""title-text"">A</h3></p> </div> <div id=""x-box""> <p class=""title-text"">X<p> </div> <div id=""b-box""> <p class=""title-text"">B</p></div> <br> <div style='float: left;padding-left:30px;'><p>Press '1' for A</p></div><div style='float: right;padding-right:30px;'><p>Press '0' for B</p> </div> </div></div>","null","","","","","","","","","","","","","",""
"2928","","test","audio-keyboard-response","67","480214","0.0-8.0-1.20","5f345fec952faa3654e9975e","condB","","resources/audio/wordStim/S3_AI_23_axb_Step-4.wav","48","","","","","AI","resources/audio/wordStim/S3_AI_23_axb_Step-4.wav","S3","23","axb","4","MI","0","0","true"
"null","","fixation","html-keyboard-response","68","481215","0.0-8.0-0.21","5f345fec952faa3654e9975e","condB","","<div class=""vertical-center"" style='width:60%;'><p style='font-weight:bold;'>Does the middle word sound more like the first word (A) or the last word (B)?</p> <br> <div class=""container""> <div id=""a-box""> <p class=""title-text"">A</h3></p> </div> <div id=""x-box""> <p class=""title-text"">X<p> </div> <div id=""b-box""> <p class=""title-text"">B</p></div> <br> <div style='float: left;padding-left:30px;'><p>Press '1' for A</p></div><div style='float: right;padding-right:30px;'><p>Press '0' for B</p> </div> </div></div>","null","","","","","","","","","","","","","",""
"2931","","test","audio-keyboard-response","69","484151","0.0-8.0-1.21","5f345fec952faa3654e9975e","condB","","resources/audio/wordStim/S9_AI_22_bxa_Step-10.wav","48","","","","","AI","resources/audio/wordStim/S9_AI_22_bxa_Step-10.wav","S9","22","bxa","10","CN","1","0","false"
"null","","fixation","html-keyboard-response","70","485155","0.0-8.0-0.22","5f345fec952faa3654e9975e","condB","","<div class=""vertical-center"" style='width:60%;'><p style='font-weight:bold;'>Does the middle word sound more like the first word (A) or the last word (B)?</p> <br> <div class=""container""> <div id=""a-box""> <p class=""title-text"">A</h3></p> </div> <div id=""x-box""> <p class=""title-text"">X<p> </div> <div id=""b-box""> <p class=""title-text"">B</p></div> <br> <div style='float: left;padding-left:30px;'><p>Press '1' for A</p></div><div style='float: right;padding-right:30px;'><p>Press '0' for B</p> </div> </div></div>","null","","","","","","","","","","","","","",""
"2920","","test","audio-keyboard-response","71","488078","0.0-8.0-1.22","5f345fec952faa3654e9975e","condB","","resources/audio/wordStim/S9_AI_30_axb_Step-8.wav","49","","","","","AI","resources/audio/wordStim/S9_AI_30_axb_Step-8.wav","S9","30","axb","8","CN","0","1","false"
"null","","fixation","html-keyboard-response","72","489081","0.0-8.0-0.23","5f345fec952faa3654e9975e","condB","","<div class=""vertical-center"" style='width:60%;'><p style='font-weight:bold;'>Does the middle word sound more like the first word (A) or the last word (B)?</p> <br> <div class=""container""> <div id=""a-box""> <p class=""title-text"">A</h3></p> </div> <div id=""x-box""> <p class=""title-text"">X<p> </div> <div id=""b-box""> <p class=""title-text"">B</p></div> <br> <div style='float: left;padding-left:30px;'><p>Press '1' for A</p></div><div style='float: right;padding-right:30px;'><p>Press '0' for B</p> </div> </div></div>","null","","","","","","","","","","","","","",""
"3059","","test","audio-keyboard-response","73","492151","0.0-8.0-1.23","5f345fec952faa3654e9975e","condB","","resources/audio/wordStim/S9_AU_18_axb_Step-8.wav","49","","","","","AU","resources/audio/wordStim/S9_AU_18_axb_Step-8.wav","S9","18","axb","8","CN","0","1","false"
"null","","fixation","html-keyboard-response","74","493153","0.0-8.0-0.24","5f345fec952faa3654e9975e","condB","","<div class=""vertical-center"" style='width:60%;'><p style='font-weight:bold;'>Does the middle word sound more like the first word (A) or the last word (B)?</p> <br> <div class=""container""> <div id=""a-box""> <p class=""title-text"">A</h3></p> </div> <div id=""x-box""> <p class=""title-text"">X<p> </div> <div id=""b-box""> <p class=""title-text"">B</p></div> <br> <div style='float: left;padding-left:30px;'><p>Press '1' for A</p></div><div style='float: right;padding-right:30px;'><p>Press '0' for B</p> </div> </div></div>","null","","","","","","","","","","","","","",""
"2709","","test","audio-keyboard-response","75","495864","0.0-8.0-1.24","5f345fec952faa3654e9975e","condB","","resources/audio/wordStim/S3_AU_19_axb_Step-8.wav","49","","","","","AU","resources/audio/wordStim/S3_AU_19_axb_Step-8.wav","S3","19","axb","8","MI","0","1","false"
"null","","fixation","html-keyboard-response","76","496867","0.0-8.0-0.25","5f345fec952faa3654e9975e","condB","","<div class=""vertical-center"" style='width:60%;'><p style='font-weight:bold;'>Does the middle word sound more like the first word (A) or the last word (B)?</p> <br> <div class=""container""> <div id=""a-box""> <p class=""title-text"">A</h3></p> </div> <div id=""x-box""> <p class=""title-text"">X<p> </div> <div id=""b-box""> <p class=""title-text"">B</p></div> <br> <div style='float: left;padding-left:30px;'><p>Press '1' for A</p></div><div style='float: right;padding-right:30px;'><p>Press '0' for B</p> </div> </div></div>","null","","","","","","","","","","","","","",""
"3360","","test","audio-keyboard-response","77","500231","0.0-8.0-1.25","5f345fec952faa3654e9975e","condB","","resources/audio/wordStim/S3_AU_17_bxa_Step-3.wav","48","","","","","AU","resources/audio/wordStim/S3_AU_17_bxa_Step-3.wav","S3","17","bxa","3","MI","1","0","false"
"null","","fixation","html-keyboard-response","78","501235","0.0-8.0-0.26","5f345fec952faa3654e9975e","condB","","<div class=""vertical-center"" style='width:60%;'><p style='font-weight:bold;'>Does the middle word sound more like the first word (A) or the last word (B)?</p> <br> <div class=""container""> <div id=""a-box""> <p class=""title-text"">A</h3></p> </div> <div id=""x-box""> <p class=""title-text"">X<p> </div> <div id=""b-box""> <p class=""title-text"">B</p></div> <br> <div style='float: left;padding-left:30px;'><p>Press '1' for A</p></div><div style='float: right;padding-right:30px;'><p>Press '0' for B</p> </div> </div></div>","null","","","","","","","","","","","","","",""
"2549","","test","audio-keyboard-response","79","503792","0.0-8.0-1.26","5f345fec952faa3654e9975e","condB","","resources/audio/wordStim/S3_AU_14_axb_Step-6.wav","48","","","","","AU","resources/audio/wordStim/S3_AU_14_axb_Step-6.wav","S3","14","axb","6","MI","0","0","true"
"6716.185000026599","","break","html-keyboard-response","80","511009","0.0-8.0-2.26-0.26","5f345fec952faa3654e9975e","condB","","<div class=""vertical-center""><p>Feel free to take a break!</p><i>When you're ready to continue, press SPACE to begin the next trial.</i></p></div>","32","","","","","","","","","","","","","",""
"null","","fixation","html-keyboard-response","81","511512","0.0-8.0-0.27","5f345fec952faa3654e9975e","condB","","<div class=""vertical-center"" style='width:60%;'><p style='font-weight:bold;'>Does the middle word sound more like the first word (A) or the last word (B)?</p> <br> <div class=""container""> <div id=""a-box""> <p class=""title-text"">A</h3></p> </div> <div id=""x-box""> <p class=""title-text"">X<p> </div> <div id=""b-box""> <p class=""title-text"">B</p></div> <br> <div style='float: left;padding-left:30px;'><p>Press '1' for A</p></div><div style='float: right;padding-right:30px;'><p>Press '0' for B</p> </div> </div></div>","null","","","","","","","","","","","","","",""
"2731","","test","audio-keyboard-response","82","514241","0.0-8.0-1.27","5f345fec952faa3654e9975e","condB","","resources/audio/wordStim/S3_AI_23_axb_Step-8.wav","48","","","","","AI","resources/audio/wordStim/S3_AI_23_axb_Step-8.wav","S3","23","axb","8","MI","0","0","true"
"null","","fixation","html-keyboard-response","83","515243","0.0-8.0-0.28","5f345fec952faa3654e9975e","condB","","<div class=""vertical-center"" style='width:60%;'><p style='font-weight:bold;'>Does the middle word sound more like the first word (A) or the last word (B)?</p> <br> <div class=""container""> <div id=""a-box""> <p class=""title-text"">A</h3></p> </div> <div id=""x-box""> <p class=""title-text"">X<p> </div> <div id=""b-box""> <p class=""title-text"">B</p></div> <br> <div style='float: left;padding-left:30px;'><p>Press '1' for A</p></div><div style='float: right;padding-right:30px;'><p>Press '0' for B</p> </div> </div></div>","null","","","","","","","","","","","","","",""
"3360","","test","audio-keyboard-response","84","518601","0.0-8.0-1.28","5f345fec952faa3654e9975e","condB","","resources/audio/wordStim/S3_AU_18_axb_Step-6.wav","49","","","","","AU","resources/audio/wordStim/S3_AU_18_axb_Step-6.wav","S3","18","axb","6","MI","0","1","false"
"null","","fixation","html-keyboard-response","85","519603","0.0-8.0-0.29","5f345fec952faa3654e9975e","condB","","<div class=""vertical-center"" style='width:60%;'><p style='font-weight:bold;'>Does the middle word sound more like the first word (A) or the last word (B)?</p> <br> <div class=""container""> <div id=""a-box""> <p class=""title-text"">A</h3></p> </div> <div id=""x-box""> <p class=""title-text"">X<p> </div> <div id=""b-box""> <p class=""title-text"">B</p></div> <br> <div style='float: left;padding-left:30px;'><p>Press '1' for A</p></div><div style='float: right;padding-right:30px;'><p>Press '0' for B</p> </div> </div></div>","null","","","","","","","","","","","","","",""
"2829","","test","audio-keyboard-response","86","522434","0.0-8.0-1.29","5f345fec952faa3654e9975e","condB","","resources/audio/wordStim/S9_AI_24_bxa_Step-3.wav","48","","","","","AI","resources/audio/wordStim/S9_AI_24_bxa_Step-3.wav","S9","24","bxa","3","CN","1","0","false"
"null","","fixation","html-keyboard-response","87","523437","0.0-8.0-0.30","5f345fec952faa3654e9975e","condB","","<div class=""vertical-center"" style='width:60%;'><p style='font-weight:bold;'>Does the middle word sound more like the first word (A) or the last word (B)?</p> <br> <div class=""container""> <div id=""a-box""> <p class=""title-text"">A</h3></p> </div> <div id=""x-box""> <p class=""title-text"">X<p> </div> <div id=""b-box""> <p class=""title-text"">B</p></div> <br> <div style='float: left;padding-left:30px;'><p>Press '1' for A</p></div><div style='float: right;padding-right:30px;'><p>Press '0' for B</p> </div> </div></div>","null","","","","","","","","","","","","","",""
"2640","","test","audio-keyboard-response","88","526081","0.0-8.0-1.30","5f345fec952faa3654e9975e","condB","","resources/audio/wordStim/S9_AU_16_axb_Step-2.wav","49","","","","","AU","resources/audio/wordStim/S9_AU_16_axb_Step-2.wav","S9","16","axb","2","CN","0","1","false"
"null","","fixation","html-keyboard-response","89","527084","0.0-8.0-0.31","5f345fec952faa3654e9975e","condB","","<div class=""vertical-center"" style='width:60%;'><p style='font-weight:bold;'>Does the middle word sound more like the first word (A) or the last word (B)?</p> <br> <div class=""container""> <div id=""a-box""> <p class=""title-text"">A</h3></p> </div> <div id=""x-box""> <p class=""title-text"">X<p> </div> <div id=""b-box""> <p class=""title-text"">B</p></div> <br> <div style='float: left;padding-left:30px;'><p>Press '1' for A</p></div><div style='float: right;padding-right:30px;'><p>Press '0' for B</p> </div> </div></div>","null","","","","","","","","","","","","","",""
"2371","","test","audio-keyboard-response","90","529450","0.0-8.0-1.31","5f345fec952faa3654e9975e","condB","","resources/audio/wordStim/S9_AU_16_axb_Step-8.wav","48","","","","","AU","resources/audio/wordStim/S9_AU_16_axb_Step-8.wav","S9","16","axb","8","CN","0","0","true"
"null","","fixation","html-keyboard-response","91","530452","0.0-8.0-0.32","5f345fec952faa3654e9975e","condB","","<div class=""vertical-center"" style='width:60%;'><p style='font-weight:bold;'>Does the middle word sound more like the first word (A) or the last word (B)?</p> <br> <div class=""container""> <div id=""a-box""> <p class=""title-text"">A</h3></p> </div> <div id=""x-box""> <p class=""title-text"">X<p> </div> <div id=""b-box""> <p class=""title-text"">B</p></div> <br> <div style='float: left;padding-left:30px;'><p>Press '1' for A</p></div><div style='float: right;padding-right:30px;'><p>Press '0' for B</p> </div> </div></div>","null","","","","","","","","","","","","","",""
"3709","","test","audio-keyboard-response","92","534163","0.0-8.0-1.32","5f345fec952faa3654e9975e","condB","","resources/audio/wordStim/S9_AU_18_bxa_Step-5.wav","48","","","","","AU","resources/audio/wordStim/S9_AU_18_bxa_Step-5.wav","S9","18","bxa","5","CN","1","0","false"
"null","","fixation","html-keyboard-response","93","535165","0.0-8.0-0.33","5f345fec952faa3654e9975e","condB","","<div class=""vertical-center"" style='width:60%;'><p style='font-weight:bold;'>Does the middle word sound more like the first word (A) or the last word (B)?</p> <br> <div class=""container""> <div id=""a-box""> <p class=""title-text"">A</h3></p> </div> <div id=""x-box""> <p class=""title-text"">X<p> </div> <div id=""b-box""> <p class=""title-text"">B</p></div> <br> <div style='float: left;padding-left:30px;'><p>Press '1' for A</p></div><div style='float: right;padding-right:30px;'><p>Press '0' for B</p> </div> </div></div>","null","","","","","","","","","","","","","",""
"2859","","test","audio-keyboard-response","94","538018","0.0-8.0-1.33","5f345fec952faa3654e9975e","condB","","resources/audio/wordStim/S9_AI_27_axb_Step-6.wav","49","","","","","AI","resources/audio/wordStim/S9_AI_27_axb_Step-6.wav","S9","27","axb","6","CN","0","1","false"
"null","","fixation","html-keyboard-response","95","539020","0.0-8.0-0.34","5f345fec952faa3654e9975e","condB","","<div class=""vertical-center"" style='width:60%;'><p style='font-weight:bold;'>Does the middle word sound more like the first word (A) or the last word (B)?</p> <br> <div class=""container""> <div id=""a-box""> <p class=""title-text"">A</h3></p> </div> <div id=""x-box""> <p class=""title-text"">X<p> </div> <div id=""b-box""> <p class=""title-text"">B</p></div> <br> <div style='float: left;padding-left:30px;'><p>Press '1' for A</p></div><div style='float: right;padding-right:30px;'><p>Press '0' for B</p> </div> </div></div>","null","","","","","","","","","","","","","",""
"2512","","test","audio-keyboard-response","96","541530","0.0-8.0-1.34","5f345fec952faa3654e9975e","condB","","resources/audio/wordStim/S3_AU_14_bxa_Step-3.wav","48","","","","","AU","resources/audio/wordStim/S3_AU_14_bxa_Step-3.wav","S3","14","bxa","3","MI","1","0","false"
"null","","fixation","html-keyboard-response","97","542533","0.0-8.0-0.35","5f345fec952faa3654e9975e","condB","","<div class=""vertical-center"" style='width:60%;'><p style='font-weight:bold;'>Does the middle word sound more like the first word (A) or the last word (B)?</p> <br> <div class=""container""> <div id=""a-box""> <p class=""title-text"">A</h3></p> </div> <div id=""x-box""> <p class=""title-text"">X<p> </div> <div id=""b-box""> <p class=""title-text"">B</p></div> <br> <div style='float: left;padding-left:30px;'><p>Press '1' for A</p></div><div style='float: right;padding-right:30px;'><p>Press '0' for B</p> </div> </div></div>","null","","","","","","","","","","","","","",""
"2648","","test","audio-keyboard-response","98","545188","0.0-8.0-1.35","5f345fec952faa3654e9975e","condB","","resources/audio/wordStim/S9_AU_17_bxa_Step-3.wav","48","","","","","AU","resources/audio/wordStim/S9_AU_17_bxa_Step-3.wav","S9","17","bxa","3","CN","1","0","false"
"null","","fixation","html-keyboard-response","99","546190","0.0-8.0-0.36","5f345fec952faa3654e9975e","condB","","<div class=""vertical-center"" style='width:60%;'><p style='font-weight:bold;'>Does the middle word sound more like the first word (A) or the last word (B)?</p> <br> <div class=""container""> <div id=""a-box""> <p class=""title-text"">A</h3></p> </div> <div id=""x-box""> <p class=""title-text"">X<p> </div> <div id=""b-box""> <p class=""title-text"">B</p></div> <br> <div style='float: left;padding-left:30px;'><p>Press '1' for A</p></div><div style='float: right;padding-right:30px;'><p>Press '0' for B</p> </div> </div></div>","null","","","","","","","","","","","","","",""
"2669","","test","audio-keyboard-response","100","548859","0.0-8.0-1.36","5f345fec952faa3654e9975e","condB","","resources/audio/wordStim/S9_AU_17_bxa_Step-7.wav","49","","","","","AU","resources/audio/wordStim/S9_AU_17_bxa_Step-7.wav","S9","17","bxa","7","CN","1","1","true"
"null","","fixation","html-keyboard-response","101","549861","0.0-8.0-0.37","5f345fec952faa3654e9975e","condB","","<div class=""vertical-center"" style='width:60%;'><p style='font-weight:bold;'>Does the middle word sound more like the first word (A) or the last word (B)?</p> <br> <div class=""container""> <div id=""a-box""> <p class=""title-text"">A</h3></p> </div> <div id=""x-box""> <p class=""title-text"">X<p> </div> <div id=""b-box""> <p class=""title-text"">B</p></div> <br> <div style='float: left;padding-left:30px;'><p>Press '1' for A</p></div><div style='float: right;padding-right:30px;'><p>Press '0' for B</p> </div> </div></div>","null","","","","","","","","","","","","","",""
"2872","","test","audio-keyboard-response","102","552731","0.0-8.0-1.37","5f345fec952faa3654e9975e","condB","","resources/audio/wordStim/S9_AU_13_axb_Step-4.wav","49","","","","","AU","resources/audio/wordStim/S9_AU_13_axb_Step-4.wav","S9","13","axb","4","CN","0","1","false"
"null","","fixation","html-keyboard-response","103","553734","0.0-8.0-0.38","5f345fec952faa3654e9975e","condB","","<div class=""vertical-center"" style='width:60%;'><p style='font-weight:bold;'>Does the middle word sound more like the first word (A) or the last word (B)?</p> <br> <div class=""container""> <div id=""a-box""> <p class=""title-text"">A</h3></p> </div> <div id=""x-box""> <p class=""title-text"">X<p> </div> <div id=""b-box""> <p class=""title-text"">B</p></div> <br> <div style='float: left;padding-left:30px;'><p>Press '1' for A</p></div><div style='float: right;padding-right:30px;'><p>Press '0' for B</p> </div> </div></div>","null","","","","","","","","","","","","","",""
"2779","","test","audio-keyboard-response","104","556517","0.0-8.0-1.38","5f345fec952faa3654e9975e","condB","","resources/audio/wordStim/S9_AU_20_axb_Step-6.wav","49","","","","","AU","resources/audio/wordStim/S9_AU_20_axb_Step-6.wav","S9","20","axb","6","CN","0","1","false"
"null","","fixation","html-keyboard-response","105","557519","0.0-8.0-0.39","5f345fec952faa3654e9975e","condB","","<div class=""vertical-center"" style='width:60%;'><p style='font-weight:bold;'>Does the middle word sound more like the first word (A) or the last word (B)?</p> <br> <div class=""container""> <div id=""a-box""> <p class=""title-text"">A</h3></p> </div> <div id=""x-box""> <p class=""title-text"">X<p> </div> <div id=""b-box""> <p class=""title-text"">B</p></div> <br> <div style='float: left;padding-left:30px;'><p>Press '1' for A</p></div><div style='float: right;padding-right:30px;'><p>Press '0' for B</p> </div> </div></div>","null","","","","","","","","","","","","","",""
"2749","","test","audio-keyboard-response","106","560276","0.0-8.0-1.39","5f345fec952faa3654e9975e","condB","","resources/audio/wordStim/S3_AI_28_bxa_Step-9.wav","49","","","","","AI","resources/audio/wordStim/S3_AI_28_bxa_Step-9.wav","S3","28","bxa","9","MI","1","1","true"
"null","","fixation","html-keyboard-response","107","561280","0.0-8.0-0.40","5f345fec952faa3654e9975e","condB","","<div class=""vertical-center"" style='width:60%;'><p style='font-weight:bold;'>Does the middle word sound more like the first word (A) or the last word (B)?</p> <br> <div class=""container""> <div id=""a-box""> <p class=""title-text"">A</h3></p> </div> <div id=""x-box""> <p class=""title-text"">X<p> </div> <div id=""b-box""> <p class=""title-text"">B</p></div> <br> <div style='float: left;padding-left:30px;'><p>Press '1' for A</p></div><div style='float: right;padding-right:30px;'><p>Press '0' for B</p> </div> </div></div>","null","","","","","","","","","","","","","",""
"3560","","test","audio-keyboard-response","108","564845","0.0-8.0-1.40","5f345fec952faa3654e9975e","condB","","resources/audio/wordStim/S9_AI_25_axb_Step-2.wav","48","","","","","AI","resources/audio/wordStim/S9_AI_25_axb_Step-2.wav","S9","25","axb","2","CN","0","0","true"
"null","","fixation","html-keyboard-response","109","565847","0.0-8.0-0.41","5f345fec952faa3654e9975e","condB","","<div class=""vertical-center"" style='width:60%;'><p style='font-weight:bold;'>Does the middle word sound more like the first word (A) or the last word (B)?</p> <br> <div class=""container""> <div id=""a-box""> <p class=""title-text"">A</h3></p> </div> <div id=""x-box""> <p class=""title-text"">X<p> </div> <div id=""b-box""> <p class=""title-text"">B</p></div> <br> <div style='float: left;padding-left:30px;'><p>Press '1' for A</p></div><div style='float: right;padding-right:30px;'><p>Press '0' for B</p> </div> </div></div>","null","","","","","","","","","","","","","",""
"3171","","test","audio-keyboard-response","110","569014","0.0-8.0-1.41","5f345fec952faa3654e9975e","condB","","resources/audio/wordStim/S9_AI_29_axb_Step-4.wav","49","","","","","AI","resources/audio/wordStim/S9_AI_29_axb_Step-4.wav","S9","29","axb","4","CN","0","1","false"
"null","","fixation","html-keyboard-response","111","570017","0.0-8.0-0.42","5f345fec952faa3654e9975e","condB","","<div class=""vertical-center"" style='width:60%;'><p style='font-weight:bold;'>Does the middle word sound more like the first word (A) or the last word (B)?</p> <br> <div class=""container""> <div id=""a-box""> <p class=""title-text"">A</h3></p> </div> <div id=""x-box""> <p class=""title-text"">X<p> </div> <div id=""b-box""> <p class=""title-text"">B</p></div> <br> <div style='float: left;padding-left:30px;'><p>Press '1' for A</p></div><div style='float: right;padding-right:30px;'><p>Press '0' for B</p> </div> </div></div>","null","","","","","","","","","","","","","",""
"2960","","test","audio-keyboard-response","112","572973","0.0-8.0-1.42","5f345fec952faa3654e9975e","condB","","resources/audio/wordStim/S9_AU_14_bxa_Step-10.wav","49","","","","","AU","resources/audio/wordStim/S9_AU_14_bxa_Step-10.wav","S9","14","bxa","10","CN","1","1","true"
"null","","fixation","html-keyboard-response","113","573977","0.0-8.0-0.43","5f345fec952faa3654e9975e","condB","","<div class=""vertical-center"" style='width:60%;'><p style='font-weight:bold;'>Does the middle word sound more like the first word (A) or the last word (B)?</p> <br> <div class=""container""> <div id=""a-box""> <p class=""title-text"">A</h3></p> </div> <div id=""x-box""> <p class=""title-text"">X<p> </div> <div id=""b-box""> <p class=""title-text"">B</p></div> <br> <div style='float: left;padding-left:30px;'><p>Press '1' for A</p></div><div style='float: right;padding-right:30px;'><p>Press '0' for B</p> </div> </div></div>","null","","","","","","","","","","","","","",""
"2800","","test","audio-keyboard-response","114","576773","0.0-8.0-1.43","5f345fec952faa3654e9975e","condB","","resources/audio/wordStim/S3_AU_11_axb_Step-6.wav","49","","","","","AU","resources/audio/wordStim/S3_AU_11_axb_Step-6.wav","S3","11","axb","6","MI","0","1","false"
"null","","fixation","html-keyboard-response","115","577776","0.0-8.0-0.44","5f345fec952faa3654e9975e","condB","","<div class=""vertical-center"" style='width:60%;'><p style='font-weight:bold;'>Does the middle word sound more like the first word (A) or the last word (B)?</p> <br> <div class=""container""> <div id=""a-box""> <p class=""title-text"">A</h3></p> </div> <div id=""x-box""> <p class=""title-text"">X<p> </div> <div id=""b-box""> <p class=""title-text"">B</p></div> <br> <div style='float: left;padding-left:30px;'><p>Press '1' for A</p></div><div style='float: right;padding-right:30px;'><p>Press '0' for B</p> </div> </div></div>","null","","","","","","","","","","","","","",""
"3309","","test","audio-keyboard-response","116","581087","0.0-8.0-1.44","5f345fec952faa3654e9975e","condB","","resources/audio/wordStim/S3_AU_17_axb_Step-6.wav","49","","","","","AU","resources/audio/wordStim/S3_AU_17_axb_Step-6.wav","S3","17","axb","6","MI","0","1","false"
"null","","fixation","html-keyboard-response","117","582089","0.0-8.0-0.45","5f345fec952faa3654e9975e","condB","","<div class=""vertical-center"" style='width:60%;'><p style='font-weight:bold;'>Does the middle word sound more like the first word (A) or the last word (B)?</p> <br> <div class=""container""> <div id=""a-box""> <p class=""title-text"">A</h3></p> </div> <div id=""x-box""> <p class=""title-text"">X<p> </div> <div id=""b-box""> <p class=""title-text"">B</p></div> <br> <div style='float: left;padding-left:30px;'><p>Press '1' for A</p></div><div style='float: right;padding-right:30px;'><p>Press '0' for B</p> </div> </div></div>","null","","","","","","","","","","","","","",""
"2811","","test","audio-keyboard-response","118","584902","0.0-8.0-1.45","5f345fec952faa3654e9975e","condB","","resources/audio/wordStim/S9_AI_30_axb_Step-4.wav","48","","","","","AI","resources/audio/wordStim/S9_AI_30_axb_Step-4.wav","S9","30","axb","4","CN","0","0","true"
"null","","fixation","html-keyboard-response","119","585905","0.0-8.0-0.46","5f345fec952faa3654e9975e","condB","","<div class=""vertical-center"" style='width:60%;'><p style='font-weight:bold;'>Does the middle word sound more like the first word (A) or the last word (B)?</p> <br> <div class=""container""> <div id=""a-box""> <p class=""title-text"">A</h3></p> </div> <div id=""x-box""> <p class=""title-text"">X<p> </div> <div id=""b-box""> <p class=""title-text"">B</p></div> <br> <div style='float: left;padding-left:30px;'><p>Press '1' for A</p></div><div style='float: right;padding-right:30px;'><p>Press '0' for B</p> </div> </div></div>","null","","","","","","","","","","","","","",""
"2440","","test","audio-keyboard-response","120","588350","0.0-8.0-1.46","5f345fec952faa3654e9975e","condB","","resources/audio/wordStim/S3_AI_21_bxa_Step-9.wav","49","","","","","AI","resources/audio/wordStim/S3_AI_21_bxa_Step-9.wav","S3","21","bxa","9","MI","1","1","true"
"null","","fixation","html-keyboard-response","121","589352","0.0-8.0-0.47","5f345fec952faa3654e9975e","condB","","<div class=""vertical-center"" style='width:60%;'><p style='font-weight:bold;'>Does the middle word sound more like the first word (A) or the last word (B)?</p> <br> <div class=""container""> <div id=""a-box""> <p class=""title-text"">A</h3></p> </div> <div id=""x-box""> <p class=""title-text"">X<p> </div> <div id=""b-box""> <p class=""title-text"">B</p></div> <br> <div style='float: left;padding-left:30px;'><p>Press '1' for A</p></div><div style='float: right;padding-right:30px;'><p>Press '0' for B</p> </div> </div></div>","null","","","","","","","","","","","","","",""
"2949","","test","audio-keyboard-response","122","592304","0.0-8.0-1.47","5f345fec952faa3654e9975e","condB","","resources/audio/wordStim/S9_AU_18_axb_Step-2.wav","49","","","","","AU","resources/audio/wordStim/S9_AU_18_axb_Step-2.wav","S9","18","axb","2","CN","0","1","false"
"null","","fixation","html-keyboard-response","123","593308","0.0-8.0-0.48","5f345fec952faa3654e9975e","condB","","<div class=""vertical-center"" style='width:60%;'><p style='font-weight:bold;'>Does the middle word sound more like the first word (A) or the last word (B)?</p> <br> <div class=""container""> <div id=""a-box""> <p class=""title-text"">A</h3></p> </div> <div id=""x-box""> <p class=""title-text"">X<p> </div> <div id=""b-box""> <p class=""title-text"">B</p></div> <br> <div style='float: left;padding-left:30px;'><p>Press '1' for A</p></div><div style='float: right;padding-right:30px;'><p>Press '0' for B</p> </div> </div></div>","null","","","","","","","","","","","","","",""
"3152","","test","audio-keyboard-response","124","596455","0.0-8.0-1.48","5f345fec952faa3654e9975e","condB","","resources/audio/wordStim/S9_AI_24_axb_Step-8.wav","49","","","","","AI","resources/audio/wordStim/S9_AI_24_axb_Step-8.wav","S9","24","axb","8","CN","0","1","false"
"null","","fixation","html-keyboard-response","125","597458","0.0-8.0-0.49","5f345fec952faa3654e9975e","condB","","<div class=""vertical-center"" style='width:60%;'><p style='font-weight:bold;'>Does the middle word sound more like the first word (A) or the last word (B)?</p> <br> <div class=""container""> <div id=""a-box""> <p class=""title-text"">A</h3></p> </div> <div id=""x-box""> <p class=""title-text"">X<p> </div> <div id=""b-box""> <p class=""title-text"">B</p></div> <br> <div style='float: left;padding-left:30px;'><p>Press '1' for A</p></div><div style='float: right;padding-right:30px;'><p>Press '0' for B</p> </div> </div></div>","null","","","","","","","","","","","","","",""
"3000","","test","audio-keyboard-response","126","600455","0.0-8.0-1.49","5f345fec952faa3654e9975e","condB","","resources/audio/wordStim/S3_AI_22_bxa_Step-7.wav","49","","","","","AI","resources/audio/wordStim/S3_AI_22_bxa_Step-7.wav","S3","22","bxa","7","MI","1","1","true"
"null","","fixation","html-keyboard-response","127","601457","0.0-8.0-0.50","5f345fec952faa3654e9975e","condB","","<div class=""vertical-center"" style='width:60%;'><p style='font-weight:bold;'>Does the middle word sound more like the first word (A) or the last word (B)?</p> <br> <div class=""container""> <div id=""a-box""> <p class=""title-text"">A</h3></p> </div> <div id=""x-box""> <p class=""title-text"">X<p> </div> <div id=""b-box""> <p class=""title-text"">B</p></div> <br> <div style='float: left;padding-left:30px;'><p>Press '1' for A</p></div><div style='float: right;padding-right:30px;'><p>Press '0' for B</p> </div> </div></div>","null","","","","","","","","","","","","","",""
"2909","","test","audio-keyboard-response","128","604368","0.0-8.0-1.50","5f345fec952faa3654e9975e","condB","","resources/audio/wordStim/S3_AU_14_bxa_Step-9.wav","49","","","","","AU","resources/audio/wordStim/S3_AU_14_bxa_Step-9.wav","S3","14","bxa","9","MI","1","1","true"
"null","","fixation","html-keyboard-response","129","605370","0.0-8.0-0.51","5f345fec952faa3654e9975e","condB","","<div class=""vertical-center"" style='width:60%;'><p style='font-weight:bold;'>Does the middle word sound more like the first word (A) or the last word (B)?</p> <br> <div class=""container""> <div id=""a-box""> <p class=""title-text"">A</h3></p> </div> <div id=""x-box""> <p class=""title-text"">X<p> </div> <div id=""b-box""> <p class=""title-text"">B</p></div> <br> <div style='float: left;padding-left:30px;'><p>Press '1' for A</p></div><div style='float: right;padding-right:30px;'><p>Press '0' for B</p> </div> </div></div>","null","","","","","","","","","","","","","",""
"2979","","test","audio-keyboard-response","130","608352","0.0-8.0-1.51","5f345fec952faa3654e9975e","condB","","resources/audio/wordStim/S3_AU_20_bxa_Step-9.wav","49","","","","","AU","resources/audio/wordStim/S3_AU_20_bxa_Step-9.wav","S3","20","bxa","9","MI","1","1","true"
"null","","fixation","html-keyboard-response","131","609355","0.0-8.0-0.52","5f345fec952faa3654e9975e","condB","","<div class=""vertical-center"" style='width:60%;'><p style='font-weight:bold;'>Does the middle word sound more like the first word (A) or the last word (B)?</p> <br> <div class=""container""> <div id=""a-box""> <p class=""title-text"">A</h3></p> </div> <div id=""x-box""> <p class=""title-text"">X<p> </div> <div id=""b-box""> <p class=""title-text"">B</p></div> <br> <div style='float: left;padding-left:30px;'><p>Press '1' for A</p></div><div style='float: right;padding-right:30px;'><p>Press '0' for B</p> </div> </div></div>","null","","","","","","","","","","","","","",""
"2901","","test","audio-keyboard-response","132","612256","0.0-8.0-1.52","5f345fec952faa3654e9975e","condB","","resources/audio/wordStim/S9_AU_14_axb_Step-6.wav","49","","","","","AU","resources/audio/wordStim/S9_AU_14_axb_Step-6.wav","S9","14","axb","6","CN","0","1","false"
"null","","fixation","html-keyboard-response","133","613259","0.0-8.0-0.53","5f345fec952faa3654e9975e","condB","","<div class=""vertical-center"" style='width:60%;'><p style='font-weight:bold;'>Does the middle word sound more like the first word (A) or the last word (B)?</p> <br> <div class=""container""> <div id=""a-box""> <p class=""title-text"">A</h3></p> </div> <div id=""x-box""> <p class=""title-text"">X<p> </div> <div id=""b-box""> <p class=""title-text"">B</p></div> <br> <div style='float: left;padding-left:30px;'><p>Press '1' for A</p></div><div style='float: right;padding-right:30px;'><p>Press '0' for B</p> </div> </div></div>","null","","","","","","","","","","","","","",""
"2640","","test","audio-keyboard-response","134","615897","0.0-8.0-1.53","5f345fec952faa3654e9975e","condB","","resources/audio/wordStim/S3_AI_21_axb_Step-4.wav","49","","","","","AI","resources/audio/wordStim/S3_AI_21_axb_Step-4.wav","S3","21","axb","4","MI","0","1","false"
"1712.900000042282","","break","html-keyboard-response","135","618112","0.0-8.0-2.53-0.53","5f345fec952faa3654e9975e","condB","","<div class=""vertical-center""><p>Feel free to take a break!</p><i>When you're ready to continue, press SPACE to begin the next trial.</i></p></div>","32","","","","","","","","","","","","","",""
"null","","fixation","html-keyboard-response","136","618613","0.0-8.0-0.54","5f345fec952faa3654e9975e","condB","","<div class=""vertical-center"" style='width:60%;'><p style='font-weight:bold;'>Does the middle word sound more like the first word (A) or the last word (B)?</p> <br> <div class=""container""> <div id=""a-box""> <p class=""title-text"">A</h3></p> </div> <div id=""x-box""> <p class=""title-text"">X<p> </div> <div id=""b-box""> <p class=""title-text"">B</p></div> <br> <div style='float: left;padding-left:30px;'><p>Press '1' for A</p></div><div style='float: right;padding-right:30px;'><p>Press '0' for B</p> </div> </div></div>","null","","","","","","","","","","","","","",""
"3069","","test","audio-keyboard-response","137","621680","0.0-8.0-1.54","5f345fec952faa3654e9975e","condB","","resources/audio/wordStim/S9_AI_25_bxa_Step-5.wav","49","","","","","AI","resources/audio/wordStim/S9_AI_25_bxa_Step-5.wav","S9","25","bxa","5","CN","1","1","true"
"null","","fixation","html-keyboard-response","138","622683","0.0-8.0-0.55","5f345fec952faa3654e9975e","condB","","<div class=""vertical-center"" style='width:60%;'><p style='font-weight:bold;'>Does the middle word sound more like the first word (A) or the last word (B)?</p> <br> <div class=""container""> <div id=""a-box""> <p class=""title-text"">A</h3></p> </div> <div id=""x-box""> <p class=""title-text"">X<p> </div> <div id=""b-box""> <p class=""title-text"">B</p></div> <br> <div style='float: left;padding-left:30px;'><p>Press '1' for A</p></div><div style='float: right;padding-right:30px;'><p>Press '0' for B</p> </div> </div></div>","null","","","","","","","","","","","","","",""
"3040","","test","audio-keyboard-response","139","625721","0.0-8.0-1.55","5f345fec952faa3654e9975e","condB","","resources/audio/wordStim/S3_AI_28_axb_Step-6.wav","49","","","","","AI","resources/audio/wordStim/S3_AI_28_axb_Step-6.wav","S3","28","axb","6","MI","0","1","false"
"null","","fixation","html-keyboard-response","140","626723","0.0-8.0-0.56","5f345fec952faa3654e9975e","condB","","<div class=""vertical-center"" style='width:60%;'><p style='font-weight:bold;'>Does the middle word sound more like the first word (A) or the last word (B)?</p> <br> <div class=""container""> <div id=""a-box""> <p class=""title-text"">A</h3></p> </div> <div id=""x-box""> <p class=""title-text"">X<p> </div> <div id=""b-box""> <p class=""title-text"">B</p></div> <br> <div style='float: left;padding-left:30px;'><p>Press '1' for A</p></div><div style='float: right;padding-right:30px;'><p>Press '0' for B</p> </div> </div></div>","null","","","","","","","","","","","","","",""
"2421","","test","audio-keyboard-response","141","629146","0.0-8.0-1.56","5f345fec952faa3654e9975e","condB","","resources/audio/wordStim/S3_AI_25_axb_Step-4.wav","48","","","","","AI","resources/audio/wordStim/S3_AI_25_axb_Step-4.wav","S3","25","axb","4","MI","0","0","true"
"null","","fixation","html-keyboard-response","142","630148","0.0-8.0-0.57","5f345fec952faa3654e9975e","condB","","<div class=""vertical-center"" style='width:60%;'><p style='font-weight:bold;'>Does the middle word sound more like the first word (A) or the last word (B)?</p> <br> <div class=""container""> <div id=""a-box""> <p class=""title-text"">A</h3></p> </div> <div id=""x-box""> <p class=""title-text"">X<p> </div> <div id=""b-box""> <p class=""title-text"">B</p></div> <br> <div style='float: left;padding-left:30px;'><p>Press '1' for A</p></div><div style='float: right;padding-right:30px;'><p>Press '0' for B</p> </div> </div></div>","null","","","","","","","","","","","","","",""
"2672","","test","audio-keyboard-response","143","632825","0.0-8.0-1.57","5f345fec952faa3654e9975e","condB","","resources/audio/wordStim/S3_AU_15_bxa_Step-9.wav","49","","","","","AU","resources/audio/wordStim/S3_AU_15_bxa_Step-9.wav","S3","15","bxa","9","MI","1","1","true"
"null","","fixation","html-keyboard-response","144","633828","0.0-8.0-0.58","5f345fec952faa3654e9975e","condB","","<div class=""vertical-center"" style='width:60%;'><p style='font-weight:bold;'>Does the middle word sound more like the first word (A) or the last word (B)?</p> <br> <div class=""container""> <div id=""a-box""> <p class=""title-text"">A</h3></p> </div> <div id=""x-box""> <p class=""title-text"">X<p> </div> <div id=""b-box""> <p class=""title-text"">B</p></div> <br> <div style='float: left;padding-left:30px;'><p>Press '1' for A</p></div><div style='float: right;padding-right:30px;'><p>Press '0' for B</p> </div> </div></div>","null","","","","","","","","","","","","","",""
"2600","","test","audio-keyboard-response","145","636433","0.0-8.0-1.58","5f345fec952faa3654e9975e","condB","","resources/audio/wordStim/S3_AU_15_bxa_Step-7.wav","49","","","","","AU","resources/audio/wordStim/S3_AU_15_bxa_Step-7.wav","S3","15","bxa","7","MI","1","1","true"
"null","","fixation","html-keyboard-response","146","637436","0.0-8.0-0.59","5f345fec952faa3654e9975e","condB","","<div class=""vertical-center"" style='width:60%;'><p style='font-weight:bold;'>Does the middle word sound more like the first word (A) or the last word (B)?</p> <br> <div class=""container""> <div id=""a-box""> <p class=""title-text"">A</h3></p> </div> <div id=""x-box""> <p class=""title-text"">X<p> </div> <div id=""b-box""> <p class=""title-text"">B</p></div> <br> <div style='float: left;padding-left:30px;'><p>Press '1' for A</p></div><div style='float: right;padding-right:30px;'><p>Press '0' for B</p> </div> </div></div>","null","","","","","","","","","","","","","",""
"3229","","test","audio-keyboard-response","147","640674","0.0-8.0-1.59","5f345fec952faa3654e9975e","condB","","resources/audio/wordStim/S3_AI_29_bxa_Step-9.wav","48","","","","","AI","resources/audio/wordStim/S3_AI_29_bxa_Step-9.wav","S3","29","bxa","9","MI","1","0","false"
"null","","fixation","html-keyboard-response","148","641676","0.0-8.0-0.60","5f345fec952faa3654e9975e","condB","","<div class=""vertical-center"" style='width:60%;'><p style='font-weight:bold;'>Does the middle word sound more like the first word (A) or the last word (B)?</p> <br> <div class=""container""> <div id=""a-box""> <p class=""title-text"">A</h3></p> </div> <div id=""x-box""> <p class=""title-text"">X<p> </div> <div id=""b-box""> <p class=""title-text"">B</p></div> <br> <div style='float: left;padding-left:30px;'><p>Press '1' for A</p></div><div style='float: right;padding-right:30px;'><p>Press '0' for B</p> </div> </div></div>","null","","","","","","","","","","","","","",""
"2541","","test","audio-keyboard-response","149","644218","0.0-8.0-1.60","5f345fec952faa3654e9975e","condB","","resources/audio/wordStim/S3_AU_14_axb_Step-4.wav","49","","","","","AU","resources/audio/wordStim/S3_AU_14_axb_Step-4.wav","S3","14","axb","4","MI","0","1","false"
"null","","fixation","html-keyboard-response","150","645220","0.0-8.0-0.61","5f345fec952faa3654e9975e","condB","","<div class=""vertical-center"" style='width:60%;'><p style='font-weight:bold;'>Does the middle word sound more like the first word (A) or the last word (B)?</p> <br> <div class=""container""> <div id=""a-box""> <p class=""title-text"">A</h3></p> </div> <div id=""x-box""> <p class=""title-text"">X<p> </div> <div id=""b-box""> <p class=""title-text"">B</p></div> <br> <div style='float: left;padding-left:30px;'><p>Press '1' for A</p></div><div style='float: right;padding-right:30px;'><p>Press '0' for B</p> </div> </div></div>","null","","","","","","","","","","","","","",""
"2888","","test","audio-keyboard-response","151","648114","0.0-8.0-1.61","5f345fec952faa3654e9975e","condB","","resources/audio/wordStim/S9_AI_27_bxa_Step-5.wav","49","","","","","AI","resources/audio/wordStim/S9_AI_27_bxa_Step-5.wav","S9","27","bxa","5","CN","1","1","true"
"null","","fixation","html-keyboard-response","152","649118","0.0-8.0-0.62","5f345fec952faa3654e9975e","condB","","<div class=""vertical-center"" style='width:60%;'><p style='font-weight:bold;'>Does the middle word sound more like the first word (A) or the last word (B)?</p> <br> <div class=""container""> <div id=""a-box""> <p class=""title-text"">A</h3></p> </div> <div id=""x-box""> <p class=""title-text"">X<p> </div> <div id=""b-box""> <p class=""title-text"">B</p></div> <br> <div style='float: left;padding-left:30px;'><p>Press '1' for A</p></div><div style='float: right;padding-right:30px;'><p>Press '0' for B</p> </div> </div></div>","null","","","","","","","","","","","","","",""
"2651","","test","audio-keyboard-response","153","651771","0.0-8.0-1.62","5f345fec952faa3654e9975e","condB","","resources/audio/wordStim/S3_AU_19_bxa_Step-10.wav","49","","","","","AU","resources/audio/wordStim/S3_AU_19_bxa_Step-10.wav","S3","19","bxa","10","MI","1","1","true"
"null","","fixation","html-keyboard-response","154","652774","0.0-8.0-0.63","5f345fec952faa3654e9975e","condB","","<div class=""vertical-center"" style='width:60%;'><p style='font-weight:bold;'>Does the middle word sound more like the first word (A) or the last word (B)?</p> <br> <div class=""container""> <div id=""a-box""> <p class=""title-text"">A</h3></p> </div> <div id=""x-box""> <p class=""title-text"">X<p> </div> <div id=""b-box""> <p class=""title-text"">B</p></div> <br> <div style='float: left;padding-left:30px;'><p>Press '1' for A</p></div><div style='float: right;padding-right:30px;'><p>Press '0' for B</p> </div> </div></div>","null","","","","","","","","","","","","","",""
"3091","","test","audio-keyboard-response","155","655867","0.0-8.0-1.63","5f345fec952faa3654e9975e","condB","","resources/audio/wordStim/S3_AU_18_axb_Step-8.wav","48","","","","","AU","resources/audio/wordStim/S3_AU_18_axb_Step-8.wav","S3","18","axb","8","MI","0","0","true"
"null","","fixation","html-keyboard-response","156","656871","0.0-8.0-0.64","5f345fec952faa3654e9975e","condB","","<div class=""vertical-center"" style='width:60%;'><p style='font-weight:bold;'>Does the middle word sound more like the first word (A) or the last word (B)?</p> <br> <div class=""container""> <div id=""a-box""> <p class=""title-text"">A</h3></p> </div> <div id=""x-box""> <p class=""title-text"">X<p> </div> <div id=""b-box""> <p class=""title-text"">B</p></div> <br> <div style='float: left;padding-left:30px;'><p>Press '1' for A</p></div><div style='float: right;padding-right:30px;'><p>Press '0' for B</p> </div> </div></div>","null","","","","","","","","","","","","","",""
"2552","","test","audio-keyboard-response","157","659419","0.0-8.0-1.64","5f345fec952faa3654e9975e","condB","","resources/audio/wordStim/S3_AU_19_axb_Step-2.wav","49","","","","","AU","resources/audio/wordStim/S3_AU_19_axb_Step-2.wav","S3","19","axb","2","MI","0","1","false"
"null","","fixation","html-keyboard-response","158","660423","0.0-8.0-0.65","5f345fec952faa3654e9975e","condB","","<div class=""vertical-center"" style='width:60%;'><p style='font-weight:bold;'>Does the middle word sound more like the first word (A) or the last word (B)?</p> <br> <div class=""container""> <div id=""a-box""> <p class=""title-text"">A</h3></p> </div> <div id=""x-box""> <p class=""title-text"">X<p> </div> <div id=""b-box""> <p class=""title-text"">B</p></div> <br> <div style='float: left;padding-left:30px;'><p>Press '1' for A</p></div><div style='float: right;padding-right:30px;'><p>Press '0' for B</p> </div> </div></div>","null","","","","","","","","","","","","","",""
"2800","","test","audio-keyboard-response","159","663220","0.0-8.0-1.65","5f345fec952faa3654e9975e","condB","","resources/audio/wordStim/S9_AU_19_axb_Step-6.wav","49","","","","","AU","resources/audio/wordStim/S9_AU_19_axb_Step-6.wav","S9","19","axb","6","CN","0","1","false"
"null","","fixation","html-keyboard-response","160","664223","0.0-8.0-0.66","5f345fec952faa3654e9975e","condB","","<div class=""vertical-center"" style='width:60%;'><p style='font-weight:bold;'>Does the middle word sound more like the first word (A) or the last word (B)?</p> <br> <div class=""container""> <div id=""a-box""> <p class=""title-text"">A</h3></p> </div> <div id=""x-box""> <p class=""title-text"">X<p> </div> <div id=""b-box""> <p class=""title-text"">B</p></div> <br> <div style='float: left;padding-left:30px;'><p>Press '1' for A</p></div><div style='float: right;padding-right:30px;'><p>Press '0' for B</p> </div> </div></div>","null","","","","","","","","","","","","","",""
"2869","","test","audio-keyboard-response","161","667099","0.0-8.0-1.66","5f345fec952faa3654e9975e","condB","","resources/audio/wordStim/S9_AI_25_bxa_Step-7.wav","49","","","","","AI","resources/audio/wordStim/S9_AI_25_bxa_Step-7.wav","S9","25","bxa","7","CN","1","1","true"
"null","","fixation","html-keyboard-response","162","668103","0.0-8.0-0.67","5f345fec952faa3654e9975e","condB","","<div class=""vertical-center"" style='width:60%;'><p style='font-weight:bold;'>Does the middle word sound more like the first word (A) or the last word (B)?</p> <br> <div class=""container""> <div id=""a-box""> <p class=""title-text"">A</h3></p> </div> <div id=""x-box""> <p class=""title-text"">X<p> </div> <div id=""b-box""> <p class=""title-text"">B</p></div> <br> <div style='float: left;padding-left:30px;'><p>Press '1' for A</p></div><div style='float: right;padding-right:30px;'><p>Press '0' for B</p> </div> </div></div>","null","","","","","","","","","","","","","",""
"3320","","test","audio-keyboard-response","163","671428","0.0-8.0-1.67","5f345fec952faa3654e9975e","condB","","resources/audio/wordStim/S9_AI_22_axb_Step-6.wav","48","","","","","AI","resources/audio/wordStim/S9_AI_22_axb_Step-6.wav","S9","22","axb","6","CN","0","0","true"
"null","","fixation","html-keyboard-response","164","672429","0.0-8.0-0.68","5f345fec952faa3654e9975e","condB","","<div class=""vertical-center"" style='width:60%;'><p style='font-weight:bold;'>Does the middle word sound more like the first word (A) or the last word (B)?</p> <br> <div class=""container""> <div id=""a-box""> <p class=""title-text"">A</h3></p> </div> <div id=""x-box""> <p class=""title-text"">X<p> </div> <div id=""b-box""> <p class=""title-text"">B</p></div> <br> <div style='float: left;padding-left:30px;'><p>Press '1' for A</p></div><div style='float: right;padding-right:30px;'><p>Press '0' for B</p> </div> </div></div>","null","","","","","","","","","","","","","",""
"2811","","test","audio-keyboard-response","165","675245","0.0-8.0-1.68","5f345fec952faa3654e9975e","condB","","resources/audio/wordStim/S9_AI_23_axb_Step-8.wav","49","","","","","AI","resources/audio/wordStim/S9_AI_23_axb_Step-8.wav","S9","23","axb","8","CN","0","1","false"
"null","","fixation","html-keyboard-response","166","676248","0.0-8.0-0.69","5f345fec952faa3654e9975e","condB","","<div class=""vertical-center"" style='width:60%;'><p style='font-weight:bold;'>Does the middle word sound more like the first word (A) or the last word (B)?</p> <br> <div class=""container""> <div id=""a-box""> <p class=""title-text"">A</h3></p> </div> <div id=""x-box""> <p class=""title-text"">X<p> </div> <div id=""b-box""> <p class=""title-text"">B</p></div> <br> <div style='float: left;padding-left:30px;'><p>Press '1' for A</p></div><div style='float: right;padding-right:30px;'><p>Press '0' for B</p> </div> </div></div>","null","","","","","","","","","","","","","",""
"2000","","test","audio-keyboard-response","167","678244","0.0-8.0-1.69","5f345fec952faa3654e9975e","condB","","resources/audio/wordStim/S3_AI_21_bxa_Step-3.wav","48","","","","","AI","resources/audio/wordStim/S3_AI_21_bxa_Step-3.wav","S3","21","bxa","3","MI","1","0","false"
"null","","fixation","html-keyboard-response","168","679247","0.0-8.0-0.70","5f345fec952faa3654e9975e","condB","","<div class=""vertical-center"" style='width:60%;'><p style='font-weight:bold;'>Does the middle word sound more like the first word (A) or the last word (B)?</p> <br> <div class=""container""> <div id=""a-box""> <p class=""title-text"">A</h3></p> </div> <div id=""x-box""> <p class=""title-text"">X<p> </div> <div id=""b-box""> <p class=""title-text"">B</p></div> <br> <div style='float: left;padding-left:30px;'><p>Press '1' for A</p></div><div style='float: right;padding-right:30px;'><p>Press '0' for B</p> </div> </div></div>","null","","","","","","","","","","","","","",""
"3491","","test","audio-keyboard-response","169","682732","0.0-8.0-1.70","5f345fec952faa3654e9975e","condB","","resources/audio/wordStim/S3_AU_16_axb_Step-6.wav","49","","","","","AU","resources/audio/wordStim/S3_AU_16_axb_Step-6.wav","S3","16","axb","6","MI","0","1","false"
"null","","fixation","html-keyboard-response","170","683735","0.0-8.0-0.71","5f345fec952faa3654e9975e","condB","","<div class=""vertical-center"" style='width:60%;'><p style='font-weight:bold;'>Does the middle word sound more like the first word (A) or the last word (B)?</p> <br> <div class=""container""> <div id=""a-box""> <p class=""title-text"">A</h3></p> </div> <div id=""x-box""> <p class=""title-text"">X<p> </div> <div id=""b-box""> <p class=""title-text"">B</p></div> <br> <div style='float: left;padding-left:30px;'><p>Press '1' for A</p></div><div style='float: right;padding-right:30px;'><p>Press '0' for B</p> </div> </div></div>","null","","","","","","","","","","","","","",""
"2931","","test","audio-keyboard-response","171","686662","0.0-8.0-1.71","5f345fec952faa3654e9975e","condB","","resources/audio/wordStim/S3_AI_30_axb_Step-6.wav","48","","","","","AI","resources/audio/wordStim/S3_AI_30_axb_Step-6.wav","S3","30","axb","6","MI","0","0","true"
"null","","fixation","html-keyboard-response","172","687665","0.0-8.0-0.72","5f345fec952faa3654e9975e","condB","","<div class=""vertical-center"" style='width:60%;'><p style='font-weight:bold;'>Does the middle word sound more like the first word (A) or the last word (B)?</p> <br> <div class=""container""> <div id=""a-box""> <p class=""title-text"">A</h3></p> </div> <div id=""x-box""> <p class=""title-text"">X<p> </div> <div id=""b-box""> <p class=""title-text"">B</p></div> <br> <div style='float: left;padding-left:30px;'><p>Press '1' for A</p></div><div style='float: right;padding-right:30px;'><p>Press '0' for B</p> </div> </div></div>","null","","","","","","","","","","","","","",""
"3440","","test","audio-keyboard-response","173","691109","0.0-8.0-1.72","5f345fec952faa3654e9975e","condB","","resources/audio/wordStim/S3_AU_16_axb_Step-8.wav","49","","","","","AU","resources/audio/wordStim/S3_AU_16_axb_Step-8.wav","S3","16","axb","8","MI","0","1","false"
"null","","fixation","html-keyboard-response","174","692111","0.0-8.0-0.73","5f345fec952faa3654e9975e","condB","","<div class=""vertical-center"" style='width:60%;'><p style='font-weight:bold;'>Does the middle word sound more like the first word (A) or the last word (B)?</p> <br> <div class=""container""> <div id=""a-box""> <p class=""title-text"">A</h3></p> </div> <div id=""x-box""> <p class=""title-text"">X<p> </div> <div id=""b-box""> <p class=""title-text"">B</p></div> <br> <div style='float: left;padding-left:30px;'><p>Press '1' for A</p></div><div style='float: right;padding-right:30px;'><p>Press '0' for B</p> </div> </div></div>","null","","","","","","","","","","","","","",""
"2792","","test","audio-keyboard-response","175","694909","0.0-8.0-1.73","5f345fec952faa3654e9975e","condB","","resources/audio/wordStim/S3_AU_20_bxa_Step-7.wav","49","","","","","AU","resources/audio/wordStim/S3_AU_20_bxa_Step-7.wav","S3","20","bxa","7","MI","1","1","true"
"null","","fixation","html-keyboard-response","176","695911","0.0-8.0-0.74","5f345fec952faa3654e9975e","condB","","<div class=""vertical-center"" style='width:60%;'><p style='font-weight:bold;'>Does the middle word sound more like the first word (A) or the last word (B)?</p> <br> <div class=""container""> <div id=""a-box""> <p class=""title-text"">A</h3></p> </div> <div id=""x-box""> <p class=""title-text"">X<p> </div> <div id=""b-box""> <p class=""title-text"">B</p></div> <br> <div style='float: left;padding-left:30px;'><p>Press '1' for A</p></div><div style='float: right;padding-right:30px;'><p>Press '0' for B</p> </div> </div></div>","null","","","","","","","","","","","","","",""
"2720","","test","audio-keyboard-response","177","698638","0.0-8.0-1.74","5f345fec952faa3654e9975e","condB","","resources/audio/wordStim/S9_AI_27_bxa_Step-3.wav","49","","","","","AI","resources/audio/wordStim/S9_AI_27_bxa_Step-3.wav","S9","27","bxa","3","CN","1","1","true"
"null","","fixation","html-keyboard-response","178","699641","0.0-8.0-0.75","5f345fec952faa3654e9975e","condB","","<div class=""vertical-center"" style='width:60%;'><p style='font-weight:bold;'>Does the middle word sound more like the first word (A) or the last word (B)?</p> <br> <div class=""container""> <div id=""a-box""> <p class=""title-text"">A</h3></p> </div> <div id=""x-box""> <p class=""title-text"">X<p> </div> <div id=""b-box""> <p class=""title-text"">B</p></div> <br> <div style='float: left;padding-left:30px;'><p>Press '1' for A</p></div><div style='float: right;padding-right:30px;'><p>Press '0' for B</p> </div> </div></div>","null","","","","","","","","","","","","","",""
"2941","","test","audio-keyboard-response","179","702590","0.0-8.0-1.75","5f345fec952faa3654e9975e","condB","","resources/audio/wordStim/S9_AI_25_bxa_Step-10.wav","49","","","","","AI","resources/audio/wordStim/S9_AI_25_bxa_Step-10.wav","S9","25","bxa","10","CN","1","1","true"
"null","","fixation","html-keyboard-response","180","703593","0.0-8.0-0.76","5f345fec952faa3654e9975e","condB","","<div class=""vertical-center"" style='width:60%;'><p style='font-weight:bold;'>Does the middle word sound more like the first word (A) or the last word (B)?</p> <br> <div class=""container""> <div id=""a-box""> <p class=""title-text"">A</h3></p> </div> <div id=""x-box""> <p class=""title-text"">X<p> </div> <div id=""b-box""> <p class=""title-text"">B</p></div> <br> <div style='float: left;padding-left:30px;'><p>Press '1' for A</p></div><div style='float: right;padding-right:30px;'><p>Press '0' for B</p> </div> </div></div>","null","","","","","","","","","","","","","",""
"2912","","test","audio-keyboard-response","181","706510","0.0-8.0-1.76","5f345fec952faa3654e9975e","condB","","resources/audio/wordStim/S9_AI_23_axb_Step-2.wav","48","","","","","AI","resources/audio/wordStim/S9_AI_23_axb_Step-2.wav","S9","23","axb","2","CN","0","0","true"
"null","","fixation","html-keyboard-response","182","707513","0.0-8.0-0.77","5f345fec952faa3654e9975e","condB","","<div class=""vertical-center"" style='width:60%;'><p style='font-weight:bold;'>Does the middle word sound more like the first word (A) or the last word (B)?</p> <br> <div class=""container""> <div id=""a-box""> <p class=""title-text"">A</h3></p> </div> <div id=""x-box""> <p class=""title-text"">X<p> </div> <div id=""b-box""> <p class=""title-text"">B</p></div> <br> <div style='float: left;padding-left:30px;'><p>Press '1' for A</p></div><div style='float: right;padding-right:30px;'><p>Press '0' for B</p> </div> </div></div>","null","","","","","","","","","","","","","",""
"3480","","test","audio-keyboard-response","183","710999","0.0-8.0-1.77","5f345fec952faa3654e9975e","condB","","resources/audio/wordStim/S3_AU_16_axb_Step-4.wav","49","","","","","AU","resources/audio/wordStim/S3_AU_16_axb_Step-4.wav","S3","16","axb","4","MI","0","1","false"
"null","","fixation","html-keyboard-response","184","712002","0.0-8.0-0.78","5f345fec952faa3654e9975e","condB","","<div class=""vertical-center"" style='width:60%;'><p style='font-weight:bold;'>Does the middle word sound more like the first word (A) or the last word (B)?</p> <br> <div class=""container""> <div id=""a-box""> <p class=""title-text"">A</h3></p> </div> <div id=""x-box""> <p class=""title-text"">X<p> </div> <div id=""b-box""> <p class=""title-text"">B</p></div> <br> <div style='float: left;padding-left:30px;'><p>Press '1' for A</p></div><div style='float: right;padding-right:30px;'><p>Press '0' for B</p> </div> </div></div>","null","","","","","","","","","","","","","",""
"2581","","test","audio-keyboard-response","185","714575","0.0-8.0-1.78","5f345fec952faa3654e9975e","condB","","resources/audio/wordStim/S9_AU_13_axb_Step-8.wav","48","","","","","AU","resources/audio/wordStim/S9_AU_13_axb_Step-8.wav","S9","13","axb","8","CN","0","0","true"
"null","","fixation","html-keyboard-response","186","715577","0.0-8.0-0.79","5f345fec952faa3654e9975e","condB","","<div class=""vertical-center"" style='width:60%;'><p style='font-weight:bold;'>Does the middle word sound more like the first word (A) or the last word (B)?</p> <br> <div class=""container""> <div id=""a-box""> <p class=""title-text"">A</h3></p> </div> <div id=""x-box""> <p class=""title-text"">X<p> </div> <div id=""b-box""> <p class=""title-text"">B</p></div> <br> <div style='float: left;padding-left:30px;'><p>Press '1' for A</p></div><div style='float: right;padding-right:30px;'><p>Press '0' for B</p> </div> </div></div>","null","","","","","","","","","","","","","",""
"2469","","test","audio-keyboard-response","187","718047","0.0-8.0-1.79","5f345fec952faa3654e9975e","condB","","resources/audio/wordStim/S3_AI_25_axb_Step-6.wav","48","","","","","AI","resources/audio/wordStim/S3_AI_25_axb_Step-6.wav","S3","25","axb","6","MI","0","0","true"
"null","","fixation","html-keyboard-response","188","719050","0.0-8.0-0.80","5f345fec952faa3654e9975e","condB","","<div class=""vertical-center"" style='width:60%;'><p style='font-weight:bold;'>Does the middle word sound more like the first word (A) or the last word (B)?</p> <br> <div class=""container""> <div id=""a-box""> <p class=""title-text"">A</h3></p> </div> <div id=""x-box""> <p class=""title-text"">X<p> </div> <div id=""b-box""> <p class=""title-text"">B</p></div> <br> <div style='float: left;padding-left:30px;'><p>Press '1' for A</p></div><div style='float: right;padding-right:30px;'><p>Press '0' for B</p> </div> </div></div>","null","","","","","","","","","","","","","",""
"2691","","test","audio-keyboard-response","189","721736","0.0-8.0-1.80","5f345fec952faa3654e9975e","condB","","resources/audio/wordStim/S9_AU_14_axb_Step-4.wav","49","","","","","AU","resources/audio/wordStim/S9_AU_14_axb_Step-4.wav","S9","14","axb","4","CN","0","1","false"
"107754.6250000014","","break","html-keyboard-response","190","829992","0.0-8.0-2.80-0.80","5f345fec952faa3654e9975e","condB","","<div class=""vertical-center""><p>Feel free to take a break!</p><i>When you're ready to continue, press SPACE to begin the next trial.</i></p></div>","32","","","","","","","","","","","","","",""
"null","","fixation","html-keyboard-response","191","830494","0.0-8.0-0.81","5f345fec952faa3654e9975e","condB","","<div class=""vertical-center"" style='width:60%;'><p style='font-weight:bold;'>Does the middle word sound more like the first word (A) or the last word (B)?</p> <br> <div class=""container""> <div id=""a-box""> <p class=""title-text"">A</h3></p> </div> <div id=""x-box""> <p class=""title-text"">X<p> </div> <div id=""b-box""> <p class=""title-text"">B</p></div> <br> <div style='float: left;padding-left:30px;'><p>Press '1' for A</p></div><div style='float: right;padding-right:30px;'><p>Press '0' for B</p> </div> </div></div>","null","","","","","","","","","","","","","",""
"2640","","test","audio-keyboard-response","192","833191","0.0-8.0-1.81","5f345fec952faa3654e9975e","condB","","resources/audio/wordStim/S9_AU_17_axb_Step-2.wav","49","","","","","AU","resources/audio/wordStim/S9_AU_17_axb_Step-2.wav","S9","17","axb","2","CN","0","1","false"
"null","","fixation","html-keyboard-response","193","834194","0.0-8.0-0.82","5f345fec952faa3654e9975e","condB","","<div class=""vertical-center"" style='width:60%;'><p style='font-weight:bold;'>Does the middle word sound more like the first word (A) or the last word (B)?</p> <br> <div class=""container""> <div id=""a-box""> <p class=""title-text"">A</h3></p> </div> <div id=""x-box""> <p class=""title-text"">X<p> </div> <div id=""b-box""> <p class=""title-text"">B</p></div> <br> <div style='float: left;padding-left:30px;'><p>Press '1' for A</p></div><div style='float: right;padding-right:30px;'><p>Press '0' for B</p> </div> </div></div>","null","","","","","","","","","","","","","",""
"2549","","test","audio-keyboard-response","194","836743","0.0-8.0-1.82","5f345fec952faa3654e9975e","condB","","resources/audio/wordStim/S3_AI_25_bxa_Step-9.wav","49","","","","","AI","resources/audio/wordStim/S3_AI_25_bxa_Step-9.wav","S3","25","bxa","9","MI","1","1","true"
"null","","fixation","html-keyboard-response","195","837747","0.0-8.0-0.83","5f345fec952faa3654e9975e","condB","","<div class=""vertical-center"" style='width:60%;'><p style='font-weight:bold;'>Does the middle word sound more like the first word (A) or the last word (B)?</p> <br> <div class=""container""> <div id=""a-box""> <p class=""title-text"">A</h3></p> </div> <div id=""x-box""> <p class=""title-text"">X<p> </div> <div id=""b-box""> <p class=""title-text"">B</p></div> <br> <div style='float: left;padding-left:30px;'><p>Press '1' for A</p></div><div style='float: right;padding-right:30px;'><p>Press '0' for B</p> </div> </div></div>","null","","","","","","","","","","","","","",""
"3760","","test","audio-keyboard-response","196","841505","0.0-8.0-1.83","5f345fec952faa3654e9975e","condB","","resources/audio/wordStim/S3_AU_16_bxa_Step-9.wav","49","","","","","AU","resources/audio/wordStim/S3_AU_16_bxa_Step-9.wav","S3","16","bxa","9","MI","1","1","true"
"null","","fixation","html-keyboard-response","197","842507","0.0-8.0-0.84","5f345fec952faa3654e9975e","condB","","<div class=""vertical-center"" style='width:60%;'><p style='font-weight:bold;'>Does the middle word sound more like the first word (A) or the last word (B)?</p> <br> <div class=""container""> <div id=""a-box""> <p class=""title-text"">A</h3></p> </div> <div id=""x-box""> <p class=""title-text"">X<p> </div> <div id=""b-box""> <p class=""title-text"">B</p></div> <br> <div style='float: left;padding-left:30px;'><p>Press '1' for A</p></div><div style='float: right;padding-right:30px;'><p>Press '0' for B</p> </div> </div></div>","null","","","","","","","","","","","","","",""
"4131","","test","audio-keyboard-response","198","846632","0.0-8.0-1.84","5f345fec952faa3654e9975e","condB","","resources/audio/wordStim/S9_AI_25_axb_Step-4.wav","49","","","","","AI","resources/audio/wordStim/S9_AI_25_axb_Step-4.wav","S9","25","axb","4","CN","0","1","false"
"null","","fixation","html-keyboard-response","199","847634","0.0-8.0-0.85","5f345fec952faa3654e9975e","condB","","<div class=""vertical-center"" style='width:60%;'><p style='font-weight:bold;'>Does the middle word sound more like the first word (A) or the last word (B)?</p> <br> <div class=""container""> <div id=""a-box""> <p class=""title-text"">A</h3></p> </div> <div id=""x-box""> <p class=""title-text"">X<p> </div> <div id=""b-box""> <p class=""title-text"">B</p></div> <br> <div style='float: left;padding-left:30px;'><p>Press '1' for A</p></div><div style='float: right;padding-right:30px;'><p>Press '0' for B</p> </div> </div></div>","null","","","","","","","","","","","","","",""
"4139","","test","audio-keyboard-response","200","851777","0.0-8.0-1.85","5f345fec952faa3654e9975e","condB","","resources/audio/wordStim/S9_AI_22_bxa_Step-3.wav","48","","","","","AI","resources/audio/wordStim/S9_AI_22_bxa_Step-3.wav","S9","22","bxa","3","CN","1","0","false"
"null","","fixation","html-keyboard-response","201","852780","0.0-8.0-0.86","5f345fec952faa3654e9975e","condB","","<div class=""vertical-center"" style='width:60%;'><p style='font-weight:bold;'>Does the middle word sound more like the first word (A) or the last word (B)?</p> <br> <div class=""container""> <div id=""a-box""> <p class=""title-text"">A</h3></p> </div> <div id=""x-box""> <p class=""title-text"">X<p> </div> <div id=""b-box""> <p class=""title-text"">B</p></div> <br> <div style='float: left;padding-left:30px;'><p>Press '1' for A</p></div><div style='float: right;padding-right:30px;'><p>Press '0' for B</p> </div> </div></div>","null","","","","","","","","","","","","","",""
"3291","","test","audio-keyboard-response","202","856073","0.0-8.0-1.86","5f345fec952faa3654e9975e","condB","","resources/audio/wordStim/S3_AU_18_bxa_Step-9.wav","49","","","","","AU","resources/audio/wordStim/S3_AU_18_bxa_Step-9.wav","S3","18","bxa","9","MI","1","1","true"
"null","","fixation","html-keyboard-response","203","857075","0.0-8.0-0.87","5f345fec952faa3654e9975e","condB","","<div class=""vertical-center"" style='width:60%;'><p style='font-weight:bold;'>Does the middle word sound more like the first word (A) or the last word (B)?</p> <br> <div class=""container""> <div id=""a-box""> <p class=""title-text"">A</h3></p> </div> <div id=""x-box""> <p class=""title-text"">X<p> </div> <div id=""b-box""> <p class=""title-text"">B</p></div> <br> <div style='float: left;padding-left:30px;'><p>Press '1' for A</p></div><div style='float: right;padding-right:30px;'><p>Press '0' for B</p> </div> </div></div>","null","","","","","","","","","","","","","",""
"2691","","test","audio-keyboard-response","204","859769","0.0-8.0-1.87","5f345fec952faa3654e9975e","condB","","resources/audio/wordStim/S9_AU_20_bxa_Step-7.wav","49","","","","","AU","resources/audio/wordStim/S9_AU_20_bxa_Step-7.wav","S9","20","bxa","7","CN","1","1","true"
"null","","fixation","html-keyboard-response","205","860771","0.0-8.0-0.88","5f345fec952faa3654e9975e","condB","","<div class=""vertical-center"" style='width:60%;'><p style='font-weight:bold;'>Does the middle word sound more like the first word (A) or the last word (B)?</p> <br> <div class=""container""> <div id=""a-box""> <p class=""title-text"">A</h3></p> </div> <div id=""x-box""> <p class=""title-text"">X<p> </div> <div id=""b-box""> <p class=""title-text"">B</p></div> <br> <div style='float: left;padding-left:30px;'><p>Press '1' for A</p></div><div style='float: right;padding-right:30px;'><p>Press '0' for B</p> </div> </div></div>","null","","","","","","","","","","","","","",""
"3200","","test","audio-keyboard-response","206","863978","0.0-8.0-1.88","5f345fec952faa3654e9975e","condB","","resources/audio/wordStim/S3_AI_30_bxa_Step-3.wav","49","","","","","AI","resources/audio/wordStim/S3_AI_30_bxa_Step-3.wav","S3","30","bxa","3","MI","1","1","true"
"null","","fixation","html-keyboard-response","207","864981","0.0-8.0-0.89","5f345fec952faa3654e9975e","condB","","<div class=""vertical-center"" style='width:60%;'><p style='font-weight:bold;'>Does the middle word sound more like the first word (A) or the last word (B)?</p> <br> <div class=""container""> <div id=""a-box""> <p class=""title-text"">A</h3></p> </div> <div id=""x-box""> <p class=""title-text"">X<p> </div> <div id=""b-box""> <p class=""title-text"">B</p></div> <br> <div style='float: left;padding-left:30px;'><p>Press '1' for A</p></div><div style='float: right;padding-right:30px;'><p>Press '0' for B</p> </div> </div></div>","null","","","","","","","","","","","","","",""
"3331","","test","audio-keyboard-response","208","868314","0.0-8.0-1.89","5f345fec952faa3654e9975e","condB","","resources/audio/wordStim/S3_AU_17_axb_Step-4.wav","49","","","","","AU","resources/audio/wordStim/S3_AU_17_axb_Step-4.wav","S3","17","axb","4","MI","0","1","false"
"null","","fixation","html-keyboard-response","209","869316","0.0-8.0-0.90","5f345fec952faa3654e9975e","condB","","<div class=""vertical-center"" style='width:60%;'><p style='font-weight:bold;'>Does the middle word sound more like the first word (A) or the last word (B)?</p> <br> <div class=""container""> <div id=""a-box""> <p class=""title-text"">A</h3></p> </div> <div id=""x-box""> <p class=""title-text"">X<p> </div> <div id=""b-box""> <p class=""title-text"">B</p></div> <br> <div style='float: left;padding-left:30px;'><p>Press '1' for A</p></div><div style='float: right;padding-right:30px;'><p>Press '0' for B</p> </div> </div></div>","null","","","","","","","","","","","","","",""
"3011","","test","audio-keyboard-response","210","872330","0.0-8.0-1.90","5f345fec952faa3654e9975e","condB","","resources/audio/wordStim/S9_AI_29_bxa_Step-9.wav","49","","","","","AI","resources/audio/wordStim/S9_AI_29_bxa_Step-9.wav","S9","29","bxa","9","CN","1","1","true"
"null","","fixation","html-keyboard-response","211","873332","0.0-8.0-0.91","5f345fec952faa3654e9975e","condB","","<div class=""vertical-center"" style='width:60%;'><p style='font-weight:bold;'>Does the middle word sound more like the first word (A) or the last word (B)?</p> <br> <div class=""container""> <div id=""a-box""> <p class=""title-text"">A</h3></p> </div> <div id=""x-box""> <p class=""title-text"">X<p> </div> <div id=""b-box""> <p class=""title-text"">B</p></div> <br> <div style='float: left;padding-left:30px;'><p>Press '1' for A</p></div><div style='float: right;padding-right:30px;'><p>Press '0' for B</p> </div> </div></div>","null","","","","","","","","","","","","","",""
"6032","","test","audio-keyboard-response","212","879371","0.0-8.0-1.91","5f345fec952faa3654e9975e","condB","","resources/audio/wordStim/S3_AU_14_axb_Step-2.wav","49","","","","","AU","resources/audio/wordStim/S3_AU_14_axb_Step-2.wav","S3","14","axb","2","MI","0","1","false"
"null","","fixation","html-keyboard-response","213","880373","0.0-8.0-0.92","5f345fec952faa3654e9975e","condB","","<div class=""vertical-center"" style='width:60%;'><p style='font-weight:bold;'>Does the middle word sound more like the first word (A) or the last word (B)?</p> <br> <div class=""container""> <div id=""a-box""> <p class=""title-text"">A</h3></p> </div> <div id=""x-box""> <p class=""title-text"">X<p> </div> <div id=""b-box""> <p class=""title-text"">B</p></div> <br> <div style='float: left;padding-left:30px;'><p>Press '1' for A</p></div><div style='float: right;padding-right:30px;'><p>Press '0' for B</p> </div> </div></div>","null","","","","","","","","","","","","","",""
"2512","","test","audio-keyboard-response","214","882883","0.0-8.0-1.92","5f345fec952faa3654e9975e","condB","","resources/audio/wordStim/S9_AU_20_axb_Step-8.wav","48","","","","","AU","resources/audio/wordStim/S9_AU_20_axb_Step-8.wav","S9","20","axb","8","CN","0","0","true"
