"rt","url","trial_role","trial_type","trial_index","time_elapsed","internal_node_id","participantId","condition","view_history","stimulus","key_press","button_pressed","correct_answer","correct_response","success","vowel","wordStim","speaker","sentNum","order","step","speakerIdentity","raised_answer","key_response","raised_response"
"5232.63000001316","micr.con.consent.html","consent","external-html","0","5273","0.0-0.0","58ac91c38bf22a00015b91b3","condB","","","","","","","","","","","","","","","","",""
"67152.96500001568","","instructions","instructions","1","72427","0.0-1.0","58ac91c38bf22a00015b91b3","condB","[{""page_index"":0,""viewing_time"":13223.614999995334},{""page_index"":1,""viewing_time"":37171.60500001046},{""page_index"":2,""viewing_time"":16757.125000003725}]","","","","","","","","","","","","","","","",""
"null","","fixation","html-keyboard-response","2","72928","0.0-2.0-0.0","58ac91c38bf22a00015b91b3","condB","","<div class=""vertical-center"" style=""font-size:60px;"">+</div>","null","","","","","","","","","","","","","",""
"4548.804999998538","","tonetest","audio-button-response","3","77479","0.0-2.0-1.0","58ac91c38bf22a00015b91b3","condB","","../../src/audio/toneTest_4.wav","","1","1","true","","","","","","","","","","",""
"null","","fixation","html-keyboard-response","4","77980","0.0-2.0-0.1","58ac91c38bf22a00015b91b3","condB","","<div class=""vertical-center"" style=""font-size:60px;"">+</div>","null","","","","","","","","","","","","","",""
"4393.980000022566","","tonetest","audio-button-response","5","82375","0.0-2.0-1.1","58ac91c38bf22a00015b91b3","condB","","../../src/audio/toneTest_4.wav","","1","1","true","","","","","","","","","","",""
"null","","fixation","html-keyboard-response","6","82877","0.0-2.0-0.2","58ac91c38bf22a00015b91b3","condB","","<div class=""vertical-center"" style=""font-size:60px;"">+</div>","null","","","","","","","","","","","","","",""
"4522.779999999329","","tonetest","audio-button-response","7","87401","0.0-2.0-1.2","58ac91c38bf22a00015b91b3","condB","","../../src/audio/toneTest_5.wav","","0","0","true","","","","","","","","","","",""
"null","","fixation","html-keyboard-response","8","87902","0.0-2.0-0.3","58ac91c38bf22a00015b91b3","condB","","<div class=""vertical-center"" style=""font-size:60px;"">+</div>","null","","","","","","","","","","","","","",""
"4593.150000000605","","tonetest","audio-button-response","9","92496","0.0-2.0-1.3","58ac91c38bf22a00015b91b3","condB","","../../src/audio/toneTest_5.wav","","0","0","true","","","","","","","","","","",""
"null","","fixation","html-keyboard-response","10","92997","0.0-2.0-0.4","58ac91c38bf22a00015b91b3","condB","","<div class=""vertical-center"" style=""font-size:60px;"">+</div>","null","","","","","","","","","","","","","",""
"4465.824999992037","","tonetest","audio-button-response","11","97464","0.0-2.0-1.4","58ac91c38bf22a00015b91b3","condB","","../../src/audio/toneTest_3.wav","","2","2","true","","","","","","","","","","",""
"null","","fixation","html-keyboard-response","12","97965","0.0-2.0-0.5","58ac91c38bf22a00015b91b3","condB","","<div class=""vertical-center"" style=""font-size:60px;"">+</div>","null","","","","","","","","","","","","","",""
"4509.059999982128","","tonetest","audio-button-response","13","102475","0.0-2.0-1.5","58ac91c38bf22a00015b91b3","condB","","../../src/audio/toneTest_2.wav","","1","1","true","","","","","","","","","","",""
"8462.39999998943","","instructions","html-keyboard-response","14","110939","0.0-3.0","58ac91c38bf22a00015b91b3","condB","","<div class=""vertical-center""><p><b>Your score was 6/6.</b></p><p>If you scored below 6, please ensure that you are wearing properly functioning headphones and in a quiet location free of distractions.</p><p><i>To continue to the main experiment, press SPACE.</i></p></div>","32","","","","","","","","","","","","","",""
"","","","fullscreen","15","118584","0.0-4.0","58ac91c38bf22a00015b91b3","condB","","","","","","","true","","","","","","","","","",""
"351681.78000001353","","instructions","instructions","16","470267","0.0-5.0","58ac91c38bf22a00015b91b3","condB","[{""page_index"":0,""viewing_time"":351681.5399999905}]","","","","","","","","","","","","","","","",""
"null","","fixation","html-keyboard-response","17","470769","0.0-6.0-0.0","58ac91c38bf22a00015b91b3","condB","","<div class=""vertical-center"" style='width:60%;'><p style='font-weight:bold;'>Does the middle word sound more like the first word (A) or the last word (B)?</p> <br> <div class=""container""> <div id=""a-box""> <p class=""title-text"">A</h3></p> </div> <div id=""x-box""> <p class=""title-text"">X<p> </div> <div id=""b-box""> <p class=""title-text"">B</p></div> <br> <div style='float: left;padding-left:30px;'><p>Press '1' for A</p></div><div style='float: right;padding-right:30px;'><p>Press '0' for B</p> </div> </div></div>","null","","","","","","","","","","","","","",""
"4211","","practice","audio-keyboard-response","18","474997","0.0-6.0-1.0","58ac91c38bf22a00015b91b3","condB","","resources/audio/practiceStim/S1_AI_21_bxa_Step-6.wav","49","","","","","","","","","","","","","",""
"null","","fixation","html-keyboard-response","19","475998","0.0-6.0-0.1","58ac91c38bf22a00015b91b3","condB","","<div class=""vertical-center"" style='width:60%;'><p style='font-weight:bold;'>Does the middle word sound more like the first word (A) or the last word (B)?</p> <br> <div class=""container""> <div id=""a-box""> <p class=""title-text"">A</h3></p> </div> <div id=""x-box""> <p class=""title-text"">X<p> </div> <div id=""b-box""> <p class=""title-text"">B</p></div> <br> <div style='float: left;padding-left:30px;'><p>Press '1' for A</p></div><div style='float: right;padding-right:30px;'><p>Press '0' for B</p> </div> </div></div>","null","","","","","","","","","","","","","",""
"3219","","practice","audio-keyboard-response","20","479221","0.0-6.0-1.1","58ac91c38bf22a00015b91b3","condB","","resources/audio/practiceStim/S1_AI_21_axb_Step-6.wav","49","","","","","","","","","","","","","",""
"null","","fixation","html-keyboard-response","21","480225","0.0-6.0-0.2","58ac91c38bf22a00015b91b3","condB","","<div class=""vertical-center"" style='width:60%;'><p style='font-weight:bold;'>Does the middle word sound more like the first word (A) or the last word (B)?</p> <br> <div class=""container""> <div id=""a-box""> <p class=""title-text"">A</h3></p> </div> <div id=""x-box""> <p class=""title-text"">X<p> </div> <div id=""b-box""> <p class=""title-text"">B</p></div> <br> <div style='float: left;padding-left:30px;'><p>Press '1' for A</p></div><div style='float: right;padding-right:30px;'><p>Press '0' for B</p> </div> </div></div>","null","","","","","","","","","","","","","",""
"3059","","practice","audio-keyboard-response","22","483291","0.0-6.0-1.2","58ac91c38bf22a00015b91b3","condB","","resources/audio/practiceStim/S1_AU_14_bxa_Step-6.wav","49","","","","","","","","","","","","","",""
"null","","fixation","html-keyboard-response","23","484294","0.0-6.0-0.3","58ac91c38bf22a00015b91b3","condB","","<div class=""vertical-center"" style='width:60%;'><p style='font-weight:bold;'>Does the middle word sound more like the first word (A) or the last word (B)?</p> <br> <div class=""container""> <div id=""a-box""> <p class=""title-text"">A</h3></p> </div> <div id=""x-box""> <p class=""title-text"">X<p> </div> <div id=""b-box""> <p class=""title-text"">B</p></div> <br> <div style='float: left;padding-left:30px;'><p>Press '1' for A</p></div><div style='float: right;padding-right:30px;'><p>Press '0' for B</p> </div> </div></div>","null","","","","","","","","","","","","","",""
"3640","","practice","audio-keyboard-response","24","487937","0.0-6.0-1.3","58ac91c38bf22a00015b91b3","condB","","resources/audio/practiceStim/S1_AU_14_axb_Step-6.wav","48","","","","","","","","","","","","","",""
"7092.375000007451","","instructions","instructions","25","495530","0.0-7.0","58ac91c38bf22a00015b91b3","condB","[{""page_index"":0,""viewing_time"":7092.260000004899}]","","","","","","","","","","","","","","","",""
"null","","fixation","html-keyboard-response","26","496032","0.0-8.0-0.0","58ac91c38bf22a00015b91b3","condB","","<div class=""vertical-center"" style='width:60%;'><p style='font-weight:bold;'>Does the middle word sound more like the first word (A) or the last word (B)?</p> <br> <div class=""container""> <div id=""a-box""> <p class=""title-text"">A</h3></p> </div> <div id=""x-box""> <p class=""title-text"">X<p> </div> <div id=""b-box""> <p class=""title-text"">B</p></div> <br> <div style='float: left;padding-left:30px;'><p>Press '1' for A</p></div><div style='float: right;padding-right:30px;'><p>Press '0' for B</p> </div> </div></div>","null","","","","","","","","","","","","","",""
"3651","","test","audio-keyboard-response","27","499675","0.0-8.0-1.0","58ac91c38bf22a00015b91b3","condB","","resources/audio/wordStim/S9_AI_29_bxa_Step-3.wav","48","","","","","AI","resources/audio/wordStim/S9_AI_29_bxa_Step-3.wav","S9","29","bxa","3","CN","1","0","false"
"null","","fixation","html-keyboard-response","28","500677","0.0-8.0-0.1","58ac91c38bf22a00015b91b3","condB","","<div class=""vertical-center"" style='width:60%;'><p style='font-weight:bold;'>Does the middle word sound more like the first word (A) or the last word (B)?</p> <br> <div class=""container""> <div id=""a-box""> <p class=""title-text"">A</h3></p> </div> <div id=""x-box""> <p class=""title-text"">X<p> </div> <div id=""b-box""> <p class=""title-text"">B</p></div> <br> <div style='float: left;padding-left:30px;'><p>Press '1' for A</p></div><div style='float: right;padding-right:30px;'><p>Press '0' for B</p> </div> </div></div>","null","","","","","","","","","","","","","",""
"2869","","test","audio-keyboard-response","29","503544","0.0-8.0-1.1","58ac91c38bf22a00015b91b3","condB","","resources/audio/wordStim/S9_AU_16_axb_Step-2.wav","49","","","","","AU","resources/audio/wordStim/S9_AU_16_axb_Step-2.wav","S9","16","axb","2","CN","0","1","false"
"null","","fixation","html-keyboard-response","30","504547","0.0-8.0-0.2","58ac91c38bf22a00015b91b3","condB","","<div class=""vertical-center"" style='width:60%;'><p style='font-weight:bold;'>Does the middle word sound more like the first word (A) or the last word (B)?</p> <br> <div class=""container""> <div id=""a-box""> <p class=""title-text"">A</h3></p> </div> <div id=""x-box""> <p class=""title-text"">X<p> </div> <div id=""b-box""> <p class=""title-text"">B</p></div> <br> <div style='float: left;padding-left:30px;'><p>Press '1' for A</p></div><div style='float: right;padding-right:30px;'><p>Press '0' for B</p> </div> </div></div>","null","","","","","","","","","","","","","",""
"3259","","test","audio-keyboard-response","31","507804","0.0-8.0-1.2","58ac91c38bf22a00015b91b3","condB","","resources/audio/wordStim/S9_AU_11_axb_Step-6.wav","49","","","","","AU","resources/audio/wordStim/S9_AU_11_axb_Step-6.wav","S9","11","axb","6","CN","0","1","false"
"null","","fixation","html-keyboard-response","32","508814","0.0-8.0-0.3","58ac91c38bf22a00015b91b3","condB","","<div class=""vertical-center"" style='width:60%;'><p style='font-weight:bold;'>Does the middle word sound more like the first word (A) or the last word (B)?</p> <br> <div class=""container""> <div id=""a-box""> <p class=""title-text"">A</h3></p> </div> <div id=""x-box""> <p class=""title-text"">X<p> </div> <div id=""b-box""> <p class=""title-text"">B</p></div> <br> <div style='float: left;padding-left:30px;'><p>Press '1' for A</p></div><div style='float: right;padding-right:30px;'><p>Press '0' for B</p> </div> </div></div>","null","","","","","","","","","","","","","",""
"3240","","test","audio-keyboard-response","33","512059","0.0-8.0-1.3","58ac91c38bf22a00015b91b3","condB","","resources/audio/wordStim/S9_AI_27_axb_Step-6.wav","48","","","","","AI","resources/audio/wordStim/S9_AI_27_axb_Step-6.wav","S9","27","axb","6","CN","0","0","true"
"null","","fixation","html-keyboard-response","34","513061","0.0-8.0-0.4","58ac91c38bf22a00015b91b3","condB","","<div class=""vertical-center"" style='width:60%;'><p style='font-weight:bold;'>Does the middle word sound more like the first word (A) or the last word (B)?</p> <br> <div class=""container""> <div id=""a-box""> <p class=""title-text"">A</h3></p> </div> <div id=""x-box""> <p class=""title-text"">X<p> </div> <div id=""b-box""> <p class=""title-text"">B</p></div> <br> <div style='float: left;padding-left:30px;'><p>Press '1' for A</p></div><div style='float: right;padding-right:30px;'><p>Press '0' for B</p> </div> </div></div>","null","","","","","","","","","","","","","",""
"2629","","test","audio-keyboard-response","35","515693","0.0-8.0-1.4","58ac91c38bf22a00015b91b3","condB","","resources/audio/wordStim/S3_AI_25_bxa_Step-7.wav","48","","","","","AI","resources/audio/wordStim/S3_AI_25_bxa_Step-7.wav","S3","25","bxa","7","MI","1","0","false"
"null","","fixation","html-keyboard-response","36","516695","0.0-8.0-0.5","58ac91c38bf22a00015b91b3","condB","","<div class=""vertical-center"" style='width:60%;'><p style='font-weight:bold;'>Does the middle word sound more like the first word (A) or the last word (B)?</p> <br> <div class=""container""> <div id=""a-box""> <p class=""title-text"">A</h3></p> </div> <div id=""x-box""> <p class=""title-text"">X<p> </div> <div id=""b-box""> <p class=""title-text"">B</p></div> <br> <div style='float: left;padding-left:30px;'><p>Press '1' for A</p></div><div style='float: right;padding-right:30px;'><p>Press '0' for B</p> </div> </div></div>","null","","","","","","","","","","","","","",""
"3320","","test","audio-keyboard-response","37","520023","0.0-8.0-1.5","58ac91c38bf22a00015b91b3","condB","","resources/audio/wordStim/S3_AU_11_bxa_Step-3.wav","49","","","","","AU","resources/audio/wordStim/S3_AU_11_bxa_Step-3.wav","S3","11","bxa","3","MI","1","1","true"
"null","","fixation","html-keyboard-response","38","521026","0.0-8.0-0.6","58ac91c38bf22a00015b91b3","condB","","<div class=""vertical-center"" style='width:60%;'><p style='font-weight:bold;'>Does the middle word sound more like the first word (A) or the last word (B)?</p> <br> <div class=""container""> <div id=""a-box""> <p class=""title-text"">A</h3></p> </div> <div id=""x-box""> <p class=""title-text"">X<p> </div> <div id=""b-box""> <p class=""title-text"">B</p></div> <br> <div style='float: left;padding-left:30px;'><p>Press '1' for A</p></div><div style='float: right;padding-right:30px;'><p>Press '0' for B</p> </div> </div></div>","null","","","","","","","","","","","","","",""
"3149","","test","audio-keyboard-response","39","524178","0.0-8.0-1.6","58ac91c38bf22a00015b91b3","condB","","resources/audio/wordStim/S9_AI_23_axb_Step-6.wav","49","","","","","AI","resources/audio/wordStim/S9_AI_23_axb_Step-6.wav","S9","23","axb","6","CN","0","1","false"
"null","","fixation","html-keyboard-response","40","525181","0.0-8.0-0.7","58ac91c38bf22a00015b91b3","condB","","<div class=""vertical-center"" style='width:60%;'><p style='font-weight:bold;'>Does the middle word sound more like the first word (A) or the last word (B)?</p> <br> <div class=""container""> <div id=""a-box""> <p class=""title-text"">A</h3></p> </div> <div id=""x-box""> <p class=""title-text"">X<p> </div> <div id=""b-box""> <p class=""title-text"">B</p></div> <br> <div style='float: left;padding-left:30px;'><p>Press '1' for A</p></div><div style='float: right;padding-right:30px;'><p>Press '0' for B</p> </div> </div></div>","null","","","","","","","","","","","","","",""
"2971","","test","audio-keyboard-response","41","528152","0.0-8.0-1.7","58ac91c38bf22a00015b91b3","condB","","resources/audio/wordStim/S9_AU_14_axb_Step-4.wav","48","","","","","AU","resources/audio/wordStim/S9_AU_14_axb_Step-4.wav","S9","14","axb","4","CN","0","0","true"
"null","","fixation","html-keyboard-response","42","529154","0.0-8.0-0.8","58ac91c38bf22a00015b91b3","condB","","<div class=""vertical-center"" style='width:60%;'><p style='font-weight:bold;'>Does the middle word sound more like the first word (A) or the last word (B)?</p> <br> <div class=""container""> <div id=""a-box""> <p class=""title-text"">A</h3></p> </div> <div id=""x-box""> <p class=""title-text"">X<p> </div> <div id=""b-box""> <p class=""title-text"">B</p></div> <br> <div style='float: left;padding-left:30px;'><p>Press '1' for A</p></div><div style='float: right;padding-right:30px;'><p>Press '0' for B</p> </div> </div></div>","null","","","","","","","","","","","","","",""
"3008","","test","audio-keyboard-response","43","532172","0.0-8.0-1.8","58ac91c38bf22a00015b91b3","condB","","resources/audio/wordStim/S9_AU_20_axb_Step-2.wav","49","","","","","AU","resources/audio/wordStim/S9_AU_20_axb_Step-2.wav","S9","20","axb","2","CN","0","1","false"
"null","","fixation","html-keyboard-response","44","533174","0.0-8.0-0.9","58ac91c38bf22a00015b91b3","condB","","<div class=""vertical-center"" style='width:60%;'><p style='font-weight:bold;'>Does the middle word sound more like the first word (A) or the last word (B)?</p> <br> <div class=""container""> <div id=""a-box""> <p class=""title-text"">A</h3></p> </div> <div id=""x-box""> <p class=""title-text"">X<p> </div> <div id=""b-box""> <p class=""title-text"">B</p></div> <br> <div style='float: left;padding-left:30px;'><p>Press '1' for A</p></div><div style='float: right;padding-right:30px;'><p>Press '0' for B</p> </div> </div></div>","null","","","","","","","","","","","","","",""
"2581","","test","audio-keyboard-response","45","535755","0.0-8.0-1.9","58ac91c38bf22a00015b91b3","condB","","resources/audio/wordStim/S3_AI_21_axb_Step-2.wav","49","","","","","AI","resources/audio/wordStim/S3_AI_21_axb_Step-2.wav","S3","21","axb","2","MI","0","1","false"
"null","","fixation","html-keyboard-response","46","536758","0.0-8.0-0.10","58ac91c38bf22a00015b91b3","condB","","<div class=""vertical-center"" style='width:60%;'><p style='font-weight:bold;'>Does the middle word sound more like the first word (A) or the last word (B)?</p> <br> <div class=""container""> <div id=""a-box""> <p class=""title-text"">A</h3></p> </div> <div id=""x-box""> <p class=""title-text"">X<p> </div> <div id=""b-box""> <p class=""title-text"">B</p></div> <br> <div style='float: left;padding-left:30px;'><p>Press '1' for A</p></div><div style='float: right;padding-right:30px;'><p>Press '0' for B</p> </div> </div></div>","null","","","","","","","","","","","","","",""
"3840","","test","audio-keyboard-response","47","540602","0.0-8.0-1.10","58ac91c38bf22a00015b91b3","condB","","resources/audio/wordStim/S3_AU_17_bxa_Step-5.wav","49","","","","","AU","resources/audio/wordStim/S3_AU_17_bxa_Step-5.wav","S3","17","bxa","5","MI","1","1","true"
"null","","fixation","html-keyboard-response","48","541604","0.0-8.0-0.11","58ac91c38bf22a00015b91b3","condB","","<div class=""vertical-center"" style='width:60%;'><p style='font-weight:bold;'>Does the middle word sound more like the first word (A) or the last word (B)?</p> <br> <div class=""container""> <div id=""a-box""> <p class=""title-text"">A</h3></p> </div> <div id=""x-box""> <p class=""title-text"">X<p> </div> <div id=""b-box""> <p class=""title-text"">B</p></div> <br> <div style='float: left;padding-left:30px;'><p>Press '1' for A</p></div><div style='float: right;padding-right:30px;'><p>Press '0' for B</p> </div> </div></div>","null","","","","","","","","","","","","","",""
"3811","","test","audio-keyboard-response","49","545423","0.0-8.0-1.11","58ac91c38bf22a00015b91b3","condB","","resources/audio/wordStim/S3_AU_20_bxa_Step-5.wav","48","","","","","AU","resources/audio/wordStim/S3_AU_20_bxa_Step-5.wav","S3","20","bxa","5","MI","1","0","false"
"null","","fixation","html-keyboard-response","50","546426","0.0-8.0-0.12","58ac91c38bf22a00015b91b3","condB","","<div class=""vertical-center"" style='width:60%;'><p style='font-weight:bold;'>Does the middle word sound more like the first word (A) or the last word (B)?</p> <br> <div class=""container""> <div id=""a-box""> <p class=""title-text"">A</h3></p> </div> <div id=""x-box""> <p class=""title-text"">X<p> </div> <div id=""b-box""> <p class=""title-text"">B</p></div> <br> <div style='float: left;padding-left:30px;'><p>Press '1' for A</p></div><div style='float: right;padding-right:30px;'><p>Press '0' for B</p> </div> </div></div>","null","","","","","","","","","","","","","",""
"2931","","test","audio-keyboard-response","51","549363","0.0-8.0-1.12","58ac91c38bf22a00015b91b3","condB","","resources/audio/wordStim/S9_AU_14_axb_Step-8.wav","48","","","","","AU","resources/audio/wordStim/S9_AU_14_axb_Step-8.wav","S9","14","axb","8","CN","0","0","true"
"null","","fixation","html-keyboard-response","52","550368","0.0-8.0-0.13","58ac91c38bf22a00015b91b3","condB","","<div class=""vertical-center"" style='width:60%;'><p style='font-weight:bold;'>Does the middle word sound more like the first word (A) or the last word (B)?</p> <br> <div class=""container""> <div id=""a-box""> <p class=""title-text"">A</h3></p> </div> <div id=""x-box""> <p class=""title-text"">X<p> </div> <div id=""b-box""> <p class=""title-text"">B</p></div> <br> <div style='float: left;padding-left:30px;'><p>Press '1' for A</p></div><div style='float: right;padding-right:30px;'><p>Press '0' for B</p> </div> </div></div>","null","","","","","","","","","","","","","",""
"3181","","test","audio-keyboard-response","53","553553","0.0-8.0-1.13","58ac91c38bf22a00015b91b3","condB","","resources/audio/wordStim/S3_AI_28_bxa_Step-7.wav","48","","","","","AI","resources/audio/wordStim/S3_AI_28_bxa_Step-7.wav","S3","28","bxa","7","MI","1","0","false"
"null","","fixation","html-keyboard-response","54","554555","0.0-8.0-0.14","58ac91c38bf22a00015b91b3","condB","","<div class=""vertical-center"" style='width:60%;'><p style='font-weight:bold;'>Does the middle word sound more like the first word (A) or the last word (B)?</p> <br> <div class=""container""> <div id=""a-box""> <p class=""title-text"">A</h3></p> </div> <div id=""x-box""> <p class=""title-text"">X<p> </div> <div id=""b-box""> <p class=""title-text"">B</p></div> <br> <div style='float: left;padding-left:30px;'><p>Press '1' for A</p></div><div style='float: right;padding-right:30px;'><p>Press '0' for B</p> </div> </div></div>","null","","","","","","","","","","","","","",""
"3669","","test","audio-keyboard-response","55","558229","0.0-8.0-1.14","58ac91c38bf22a00015b91b3","condB","","resources/audio/wordStim/S3_AU_16_axb_Step-2.wav","49","","","","","AU","resources/audio/wordStim/S3_AU_16_axb_Step-2.wav","S3","16","axb","2","MI","0","1","false"
"null","","fixation","html-keyboard-response","56","559231","0.0-8.0-0.15","58ac91c38bf22a00015b91b3","condB","","<div class=""vertical-center"" style='width:60%;'><p style='font-weight:bold;'>Does the middle word sound more like the first word (A) or the last word (B)?</p> <br> <div class=""container""> <div id=""a-box""> <p class=""title-text"">A</h3></p> </div> <div id=""x-box""> <p class=""title-text"">X<p> </div> <div id=""b-box""> <p class=""title-text"">B</p></div> <br> <div style='float: left;padding-left:30px;'><p>Press '1' for A</p></div><div style='float: right;padding-right:30px;'><p>Press '0' for B</p> </div> </div></div>","null","","","","","","","","","","","","","",""
"3491","","test","audio-keyboard-response","57","562719","0.0-8.0-1.15","58ac91c38bf22a00015b91b3","condB","","resources/audio/wordStim/S3_AU_18_axb_Step-2.wav","49","","","","","AU","resources/audio/wordStim/S3_AU_18_axb_Step-2.wav","S3","18","axb","2","MI","0","1","false"
"null","","fixation","html-keyboard-response","58","563721","0.0-8.0-0.16","58ac91c38bf22a00015b91b3","condB","","<div class=""vertical-center"" style='width:60%;'><p style='font-weight:bold;'>Does the middle word sound more like the first word (A) or the last word (B)?</p> <br> <div class=""container""> <div id=""a-box""> <p class=""title-text"">A</h3></p> </div> <div id=""x-box""> <p class=""title-text"">X<p> </div> <div id=""b-box""> <p class=""title-text"">B</p></div> <br> <div style='float: left;padding-left:30px;'><p>Press '1' for A</p></div><div style='float: right;padding-right:30px;'><p>Press '0' for B</p> </div> </div></div>","null","","","","","","","","","","","","","",""
"3088","","test","audio-keyboard-response","59","566809","0.0-8.0-1.16","58ac91c38bf22a00015b91b3","condB","","resources/audio/wordStim/S3_AU_20_bxa_Step-3.wav","48","","","","","AU","resources/audio/wordStim/S3_AU_20_bxa_Step-3.wav","S3","20","bxa","3","MI","1","0","false"
"null","","fixation","html-keyboard-response","60","567811","0.0-8.0-0.17","58ac91c38bf22a00015b91b3","condB","","<div class=""vertical-center"" style='width:60%;'><p style='font-weight:bold;'>Does the middle word sound more like the first word (A) or the last word (B)?</p> <br> <div class=""container""> <div id=""a-box""> <p class=""title-text"">A</h3></p> </div> <div id=""x-box""> <p class=""title-text"">X<p> </div> <div id=""b-box""> <p class=""title-text"">B</p></div> <br> <div style='float: left;padding-left:30px;'><p>Press '1' for A</p></div><div style='float: right;padding-right:30px;'><p>Press '0' for B</p> </div> </div></div>","null","","","","","","","","","","","","","",""
"3611","","test","audio-keyboard-response","61","571415","0.0-8.0-1.17","58ac91c38bf22a00015b91b3","condB","","resources/audio/wordStim/S3_AU_17_bxa_Step-3.wav","48","","","","","AU","resources/audio/wordStim/S3_AU_17_bxa_Step-3.wav","S3","17","bxa","3","MI","1","0","false"
"null","","fixation","html-keyboard-response","62","572418","0.0-8.0-0.18","58ac91c38bf22a00015b91b3","condB","","<div class=""vertical-center"" style='width:60%;'><p style='font-weight:bold;'>Does the middle word sound more like the first word (A) or the last word (B)?</p> <br> <div class=""container""> <div id=""a-box""> <p class=""title-text"">A</h3></p> </div> <div id=""x-box""> <p class=""title-text"">X<p> </div> <div id=""b-box""> <p class=""title-text"">B</p></div> <br> <div style='float: left;padding-left:30px;'><p>Press '1' for A</p></div><div style='float: right;padding-right:30px;'><p>Press '0' for B</p> </div> </div></div>","null","","","","","","","","","","","","","",""
"2731","","test","audio-keyboard-response","63","575154","0.0-8.0-1.18","58ac91c38bf22a00015b91b3","condB","","resources/audio/wordStim/S3_AI_21_bxa_Step-7.wav","49","","","","","AI","resources/audio/wordStim/S3_AI_21_bxa_Step-7.wav","S3","21","bxa","7","MI","1","1","true"
"null","","fixation","html-keyboard-response","64","576156","0.0-8.0-0.19","58ac91c38bf22a00015b91b3","condB","","<div class=""vertical-center"" style='width:60%;'><p style='font-weight:bold;'>Does the middle word sound more like the first word (A) or the last word (B)?</p> <br> <div class=""container""> <div id=""a-box""> <p class=""title-text"">A</h3></p> </div> <div id=""x-box""> <p class=""title-text"">X<p> </div> <div id=""b-box""> <p class=""title-text"">B</p></div> <br> <div style='float: left;padding-left:30px;'><p>Press '1' for A</p></div><div style='float: right;padding-right:30px;'><p>Press '0' for B</p> </div> </div></div>","null","","","","","","","","","","","","","",""
"3309","","test","audio-keyboard-response","65","579464","0.0-8.0-1.19","58ac91c38bf22a00015b91b3","condB","","resources/audio/wordStim/S3_AI_29_axb_Step-4.wav","49","","","","","AI","resources/audio/wordStim/S3_AI_29_axb_Step-4.wav","S3","29","axb","4","MI","0","1","false"
"null","","fixation","html-keyboard-response","66","580465","0.0-8.0-0.20","58ac91c38bf22a00015b91b3","condB","","<div class=""vertical-center"" style='width:60%;'><p style='font-weight:bold;'>Does the middle word sound more like the first word (A) or the last word (B)?</p> <br> <div class=""container""> <div id=""a-box""> <p class=""title-text"">A</h3></p> </div> <div id=""x-box""> <p class=""title-text"">X<p> </div> <div id=""b-box""> <p class=""title-text"">B</p></div> <br> <div style='float: left;padding-left:30px;'><p>Press '1' for A</p></div><div style='float: right;padding-right:30px;'><p>Press '0' for B</p> </div> </div></div>","null","","","","","","","","","","","","","",""
"3229","","test","audio-keyboard-response","67","583704","0.0-8.0-1.20","58ac91c38bf22a00015b91b3","condB","","resources/audio/wordStim/S3_AU_11_axb_Step-6.wav","49","","","","","AU","resources/audio/wordStim/S3_AU_11_axb_Step-6.wav","S3","11","axb","6","MI","0","1","false"
"null","","fixation","html-keyboard-response","68","584706","0.0-8.0-0.21","58ac91c38bf22a00015b91b3","condB","","<div class=""vertical-center"" style='width:60%;'><p style='font-weight:bold;'>Does the middle word sound more like the first word (A) or the last word (B)?</p> <br> <div class=""container""> <div id=""a-box""> <p class=""title-text"">A</h3></p> </div> <div id=""x-box""> <p class=""title-text"">X<p> </div> <div id=""b-box""> <p class=""title-text"">B</p></div> <br> <div style='float: left;padding-left:30px;'><p>Press '1' for A</p></div><div style='float: right;padding-right:30px;'><p>Press '0' for B</p> </div> </div></div>","null","","","","","","","","","","","","","",""
"3019","","test","audio-keyboard-response","69","587729","0.0-8.0-1.21","58ac91c38bf22a00015b91b3","condB","","resources/audio/wordStim/S9_AU_19_axb_Step-6.wav","49","","","","","AU","resources/audio/wordStim/S9_AU_19_axb_Step-6.wav","S9","19","axb","6","CN","0","1","false"
"null","","fixation","html-keyboard-response","70","588731","0.0-8.0-0.22","58ac91c38bf22a00015b91b3","condB","","<div class=""vertical-center"" style='width:60%;'><p style='font-weight:bold;'>Does the middle word sound more like the first word (A) or the last word (B)?</p> <br> <div class=""container""> <div id=""a-box""> <p class=""title-text"">A</h3></p> </div> <div id=""x-box""> <p class=""title-text"">X<p> </div> <div id=""b-box""> <p class=""title-text"">B</p></div> <br> <div style='float: left;padding-left:30px;'><p>Press '1' for A</p></div><div style='float: right;padding-right:30px;'><p>Press '0' for B</p> </div> </div></div>","null","","","","","","","","","","","","","",""
"5400","","test","audio-keyboard-response","71","594133","0.0-8.0-1.22","58ac91c38bf22a00015b91b3","condB","","resources/audio/wordStim/S9_AI_25_axb_Step-6.wav","49","","","","","AI","resources/audio/wordStim/S9_AI_25_axb_Step-6.wav","S9","25","axb","6","CN","0","1","false"
"null","","fixation","html-keyboard-response","72","595135","0.0-8.0-0.23","58ac91c38bf22a00015b91b3","condB","","<div class=""vertical-center"" style='width:60%;'><p style='font-weight:bold;'>Does the middle word sound more like the first word (A) or the last word (B)?</p> <br> <div class=""container""> <div id=""a-box""> <p class=""title-text"">A</h3></p> </div> <div id=""x-box""> <p class=""title-text"">X<p> </div> <div id=""b-box""> <p class=""title-text"">B</p></div> <br> <div style='float: left;padding-left:30px;'><p>Press '1' for A</p></div><div style='float: right;padding-right:30px;'><p>Press '0' for B</p> </div> </div></div>","null","","","","","","","","","","","","","",""
"3069","","test","audio-keyboard-response","73","598208","0.0-8.0-1.23","58ac91c38bf22a00015b91b3","condB","","resources/audio/wordStim/S9_AI_24_bxa_Step-5.wav","49","","","","","AI","resources/audio/wordStim/S9_AI_24_bxa_Step-5.wav","S9","24","bxa","5","CN","1","1","true"
"null","","fixation","html-keyboard-response","74","599210","0.0-8.0-0.24","58ac91c38bf22a00015b91b3","condB","","<div class=""vertical-center"" style='width:60%;'><p style='font-weight:bold;'>Does the middle word sound more like the first word (A) or the last word (B)?</p> <br> <div class=""container""> <div id=""a-box""> <p class=""title-text"">A</h3></p> </div> <div id=""x-box""> <p class=""title-text"">X<p> </div> <div id=""b-box""> <p class=""title-text"">B</p></div> <br> <div style='float: left;padding-left:30px;'><p>Press '1' for A</p></div><div style='float: right;padding-right:30px;'><p>Press '0' for B</p> </div> </div></div>","null","","","","","","","","","","","","","",""
"3101","","test","audio-keyboard-response","75","602308","0.0-8.0-1.24","58ac91c38bf22a00015b91b3","condB","","resources/audio/wordStim/S9_AU_11_bxa_Step-10.wav","48","","","","","AU","resources/audio/wordStim/S9_AU_11_bxa_Step-10.wav","S9","11","bxa","10","CN","1","0","false"
"null","","fixation","html-keyboard-response","76","603310","0.0-8.0-0.25","58ac91c38bf22a00015b91b3","condB","","<div class=""vertical-center"" style='width:60%;'><p style='font-weight:bold;'>Does the middle word sound more like the first word (A) or the last word (B)?</p> <br> <div class=""container""> <div id=""a-box""> <p class=""title-text"">A</h3></p> </div> <div id=""x-box""> <p class=""title-text"">X<p> </div> <div id=""b-box""> <p class=""title-text"">B</p></div> <br> <div style='float: left;padding-left:30px;'><p>Press '1' for A</p></div><div style='float: right;padding-right:30px;'><p>Press '0' for B</p> </div> </div></div>","null","","","","","","","","","","","","","",""
"3200","","test","audio-keyboard-response","77","606507","0.0-8.0-1.25","58ac91c38bf22a00015b91b3","condB","","resources/audio/wordStim/S3_AU_14_axb_Step-2.wav","48","","","","","AU","resources/audio/wordStim/S3_AU_14_axb_Step-2.wav","S3","14","axb","2","MI","0","0","true"
"null","","fixation","html-keyboard-response","78","607509","0.0-8.0-0.26","58ac91c38bf22a00015b91b3","condB","","<div class=""vertical-center"" style='width:60%;'><p style='font-weight:bold;'>Does the middle word sound more like the first word (A) or the last word (B)?</p> <br> <div class=""container""> <div id=""a-box""> <p class=""title-text"">A</h3></p> </div> <div id=""x-box""> <p class=""title-text"">X<p> </div> <div id=""b-box""> <p class=""title-text"">B</p></div> <br> <div style='float: left;padding-left:30px;'><p>Press '1' for A</p></div><div style='float: right;padding-right:30px;'><p>Press '0' for B</p> </div> </div></div>","null","","","","","","","","","","","","","",""
"3139","","test","audio-keyboard-response","79","610652","0.0-8.0-1.26","58ac91c38bf22a00015b91b3","condB","","resources/audio/wordStim/S3_AI_30_bxa_Step-10.wav","49","","","","","AI","resources/audio/wordStim/S3_AI_30_bxa_Step-10.wav","S3","30","bxa","10","MI","1","1","true"
"4484.820000012405","","break","html-keyboard-response","80","615639","0.0-8.0-2.26-0.26","58ac91c38bf22a00015b91b3","condB","","<div class=""vertical-center""><p>Feel free to take a break!</p><i>When you're ready to continue, press SPACE to begin the next trial.</i></p></div>","32","","","","","","","","","","","","","",""
"null","","fixation","html-keyboard-response","81","616140","0.0-8.0-0.27","58ac91c38bf22a00015b91b3","condB","","<div class=""vertical-center"" style='width:60%;'><p style='font-weight:bold;'>Does the middle word sound more like the first word (A) or the last word (B)?</p> <br> <div class=""container""> <div id=""a-box""> <p class=""title-text"">A</h3></p> </div> <div id=""x-box""> <p class=""title-text"">X<p> </div> <div id=""b-box""> <p class=""title-text"">B</p></div> <br> <div style='float: left;padding-left:30px;'><p>Press '1' for A</p></div><div style='float: right;padding-right:30px;'><p>Press '0' for B</p> </div> </div></div>","null","","","","","","","","","","","","","",""
"3309","","test","audio-keyboard-response","82","619448","0.0-8.0-1.27","58ac91c38bf22a00015b91b3","condB","","resources/audio/wordStim/S9_AI_24_bxa_Step-9.wav","48","","","","","AI","resources/audio/wordStim/S9_AI_24_bxa_Step-9.wav","S9","24","bxa","9","CN","1","0","false"
"null","","fixation","html-keyboard-response","83","620450","0.0-8.0-0.28","58ac91c38bf22a00015b91b3","condB","","<div class=""vertical-center"" style='width:60%;'><p style='font-weight:bold;'>Does the middle word sound more like the first word (A) or the last word (B)?</p> <br> <div class=""container""> <div id=""a-box""> <p class=""title-text"">A</h3></p> </div> <div id=""x-box""> <p class=""title-text"">X<p> </div> <div id=""b-box""> <p class=""title-text"">B</p></div> <br> <div style='float: left;padding-left:30px;'><p>Press '1' for A</p></div><div style='float: right;padding-right:30px;'><p>Press '0' for B</p> </div> </div></div>","null","","","","","","","","","","","","","",""
"3821","","test","audio-keyboard-response","84","624270","0.0-8.0-1.28","58ac91c38bf22a00015b91b3","condB","","resources/audio/wordStim/S3_AI_28_bxa_Step-3.wav","48","","","","","AI","resources/audio/wordStim/S3_AI_28_bxa_Step-3.wav","S3","28","bxa","3","MI","1","0","false"
"null","","fixation","html-keyboard-response","85","625272","0.0-8.0-0.29","58ac91c38bf22a00015b91b3","condB","","<div class=""vertical-center"" style='width:60%;'><p style='font-weight:bold;'>Does the middle word sound more like the first word (A) or the last word (B)?</p> <br> <div class=""container""> <div id=""a-box""> <p class=""title-text"">A</h3></p> </div> <div id=""x-box""> <p class=""title-text"">X<p> </div> <div id=""b-box""> <p class=""title-text"">B</p></div> <br> <div style='float: left;padding-left:30px;'><p>Press '1' for A</p></div><div style='float: right;padding-right:30px;'><p>Press '0' for B</p> </div> </div></div>","null","","","","","","","","","","","","","",""
"3640","","test","audio-keyboard-response","86","628906","0.0-8.0-1.29","58ac91c38bf22a00015b91b3","condB","","resources/audio/wordStim/S3_AU_16_bxa_Step-10.wav","49","","","","","AU","resources/audio/wordStim/S3_AU_16_bxa_Step-10.wav","S3","16","bxa","10","MI","1","1","true"
"null","","fixation","html-keyboard-response","87","629908","0.0-8.0-0.30","58ac91c38bf22a00015b91b3","condB","","<div class=""vertical-center"" style='width:60%;'><p style='font-weight:bold;'>Does the middle word sound more like the first word (A) or the last word (B)?</p> <br> <div class=""container""> <div id=""a-box""> <p class=""title-text"">A</h3></p> </div> <div id=""x-box""> <p class=""title-text"">X<p> </div> <div id=""b-box""> <p class=""title-text"">B</p></div> <br> <div style='float: left;padding-left:30px;'><p>Press '1' for A</p></div><div style='float: right;padding-right:30px;'><p>Press '0' for B</p> </div> </div></div>","null","","","","","","","","","","","","","",""
"3589","","test","audio-keyboard-response","88","633497","0.0-8.0-1.30","58ac91c38bf22a00015b91b3","condB","","resources/audio/wordStim/S9_AI_22_axb_Step-6.wav","48","","","","","AI","resources/audio/wordStim/S9_AI_22_axb_Step-6.wav","S9","22","axb","6","CN","0","0","true"
"null","","fixation","html-keyboard-response","89","634499","0.0-8.0-0.31","58ac91c38bf22a00015b91b3","condB","","<div class=""vertical-center"" style='width:60%;'><p style='font-weight:bold;'>Does the middle word sound more like the first word (A) or the last word (B)?</p> <br> <div class=""container""> <div id=""a-box""> <p class=""title-text"">A</h3></p> </div> <div id=""x-box""> <p class=""title-text"">X<p> </div> <div id=""b-box""> <p class=""title-text"">B</p></div> <br> <div style='float: left;padding-left:30px;'><p>Press '1' for A</p></div><div style='float: right;padding-right:30px;'><p>Press '0' for B</p> </div> </div></div>","null","","","","","","","","","","","","","",""
"2829","","test","audio-keyboard-response","90","637331","0.0-8.0-1.31","58ac91c38bf22a00015b91b3","condB","","resources/audio/wordStim/S9_AU_16_bxa_Step-7.wav","49","","","","","AU","resources/audio/wordStim/S9_AU_16_bxa_Step-7.wav","S9","16","bxa","7","CN","1","1","true"
"null","","fixation","html-keyboard-response","91","638333","0.0-8.0-0.32","58ac91c38bf22a00015b91b3","condB","","<div class=""vertical-center"" style='width:60%;'><p style='font-weight:bold;'>Does the middle word sound more like the first word (A) or the last word (B)?</p> <br> <div class=""container""> <div id=""a-box""> <p class=""title-text"">A</h3></p> </div> <div id=""x-box""> <p class=""title-text"">X<p> </div> <div id=""b-box""> <p class=""title-text"">B</p></div> <br> <div style='float: left;padding-left:30px;'><p>Press '1' for A</p></div><div style='float: right;padding-right:30px;'><p>Press '0' for B</p> </div> </div></div>","null","","","","","","","","","","","","","",""
"3411","","test","audio-keyboard-response","92","641746","0.0-8.0-1.32","58ac91c38bf22a00015b91b3","condB","","resources/audio/wordStim/S3_AI_23_bxa_Step-10.wav","48","","","","","AI","resources/audio/wordStim/S3_AI_23_bxa_Step-10.wav","S3","23","bxa","10","MI","1","0","false"
"null","","fixation","html-keyboard-response","93","642748","0.0-8.0-0.33","58ac91c38bf22a00015b91b3","condB","","<div class=""vertical-center"" style='width:60%;'><p style='font-weight:bold;'>Does the middle word sound more like the first word (A) or the last word (B)?</p> <br> <div class=""container""> <div id=""a-box""> <p class=""title-text"">A</h3></p> </div> <div id=""x-box""> <p class=""title-text"">X<p> </div> <div id=""b-box""> <p class=""title-text"">B</p></div> <br> <div style='float: left;padding-left:30px;'><p>Press '1' for A</p></div><div style='float: right;padding-right:30px;'><p>Press '0' for B</p> </div> </div></div>","null","","","","","","","","","","","","","",""
"3011","","test","audio-keyboard-response","94","645761","0.0-8.0-1.33","58ac91c38bf22a00015b91b3","condB","","resources/audio/wordStim/S9_AU_13_bxa_Step-3.wav","48","","","","","AU","resources/audio/wordStim/S9_AU_13_bxa_Step-3.wav","S9","13","bxa","3","CN","1","0","false"
"null","","fixation","html-keyboard-response","95","646764","0.0-8.0-0.34","58ac91c38bf22a00015b91b3","condB","","<div class=""vertical-center"" style='width:60%;'><p style='font-weight:bold;'>Does the middle word sound more like the first word (A) or the last word (B)?</p> <br> <div class=""container""> <div id=""a-box""> <p class=""title-text"">A</h3></p> </div> <div id=""x-box""> <p class=""title-text"">X<p> </div> <div id=""b-box""> <p class=""title-text"">B</p></div> <br> <div style='float: left;padding-left:30px;'><p>Press '1' for A</p></div><div style='float: right;padding-right:30px;'><p>Press '0' for B</p> </div> </div></div>","null","","","","","","","","","","","","","",""
"3731","","test","audio-keyboard-response","96","650502","0.0-8.0-1.34","58ac91c38bf22a00015b91b3","condB","","resources/audio/wordStim/S3_AI_30_bxa_Step-3.wav","49","","","","","AI","resources/audio/wordStim/S3_AI_30_bxa_Step-3.wav","S3","30","bxa","3","MI","1","1","true"
"null","","fixation","html-keyboard-response","97","651504","0.0-8.0-0.35","58ac91c38bf22a00015b91b3","condB","","<div class=""vertical-center"" style='width:60%;'><p style='font-weight:bold;'>Does the middle word sound more like the first word (A) or the last word (B)?</p> <br> <div class=""container""> <div id=""a-box""> <p class=""title-text"">A</h3></p> </div> <div id=""x-box""> <p class=""title-text"">X<p> </div> <div id=""b-box""> <p class=""title-text"">B</p></div> <br> <div style='float: left;padding-left:30px;'><p>Press '1' for A</p></div><div style='float: right;padding-right:30px;'><p>Press '0' for B</p> </div> </div></div>","null","","","","","","","","","","","","","",""
"2989","","test","audio-keyboard-response","98","654497","0.0-8.0-1.35","58ac91c38bf22a00015b91b3","condB","","resources/audio/wordStim/S9_AI_27_bxa_Step-10.wav","49","","","","","AI","resources/audio/wordStim/S9_AI_27_bxa_Step-10.wav","S9","27","bxa","10","CN","1","1","true"
"null","","fixation","html-keyboard-response","99","655500","0.0-8.0-0.36","58ac91c38bf22a00015b91b3","condB","","<div class=""vertical-center"" style='width:60%;'><p style='font-weight:bold;'>Does the middle word sound more like the first word (A) or the last word (B)?</p> <br> <div class=""container""> <div id=""a-box""> <p class=""title-text"">A</h3></p> </div> <div id=""x-box""> <p class=""title-text"">X<p> </div> <div id=""b-box""> <p class=""title-text"">B</p></div> <br> <div style='float: left;padding-left:30px;'><p>Press '1' for A</p></div><div style='float: right;padding-right:30px;'><p>Press '0' for B</p> </div> </div></div>","null","","","","","","","","","","","","","",""
"2891","","test","audio-keyboard-response","100","658386","0.0-8.0-1.36","58ac91c38bf22a00015b91b3","condB","","resources/audio/wordStim/S9_AI_30_axb_Step-8.wav","48","","","","","AI","resources/audio/wordStim/S9_AI_30_axb_Step-8.wav","S9","30","axb","8","CN","0","0","true"
"null","","fixation","html-keyboard-response","101","659388","0.0-8.0-0.37","58ac91c38bf22a00015b91b3","condB","","<div class=""vertical-center"" style='width:60%;'><p style='font-weight:bold;'>Does the middle word sound more like the first word (A) or the last word (B)?</p> <br> <div class=""container""> <div id=""a-box""> <p class=""title-text"">A</h3></p> </div> <div id=""x-box""> <p class=""title-text"">X<p> </div> <div id=""b-box""> <p class=""title-text"">B</p></div> <br> <div style='float: left;padding-left:30px;'><p>Press '1' for A</p></div><div style='float: right;padding-right:30px;'><p>Press '0' for B</p> </div> </div></div>","null","","","","","","","","","","","","","",""
"2989","","test","audio-keyboard-response","102","662380","0.0-8.0-1.37","58ac91c38bf22a00015b91b3","condB","","resources/audio/wordStim/S3_AU_15_bxa_Step-10.wav","49","","","","","AU","resources/audio/wordStim/S3_AU_15_bxa_Step-10.wav","S3","15","bxa","10","MI","1","1","true"
"null","","fixation","html-keyboard-response","103","663382","0.0-8.0-0.38","58ac91c38bf22a00015b91b3","condB","","<div class=""vertical-center"" style='width:60%;'><p style='font-weight:bold;'>Does the middle word sound more like the first word (A) or the last word (B)?</p> <br> <div class=""container""> <div id=""a-box""> <p class=""title-text"">A</h3></p> </div> <div id=""x-box""> <p class=""title-text"">X<p> </div> <div id=""b-box""> <p class=""title-text"">B</p></div> <br> <div style='float: left;padding-left:30px;'><p>Press '1' for A</p></div><div style='float: right;padding-right:30px;'><p>Press '0' for B</p> </div> </div></div>","null","","","","","","","","","","","","","",""
"4099","","test","audio-keyboard-response","104","667492","0.0-8.0-1.38","58ac91c38bf22a00015b91b3","condB","","resources/audio/wordStim/S9_AU_16_bxa_Step-5.wav","48","","","","","AU","resources/audio/wordStim/S9_AU_16_bxa_Step-5.wav","S9","16","bxa","5","CN","1","0","false"
"null","","fixation","html-keyboard-response","105","668495","0.0-8.0-0.39","58ac91c38bf22a00015b91b3","condB","","<div class=""vertical-center"" style='width:60%;'><p style='font-weight:bold;'>Does the middle word sound more like the first word (A) or the last word (B)?</p> <br> <div class=""container""> <div id=""a-box""> <p class=""title-text"">A</h3></p> </div> <div id=""x-box""> <p class=""title-text"">X<p> </div> <div id=""b-box""> <p class=""title-text"">B</p></div> <br> <div style='float: left;padding-left:30px;'><p>Press '1' for A</p></div><div style='float: right;padding-right:30px;'><p>Press '0' for B</p> </div> </div></div>","null","","","","","","","","","","","","","",""
"2941","","test","audio-keyboard-response","106","671442","0.0-8.0-1.39","58ac91c38bf22a00015b91b3","condB","","resources/audio/wordStim/S3_AU_20_bxa_Step-7.wav","49","","","","","AU","resources/audio/wordStim/S3_AU_20_bxa_Step-7.wav","S3","20","bxa","7","MI","1","1","true"
"null","","fixation","html-keyboard-response","107","672445","0.0-8.0-0.40","58ac91c38bf22a00015b91b3","condB","","<div class=""vertical-center"" style='width:60%;'><p style='font-weight:bold;'>Does the middle word sound more like the first word (A) or the last word (B)?</p> <br> <div class=""container""> <div id=""a-box""> <p class=""title-text"">A</h3></p> </div> <div id=""x-box""> <p class=""title-text"">X<p> </div> <div id=""b-box""> <p class=""title-text"">B</p></div> <br> <div style='float: left;padding-left:30px;'><p>Press '1' for A</p></div><div style='float: right;padding-right:30px;'><p>Press '0' for B</p> </div> </div></div>","null","","","","","","","","","","","","","",""
"3381","","test","audio-keyboard-response","108","675827","0.0-8.0-1.40","58ac91c38bf22a00015b91b3","condB","","resources/audio/wordStim/S9_AI_25_axb_Step-2.wav","49","","","","","AI","resources/audio/wordStim/S9_AI_25_axb_Step-2.wav","S9","25","axb","2","CN","0","1","false"
"null","","fixation","html-keyboard-response","109","676830","0.0-8.0-0.41","58ac91c38bf22a00015b91b3","condB","","<div class=""vertical-center"" style='width:60%;'><p style='font-weight:bold;'>Does the middle word sound more like the first word (A) or the last word (B)?</p> <br> <div class=""container""> <div id=""a-box""> <p class=""title-text"">A</h3></p> </div> <div id=""x-box""> <p class=""title-text"">X<p> </div> <div id=""b-box""> <p class=""title-text"">B</p></div> <br> <div style='float: left;padding-left:30px;'><p>Press '1' for A</p></div><div style='float: right;padding-right:30px;'><p>Press '0' for B</p> </div> </div></div>","null","","","","","","","","","","","","","",""
"3619","","test","audio-keyboard-response","110","680453","0.0-8.0-1.41","58ac91c38bf22a00015b91b3","condB","","resources/audio/wordStim/S3_AI_29_bxa_Step-10.wav","48","","","","","AI","resources/audio/wordStim/S3_AI_29_bxa_Step-10.wav","S3","29","bxa","10","MI","1","0","false"
"null","","fixation","html-keyboard-response","111","681455","0.0-8.0-0.42","58ac91c38bf22a00015b91b3","condB","","<div class=""vertical-center"" style='width:60%;'><p style='font-weight:bold;'>Does the middle word sound more like the first word (A) or the last word (B)?</p> <br> <div class=""container""> <div id=""a-box""> <p class=""title-text"">A</h3></p> </div> <div id=""x-box""> <p class=""title-text"">X<p> </div> <div id=""b-box""> <p class=""title-text"">B</p></div> <br> <div style='float: left;padding-left:30px;'><p>Press '1' for A</p></div><div style='float: right;padding-right:30px;'><p>Press '0' for B</p> </div> </div></div>","null","","","","","","","","","","","","","",""
"3389","","test","audio-keyboard-response","112","684844","0.0-8.0-1.42","58ac91c38bf22a00015b91b3","condB","","resources/audio/wordStim/S9_AU_11_axb_Step-8.wav","48","","","","","AU","resources/audio/wordStim/S9_AU_11_axb_Step-8.wav","S9","11","axb","8","CN","0","0","true"
"null","","fixation","html-keyboard-response","113","685847","0.0-8.0-0.43","58ac91c38bf22a00015b91b3","condB","","<div class=""vertical-center"" style='width:60%;'><p style='font-weight:bold;'>Does the middle word sound more like the first word (A) or the last word (B)?</p> <br> <div class=""container""> <div id=""a-box""> <p class=""title-text"">A</h3></p> </div> <div id=""x-box""> <p class=""title-text"">X<p> </div> <div id=""b-box""> <p class=""title-text"">B</p></div> <br> <div style='float: left;padding-left:30px;'><p>Press '1' for A</p></div><div style='float: right;padding-right:30px;'><p>Press '0' for B</p> </div> </div></div>","null","","","","","","","","","","","","","",""
"3552","","test","audio-keyboard-response","114","689400","0.0-8.0-1.43","58ac91c38bf22a00015b91b3","condB","","resources/audio/wordStim/S3_AI_29_axb_Step-6.wav","48","","","","","AI","resources/audio/wordStim/S3_AI_29_axb_Step-6.wav","S3","29","axb","6","MI","0","0","true"
"null","","fixation","html-keyboard-response","115","690402","0.0-8.0-0.44","58ac91c38bf22a00015b91b3","condB","","<div class=""vertical-center"" style='width:60%;'><p style='font-weight:bold;'>Does the middle word sound more like the first word (A) or the last word (B)?</p> <br> <div class=""container""> <div id=""a-box""> <p class=""title-text"">A</h3></p> </div> <div id=""x-box""> <p class=""title-text"">X<p> </div> <div id=""b-box""> <p class=""title-text"">B</p></div> <br> <div style='float: left;padding-left:30px;'><p>Press '1' for A</p></div><div style='float: right;padding-right:30px;'><p>Press '0' for B</p> </div> </div></div>","null","","","","","","","","","","","","","",""
"3048","","test","audio-keyboard-response","116","693444","0.0-8.0-1.44","58ac91c38bf22a00015b91b3","condB","","resources/audio/wordStim/S3_AU_15_bxa_Step-3.wav","48","","","","","AU","resources/audio/wordStim/S3_AU_15_bxa_Step-3.wav","S3","15","bxa","3","MI","1","0","false"
"null","","fixation","html-keyboard-response","117","694446","0.0-8.0-0.45","58ac91c38bf22a00015b91b3","condB","","<div class=""vertical-center"" style='width:60%;'><p style='font-weight:bold;'>Does the middle word sound more like the first word (A) or the last word (B)?</p> <br> <div class=""container""> <div id=""a-box""> <p class=""title-text"">A</h3></p> </div> <div id=""x-box""> <p class=""title-text"">X<p> </div> <div id=""b-box""> <p class=""title-text"">B</p></div> <br> <div style='float: left;padding-left:30px;'><p>Press '1' for A</p></div><div style='float: right;padding-right:30px;'><p>Press '0' for B</p> </div> </div></div>","null","","","","","","","","","","","","","",""
"3491","","test","audio-keyboard-response","118","697935","0.0-8.0-1.45","58ac91c38bf22a00015b91b3","condB","","resources/audio/wordStim/S3_AU_17_axb_Step-2.wav","49","","","","","AU","resources/audio/wordStim/S3_AU_17_axb_Step-2.wav","S3","17","axb","2","MI","0","1","false"
"null","","fixation","html-keyboard-response","119","698936","0.0-8.0-0.46","58ac91c38bf22a00015b91b3","condB","","<div class=""vertical-center"" style='width:60%;'><p style='font-weight:bold;'>Does the middle word sound more like the first word (A) or the last word (B)?</p> <br> <div class=""container""> <div id=""a-box""> <p class=""title-text"">A</h3></p> </div> <div id=""x-box""> <p class=""title-text"">X<p> </div> <div id=""b-box""> <p class=""title-text"">B</p></div> <br> <div style='float: left;padding-left:30px;'><p>Press '1' for A</p></div><div style='float: right;padding-right:30px;'><p>Press '0' for B</p> </div> </div></div>","null","","","","","","","","","","","","","",""
"2971","","test","audio-keyboard-response","120","701904","0.0-8.0-1.46","58ac91c38bf22a00015b91b3","condB","","resources/audio/wordStim/S3_AU_11_axb_Step-2.wav","49","","","","","AU","resources/audio/wordStim/S3_AU_11_axb_Step-2.wav","S3","11","axb","2","MI","0","1","false"
"null","","fixation","html-keyboard-response","121","702905","0.0-8.0-0.47","58ac91c38bf22a00015b91b3","condB","","<div class=""vertical-center"" style='width:60%;'><p style='font-weight:bold;'>Does the middle word sound more like the first word (A) or the last word (B)?</p> <br> <div class=""container""> <div id=""a-box""> <p class=""title-text"">A</h3></p> </div> <div id=""x-box""> <p class=""title-text"">X<p> </div> <div id=""b-box""> <p class=""title-text"">B</p></div> <br> <div style='float: left;padding-left:30px;'><p>Press '1' for A</p></div><div style='float: right;padding-right:30px;'><p>Press '0' for B</p> </div> </div></div>","null","","","","","","","","","","","","","",""
"3979","","test","audio-keyboard-response","122","706890","0.0-8.0-1.47","58ac91c38bf22a00015b91b3","condB","","resources/audio/wordStim/S9_AU_18_bxa_Step-9.wav","49","","","","","AU","resources/audio/wordStim/S9_AU_18_bxa_Step-9.wav","S9","18","bxa","9","CN","1","1","true"
"null","","fixation","html-keyboard-response","123","707892","0.0-8.0-0.48","58ac91c38bf22a00015b91b3","condB","","<div class=""vertical-center"" style='width:60%;'><p style='font-weight:bold;'>Does the middle word sound more like the first word (A) or the last word (B)?</p> <br> <div class=""container""> <div id=""a-box""> <p class=""title-text"">A</h3></p> </div> <div id=""x-box""> <p class=""title-text"">X<p> </div> <div id=""b-box""> <p class=""title-text"">B</p></div> <br> <div style='float: left;padding-left:30px;'><p>Press '1' for A</p></div><div style='float: right;padding-right:30px;'><p>Press '0' for B</p> </div> </div></div>","null","","","","","","","","","","","","","",""
"3011","","test","audio-keyboard-response","124","710906","0.0-8.0-1.48","58ac91c38bf22a00015b91b3","condB","","resources/audio/wordStim/S9_AU_17_axb_Step-2.wav","49","","","","","AU","resources/audio/wordStim/S9_AU_17_axb_Step-2.wav","S9","17","axb","2","CN","0","1","false"
"null","","fixation","html-keyboard-response","125","711908","0.0-8.0-0.49","58ac91c38bf22a00015b91b3","condB","","<div class=""vertical-center"" style='width:60%;'><p style='font-weight:bold;'>Does the middle word sound more like the first word (A) or the last word (B)?</p> <br> <div class=""container""> <div id=""a-box""> <p class=""title-text"">A</h3></p> </div> <div id=""x-box""> <p class=""title-text"">X<p> </div> <div id=""b-box""> <p class=""title-text"">B</p></div> <br> <div style='float: left;padding-left:30px;'><p>Press '1' for A</p></div><div style='float: right;padding-right:30px;'><p>Press '0' for B</p> </div> </div></div>","null","","","","","","","","","","","","","",""
"3291","","test","audio-keyboard-response","126","715196","0.0-8.0-1.49","58ac91c38bf22a00015b91b3","condB","","resources/audio/wordStim/S9_AI_27_bxa_Step-9.wav","49","","","","","AI","resources/audio/wordStim/S9_AI_27_bxa_Step-9.wav","S9","27","bxa","9","CN","1","1","true"
"null","","fixation","html-keyboard-response","127","716198","0.0-8.0-0.50","58ac91c38bf22a00015b91b3","condB","","<div class=""vertical-center"" style='width:60%;'><p style='font-weight:bold;'>Does the middle word sound more like the first word (A) or the last word (B)?</p> <br> <div class=""container""> <div id=""a-box""> <p class=""title-text"">A</h3></p> </div> <div id=""x-box""> <p class=""title-text"">X<p> </div> <div id=""b-box""> <p class=""title-text"">B</p></div> <br> <div style='float: left;padding-left:30px;'><p>Press '1' for A</p></div><div style='float: right;padding-right:30px;'><p>Press '0' for B</p> </div> </div></div>","null","","","","","","","","","","","","","",""
"3040","","test","audio-keyboard-response","128","719235","0.0-8.0-1.50","58ac91c38bf22a00015b91b3","condB","","resources/audio/wordStim/S3_AU_15_bxa_Step-9.wav","48","","","","","AU","resources/audio/wordStim/S3_AU_15_bxa_Step-9.wav","S3","15","bxa","9","MI","1","0","false"
"null","","fixation","html-keyboard-response","129","720237","0.0-8.0-0.51","58ac91c38bf22a00015b91b3","condB","","<div class=""vertical-center"" style='width:60%;'><p style='font-weight:bold;'>Does the middle word sound more like the first word (A) or the last word (B)?</p> <br> <div class=""container""> <div id=""a-box""> <p class=""title-text"">A</h3></p> </div> <div id=""x-box""> <p class=""title-text"">X<p> </div> <div id=""b-box""> <p class=""title-text"">B</p></div> <br> <div style='float: left;padding-left:30px;'><p>Press '1' for A</p></div><div style='float: right;padding-right:30px;'><p>Press '0' for B</p> </div> </div></div>","null","","","","","","","","","","","","","",""
"3069","","test","audio-keyboard-response","130","723310","0.0-8.0-1.51","58ac91c38bf22a00015b91b3","condB","","resources/audio/wordStim/S9_AU_17_bxa_Step-5.wav","49","","","","","AU","resources/audio/wordStim/S9_AU_17_bxa_Step-5.wav","S9","17","bxa","5","CN","1","1","true"
"null","","fixation","html-keyboard-response","131","724313","0.0-8.0-0.52","58ac91c38bf22a00015b91b3","condB","","<div class=""vertical-center"" style='width:60%;'><p style='font-weight:bold;'>Does the middle word sound more like the first word (A) or the last word (B)?</p> <br> <div class=""container""> <div id=""a-box""> <p class=""title-text"">A</h3></p> </div> <div id=""x-box""> <p class=""title-text"">X<p> </div> <div id=""b-box""> <p class=""title-text"">B</p></div> <br> <div style='float: left;padding-left:30px;'><p>Press '1' for A</p></div><div style='float: right;padding-right:30px;'><p>Press '0' for B</p> </div> </div></div>","null","","","","","","","","","","","","","",""
"3328","","test","audio-keyboard-response","132","727650","0.0-8.0-1.52","58ac91c38bf22a00015b91b3","condB","","resources/audio/wordStim/S3_AI_22_bxa_Step-9.wav","49","","","","","AI","resources/audio/wordStim/S3_AI_22_bxa_Step-9.wav","S3","22","bxa","9","MI","1","1","true"
"null","","fixation","html-keyboard-response","133","728652","0.0-8.0-0.53","58ac91c38bf22a00015b91b3","condB","","<div class=""vertical-center"" style='width:60%;'><p style='font-weight:bold;'>Does the middle word sound more like the first word (A) or the last word (B)?</p> <br> <div class=""container""> <div id=""a-box""> <p class=""title-text"">A</h3></p> </div> <div id=""x-box""> <p class=""title-text"">X<p> </div> <div id=""b-box""> <p class=""title-text"">B</p></div> <br> <div style='float: left;padding-left:30px;'><p>Press '1' for A</p></div><div style='float: right;padding-right:30px;'><p>Press '0' for B</p> </div> </div></div>","null","","","","","","","","","","","","","",""
"3349","","test","audio-keyboard-response","134","732006","0.0-8.0-1.53","58ac91c38bf22a00015b91b3","condB","","resources/audio/wordStim/S3_AI_22_bxa_Step-3.wav","48","","","","","AI","resources/audio/wordStim/S3_AI_22_bxa_Step-3.wav","S3","22","bxa","3","MI","1","0","false"
"2842.2299999801908","","break","html-keyboard-response","135","735349","0.0-8.0-2.53-0.53","58ac91c38bf22a00015b91b3","condB","","<div class=""vertical-center""><p>Feel free to take a break!</p><i>When you're ready to continue, press SPACE to begin the next trial.</i></p></div>","32","","","","","","","","","","","","","",""
"null","","fixation","html-keyboard-response","136","735849","0.0-8.0-0.54","58ac91c38bf22a00015b91b3","condB","","<div class=""vertical-center"" style='width:60%;'><p style='font-weight:bold;'>Does the middle word sound more like the first word (A) or the last word (B)?</p> <br> <div class=""container""> <div id=""a-box""> <p class=""title-text"">A</h3></p> </div> <div id=""x-box""> <p class=""title-text"">X<p> </div> <div id=""b-box""> <p class=""title-text"">B</p></div> <br> <div style='float: left;padding-left:30px;'><p>Press '1' for A</p></div><div style='float: right;padding-right:30px;'><p>Press '0' for B</p> </div> </div></div>","null","","","","","","","","","","","","","",""
"3091","","test","audio-keyboard-response","137","738937","0.0-8.0-1.54","58ac91c38bf22a00015b91b3","condB","","resources/audio/wordStim/S9_AI_23_bxa_Step-5.wav","48","","","","","AI","resources/audio/wordStim/S9_AI_23_bxa_Step-5.wav","S9","23","bxa","5","CN","1","0","false"
"null","","fixation","html-keyboard-response","138","739939","0.0-8.0-0.55","58ac91c38bf22a00015b91b3","condB","","<div class=""vertical-center"" style='width:60%;'><p style='font-weight:bold;'>Does the middle word sound more like the first word (A) or the last word (B)?</p> <br> <div class=""container""> <div id=""a-box""> <p class=""title-text"">A</h3></p> </div> <div id=""x-box""> <p class=""title-text"">X<p> </div> <div id=""b-box""> <p class=""title-text"">B</p></div> <br> <div style='float: left;padding-left:30px;'><p>Press '1' for A</p></div><div style='float: right;padding-right:30px;'><p>Press '0' for B</p> </div> </div></div>","null","","","","","","","","","","","","","",""
"2741","","test","audio-keyboard-response","139","742676","0.0-8.0-1.55","58ac91c38bf22a00015b91b3","condB","","resources/audio/wordStim/S3_AU_19_axb_Step-4.wav","49","","","","","AU","resources/audio/wordStim/S3_AU_19_axb_Step-4.wav","S3","19","axb","4","MI","0","1","false"
"null","","fixation","html-keyboard-response","140","743678","0.0-8.0-0.56","58ac91c38bf22a00015b91b3","condB","","<div class=""vertical-center"" style='width:60%;'><p style='font-weight:bold;'>Does the middle word sound more like the first word (A) or the last word (B)?</p> <br> <div class=""container""> <div id=""a-box""> <p class=""title-text"">A</h3></p> </div> <div id=""x-box""> <p class=""title-text"">X<p> </div> <div id=""b-box""> <p class=""title-text"">B</p></div> <br> <div style='float: left;padding-left:30px;'><p>Press '1' for A</p></div><div style='float: right;padding-right:30px;'><p>Press '0' for B</p> </div> </div></div>","null","","","","","","","","","","","","","",""
"2848","","test","audio-keyboard-response","141","746530","0.0-8.0-1.56","58ac91c38bf22a00015b91b3","condB","","resources/audio/wordStim/S3_AU_19_axb_Step-2.wav","49","","","","","AU","resources/audio/wordStim/S3_AU_19_axb_Step-2.wav","S3","19","axb","2","MI","0","1","false"
"null","","fixation","html-keyboard-response","142","747533","0.0-8.0-0.57","58ac91c38bf22a00015b91b3","condB","","<div class=""vertical-center"" style='width:60%;'><p style='font-weight:bold;'>Does the middle word sound more like the first word (A) or the last word (B)?</p> <br> <div class=""container""> <div id=""a-box""> <p class=""title-text"">A</h3></p> </div> <div id=""x-box""> <p class=""title-text"">X<p> </div> <div id=""b-box""> <p class=""title-text"">B</p></div> <br> <div style='float: left;padding-left:30px;'><p>Press '1' for A</p></div><div style='float: right;padding-right:30px;'><p>Press '0' for B</p> </div> </div></div>","null","","","","","","","","","","","","","",""
"3501","","test","audio-keyboard-response","143","751035","0.0-8.0-1.57","58ac91c38bf22a00015b91b3","condB","","resources/audio/wordStim/S9_AI_23_bxa_Step-7.wav","49","","","","","AI","resources/audio/wordStim/S9_AI_23_bxa_Step-7.wav","S9","23","bxa","7","CN","1","1","true"
"null","","fixation","html-keyboard-response","144","752037","0.0-8.0-0.58","58ac91c38bf22a00015b91b3","condB","","<div class=""vertical-center"" style='width:60%;'><p style='font-weight:bold;'>Does the middle word sound more like the first word (A) or the last word (B)?</p> <br> <div class=""container""> <div id=""a-box""> <p class=""title-text"">A</h3></p> </div> <div id=""x-box""> <p class=""title-text"">X<p> </div> <div id=""b-box""> <p class=""title-text"">B</p></div> <br> <div style='float: left;padding-left:30px;'><p>Press '1' for A</p></div><div style='float: right;padding-right:30px;'><p>Press '0' for B</p> </div> </div></div>","null","","","","","","","","","","","","","",""
"2899","","test","audio-keyboard-response","145","754935","0.0-8.0-1.58","58ac91c38bf22a00015b91b3","condB","","resources/audio/wordStim/S3_AU_20_bxa_Step-10.wav","49","","","","","AU","resources/audio/wordStim/S3_AU_20_bxa_Step-10.wav","S3","20","bxa","10","MI","1","1","true"
"null","","fixation","html-keyboard-response","146","755937","0.0-8.0-0.59","58ac91c38bf22a00015b91b3","condB","","<div class=""vertical-center"" style='width:60%;'><p style='font-weight:bold;'>Does the middle word sound more like the first word (A) or the last word (B)?</p> <br> <div class=""container""> <div id=""a-box""> <p class=""title-text"">A</h3></p> </div> <div id=""x-box""> <p class=""title-text"">X<p> </div> <div id=""b-box""> <p class=""title-text"">B</p></div> <br> <div style='float: left;padding-left:30px;'><p>Press '1' for A</p></div><div style='float: right;padding-right:30px;'><p>Press '0' for B</p> </div> </div></div>","null","","","","","","","","","","","","","",""
"4211","","test","audio-keyboard-response","147","760148","0.0-8.0-1.59","58ac91c38bf22a00015b91b3","condB","","resources/audio/wordStim/S3_AI_22_axb_Step-6.wav","49","","","","","AI","resources/audio/wordStim/S3_AI_22_axb_Step-6.wav","S3","22","axb","6","MI","0","1","false"
"null","","fixation","html-keyboard-response","148","761150","0.0-8.0-0.60","58ac91c38bf22a00015b91b3","condB","","<div class=""vertical-center"" style='width:60%;'><p style='font-weight:bold;'>Does the middle word sound more like the first word (A) or the last word (B)?</p> <br> <div class=""container""> <div id=""a-box""> <p class=""title-text"">A</h3></p> </div> <div id=""x-box""> <p class=""title-text"">X<p> </div> <div id=""b-box""> <p class=""title-text"">B</p></div> <br> <div style='float: left;padding-left:30px;'><p>Press '1' for A</p></div><div style='float: right;padding-right:30px;'><p>Press '0' for B</p> </div> </div></div>","null","","","","","","","","","","","","","",""
"3520","","test","audio-keyboard-response","149","764672","0.0-8.0-1.60","58ac91c38bf22a00015b91b3","condB","","resources/audio/wordStim/S3_AU_18_axb_Step-4.wav","49","","","","","AU","resources/audio/wordStim/S3_AU_18_axb_Step-4.wav","S3","18","axb","4","MI","0","1","false"
"null","","fixation","html-keyboard-response","150","765676","0.0-8.0-0.61","58ac91c38bf22a00015b91b3","condB","","<div class=""vertical-center"" style='width:60%;'><p style='font-weight:bold;'>Does the middle word sound more like the first word (A) or the last word (B)?</p> <br> <div class=""container""> <div id=""a-box""> <p class=""title-text"">A</h3></p> </div> <div id=""x-box""> <p class=""title-text"">X<p> </div> <div id=""b-box""> <p class=""title-text"">B</p></div> <br> <div style='float: left;padding-left:30px;'><p>Press '1' for A</p></div><div style='float: right;padding-right:30px;'><p>Press '0' for B</p> </div> </div></div>","null","","","","","","","","","","","","","",""
"4088","","test","audio-keyboard-response","151","769770","0.0-8.0-1.61","58ac91c38bf22a00015b91b3","condB","","resources/audio/wordStim/S9_AI_22_bxa_Step-7.wav","48","","","","","AI","resources/audio/wordStim/S9_AI_22_bxa_Step-7.wav","S9","22","bxa","7","CN","1","0","false"
"null","","fixation","html-keyboard-response","152","770774","0.0-8.0-0.62","58ac91c38bf22a00015b91b3","condB","","<div class=""vertical-center"" style='width:60%;'><p style='font-weight:bold;'>Does the middle word sound more like the first word (A) or the last word (B)?</p> <br> <div class=""container""> <div id=""a-box""> <p class=""title-text"">A</h3></p> </div> <div id=""x-box""> <p class=""title-text"">X<p> </div> <div id=""b-box""> <p class=""title-text"">B</p></div> <br> <div style='float: left;padding-left:30px;'><p>Press '1' for A</p></div><div style='float: right;padding-right:30px;'><p>Press '0' for B</p> </div> </div></div>","null","","","","","","","","","","","","","",""
"3520","","test","audio-keyboard-response","153","774301","0.0-8.0-1.62","58ac91c38bf22a00015b91b3","condB","","resources/audio/wordStim/S3_AU_17_axb_Step-8.wav","49","","","","","AU","resources/audio/wordStim/S3_AU_17_axb_Step-8.wav","S3","17","axb","8","MI","0","1","false"
"null","","fixation","html-keyboard-response","154","775302","0.0-8.0-0.63","58ac91c38bf22a00015b91b3","condB","","<div class=""vertical-center"" style='width:60%;'><p style='font-weight:bold;'>Does the middle word sound more like the first word (A) or the last word (B)?</p> <br> <div class=""container""> <div id=""a-box""> <p class=""title-text"">A</h3></p> </div> <div id=""x-box""> <p class=""title-text"">X<p> </div> <div id=""b-box""> <p class=""title-text"">B</p></div> <br> <div style='float: left;padding-left:30px;'><p>Press '1' for A</p></div><div style='float: right;padding-right:30px;'><p>Press '0' for B</p> </div> </div></div>","null","","","","","","","","","","","","","",""
"3219","","test","audio-keyboard-response","155","778530","0.0-8.0-1.63","58ac91c38bf22a00015b91b3","condB","","resources/audio/wordStim/S9_AU_14_bxa_Step-7.wav","48","","","","","AU","resources/audio/wordStim/S9_AU_14_bxa_Step-7.wav","S9","14","bxa","7","CN","1","0","false"
"null","","fixation","html-keyboard-response","156","779535","0.0-8.0-0.64","58ac91c38bf22a00015b91b3","condB","","<div class=""vertical-center"" style='width:60%;'><p style='font-weight:bold;'>Does the middle word sound more like the first word (A) or the last word (B)?</p> <br> <div class=""container""> <div id=""a-box""> <p class=""title-text"">A</h3></p> </div> <div id=""x-box""> <p class=""title-text"">X<p> </div> <div id=""b-box""> <p class=""title-text"">B</p></div> <br> <div style='float: left;padding-left:30px;'><p>Press '1' for A</p></div><div style='float: right;padding-right:30px;'><p>Press '0' for B</p> </div> </div></div>","null","","","","","","","","","","","","","",""
"3509","","test","audio-keyboard-response","157","783046","0.0-8.0-1.64","58ac91c38bf22a00015b91b3","condB","","resources/audio/wordStim/S3_AU_18_axb_Step-6.wav","49","","","","","AU","resources/audio/wordStim/S3_AU_18_axb_Step-6.wav","S3","18","axb","6","MI","0","1","false"
"null","","fixation","html-keyboard-response","158","784048","0.0-8.0-0.65","58ac91c38bf22a00015b91b3","condB","","<div class=""vertical-center"" style='width:60%;'><p style='font-weight:bold;'>Does the middle word sound more like the first word (A) or the last word (B)?</p> <br> <div class=""container""> <div id=""a-box""> <p class=""title-text"">A</h3></p> </div> <div id=""x-box""> <p class=""title-text"">X<p> </div> <div id=""b-box""> <p class=""title-text"">B</p></div> <br> <div style='float: left;padding-left:30px;'><p>Press '1' for A</p></div><div style='float: right;padding-right:30px;'><p>Press '0' for B</p> </div> </div></div>","null","","","","","","","","","","","","","",""
"3091","","test","audio-keyboard-response","159","787141","0.0-8.0-1.65","58ac91c38bf22a00015b91b3","condB","","resources/audio/wordStim/S9_AU_14_bxa_Step-5.wav","48","","","","","AU","resources/audio/wordStim/S9_AU_14_bxa_Step-5.wav","S9","14","bxa","5","CN","1","0","false"
"null","","fixation","html-keyboard-response","160","788145","0.0-8.0-0.66","58ac91c38bf22a00015b91b3","condB","","<div class=""vertical-center"" style='width:60%;'><p style='font-weight:bold;'>Does the middle word sound more like the first word (A) or the last word (B)?</p> <br> <div class=""container""> <div id=""a-box""> <p class=""title-text"">A</h3></p> </div> <div id=""x-box""> <p class=""title-text"">X<p> </div> <div id=""b-box""> <p class=""title-text"">B</p></div> <br> <div style='float: left;padding-left:30px;'><p>Press '1' for A</p></div><div style='float: right;padding-right:30px;'><p>Press '0' for B</p> </div> </div></div>","null","","","","","","","","","","","","","",""
"3149","","test","audio-keyboard-response","161","791296","0.0-8.0-1.66","58ac91c38bf22a00015b91b3","condB","","resources/audio/wordStim/S9_AI_30_axb_Step-4.wav","49","","","","","AI","resources/audio/wordStim/S9_AI_30_axb_Step-4.wav","S9","30","axb","4","CN","0","1","false"
"null","","fixation","html-keyboard-response","162","792298","0.0-8.0-0.67","58ac91c38bf22a00015b91b3","condB","","<div class=""vertical-center"" style='width:60%;'><p style='font-weight:bold;'>Does the middle word sound more like the first word (A) or the last word (B)?</p> <br> <div class=""container""> <div id=""a-box""> <p class=""title-text"">A</h3></p> </div> <div id=""x-box""> <p class=""title-text"">X<p> </div> <div id=""b-box""> <p class=""title-text"">B</p></div> <br> <div style='float: left;padding-left:30px;'><p>Press '1' for A</p></div><div style='float: right;padding-right:30px;'><p>Press '0' for B</p> </div> </div></div>","null","","","","","","","","","","","","","",""
"3491","","test","audio-keyboard-response","163","795786","0.0-8.0-1.67","58ac91c38bf22a00015b91b3","condB","","resources/audio/wordStim/S3_AI_23_bxa_Step-7.wav","48","","","","","AI","resources/audio/wordStim/S3_AI_23_bxa_Step-7.wav","S3","23","bxa","7","MI","1","0","false"
"null","","fixation","html-keyboard-response","164","796788","0.0-8.0-0.68","58ac91c38bf22a00015b91b3","condB","","<div class=""vertical-center"" style='width:60%;'><p style='font-weight:bold;'>Does the middle word sound more like the first word (A) or the last word (B)?</p> <br> <div class=""container""> <div id=""a-box""> <p class=""title-text"">A</h3></p> </div> <div id=""x-box""> <p class=""title-text"">X<p> </div> <div id=""b-box""> <p class=""title-text"">B</p></div> <br> <div style='float: left;padding-left:30px;'><p>Press '1' for A</p></div><div style='float: right;padding-right:30px;'><p>Press '0' for B</p> </div> </div></div>","null","","","","","","","","","","","","","",""
"2611","","test","audio-keyboard-response","165","799395","0.0-8.0-1.68","58ac91c38bf22a00015b91b3","condB","","resources/audio/wordStim/S9_AU_16_axb_Step-4.wav","49","","","","","AU","resources/audio/wordStim/S9_AU_16_axb_Step-4.wav","S9","16","axb","4","CN","0","1","false"
"null","","fixation","html-keyboard-response","166","800398","0.0-8.0-0.69","58ac91c38bf22a00015b91b3","condB","","<div class=""vertical-center"" style='width:60%;'><p style='font-weight:bold;'>Does the middle word sound more like the first word (A) or the last word (B)?</p> <br> <div class=""container""> <div id=""a-box""> <p class=""title-text"">A</h3></p> </div> <div id=""x-box""> <p class=""title-text"">X<p> </div> <div id=""b-box""> <p class=""title-text"">B</p></div> <br> <div style='float: left;padding-left:30px;'><p>Press '1' for A</p></div><div style='float: right;padding-right:30px;'><p>Press '0' for B</p> </div> </div></div>","null","","","","","","","","","","","","","",""
"5288","","test","audio-keyboard-response","167","805690","0.0-8.0-1.69","58ac91c38bf22a00015b91b3","condB","","resources/audio/wordStim/S3_AU_18_bxa_Step-7.wav","48","","","","","AU","resources/audio/wordStim/S3_AU_18_bxa_Step-7.wav","S3","18","bxa","7","MI","1","0","false"
"null","","fixation","html-keyboard-response","168","806692","0.0-8.0-0.70","58ac91c38bf22a00015b91b3","condB","","<div class=""vertical-center"" style='width:60%;'><p style='font-weight:bold;'>Does the middle word sound more like the first word (A) or the last word (B)?</p> <br> <div class=""container""> <div id=""a-box""> <p class=""title-text"">A</h3></p> </div> <div id=""x-box""> <p class=""title-text"">X<p> </div> <div id=""b-box""> <p class=""title-text"">B</p></div> <br> <div style='float: left;padding-left:30px;'><p>Press '1' for A</p></div><div style='float: right;padding-right:30px;'><p>Press '0' for B</p> </div> </div></div>","null","","","","","","","","","","","","","",""
"2931","","test","audio-keyboard-response","169","809629","0.0-8.0-1.70","58ac91c38bf22a00015b91b3","condB","","resources/audio/wordStim/S9_AI_29_axb_Step-2.wav","49","","","","","AI","resources/audio/wordStim/S9_AI_29_axb_Step-2.wav","S9","29","axb","2","CN","0","1","false"
"null","","fixation","html-keyboard-response","170","810632","0.0-8.0-0.71","58ac91c38bf22a00015b91b3","condB","","<div class=""vertical-center"" style='width:60%;'><p style='font-weight:bold;'>Does the middle word sound more like the first word (A) or the last word (B)?</p> <br> <div class=""container""> <div id=""a-box""> <p class=""title-text"">A</h3></p> </div> <div id=""x-box""> <p class=""title-text"">X<p> </div> <div id=""b-box""> <p class=""title-text"">B</p></div> <br> <div style='float: left;padding-left:30px;'><p>Press '1' for A</p></div><div style='float: right;padding-right:30px;'><p>Press '0' for B</p> </div> </div></div>","null","","","","","","","","","","","","","",""
"2859","","test","audio-keyboard-response","171","813498","0.0-8.0-1.71","58ac91c38bf22a00015b91b3","condB","","resources/audio/wordStim/S9_AU_17_bxa_Step-10.wav","49","","","","","AU","resources/audio/wordStim/S9_AU_17_bxa_Step-10.wav","S9","17","bxa","10","CN","1","1","true"
"null","","fixation","html-keyboard-response","172","814502","0.0-8.0-0.72","58ac91c38bf22a00015b91b3","condB","","<div class=""vertical-center"" style='width:60%;'><p style='font-weight:bold;'>Does the middle word sound more like the first word (A) or the last word (B)?</p> <br> <div class=""container""> <div id=""a-box""> <p class=""title-text"">A</h3></p> </div> <div id=""x-box""> <p class=""title-text"">X<p> </div> <div id=""b-box""> <p class=""title-text"">B</p></div> <br> <div style='float: left;padding-left:30px;'><p>Press '1' for A</p></div><div style='float: right;padding-right:30px;'><p>Press '0' for B</p> </div> </div></div>","null","","","","","","","","","","","","","",""
"2920","","test","audio-keyboard-response","173","817423","0.0-8.0-1.72","58ac91c38bf22a00015b91b3","condB","","resources/audio/wordStim/S9_AU_19_bxa_Step-10.wav","49","","","","","AU","resources/audio/wordStim/S9_AU_19_bxa_Step-10.wav","S9","19","bxa","10","CN","1","1","true"
"null","","fixation","html-keyboard-response","174","818426","0.0-8.0-0.73","58ac91c38bf22a00015b91b3","condB","","<div class=""vertical-center"" style='width:60%;'><p style='font-weight:bold;'>Does the middle word sound more like the first word (A) or the last word (B)?</p> <br> <div class=""container""> <div id=""a-box""> <p class=""title-text"">A</h3></p> </div> <div id=""x-box""> <p class=""title-text"">X<p> </div> <div id=""b-box""> <p class=""title-text"">B</p></div> <br> <div style='float: left;padding-left:30px;'><p>Press '1' for A</p></div><div style='float: right;padding-right:30px;'><p>Press '0' for B</p> </div> </div></div>","null","","","","","","","","","","","","","",""
"3069","","test","audio-keyboard-response","175","821497","0.0-8.0-1.73","58ac91c38bf22a00015b91b3","condB","","resources/audio/wordStim/S9_AI_30_bxa_Step-7.wav","48","","","","","AI","resources/audio/wordStim/S9_AI_30_bxa_Step-7.wav","S9","30","bxa","7","CN","1","0","false"
"null","","fixation","html-keyboard-response","176","822499","0.0-8.0-0.74","58ac91c38bf22a00015b91b3","condB","","<div class=""vertical-center"" style='width:60%;'><p style='font-weight:bold;'>Does the middle word sound more like the first word (A) or the last word (B)?</p> <br> <div class=""container""> <div id=""a-box""> <p class=""title-text"">A</h3></p> </div> <div id=""x-box""> <p class=""title-text"">X<p> </div> <div id=""b-box""> <p class=""title-text"">B</p></div> <br> <div style='float: left;padding-left:30px;'><p>Press '1' for A</p></div><div style='float: right;padding-right:30px;'><p>Press '0' for B</p> </div> </div></div>","null","","","","","","","","","","","","","",""
"3069","","test","audio-keyboard-response","177","825572","0.0-8.0-1.74","58ac91c38bf22a00015b91b3","condB","","resources/audio/wordStim/S9_AU_13_axb_Step-6.wav","48","","","","","AU","resources/audio/wordStim/S9_AU_13_axb_Step-6.wav","S9","13","axb","6","CN","0","0","true"
"null","","fixation","html-keyboard-response","178","826575","0.0-8.0-0.75","58ac91c38bf22a00015b91b3","condB","","<div class=""vertical-center"" style='width:60%;'><p style='font-weight:bold;'>Does the middle word sound more like the first word (A) or the last word (B)?</p> <br> <div class=""container""> <div id=""a-box""> <p class=""title-text"">A</h3></p> </div> <div id=""x-box""> <p class=""title-text"">X<p> </div> <div id=""b-box""> <p class=""title-text"">B</p></div> <br> <div style='float: left;padding-left:30px;'><p>Press '1' for A</p></div><div style='float: right;padding-right:30px;'><p>Press '0' for B</p> </div> </div></div>","null","","","","","","","","","","","","","",""
"4101","","test","audio-keyboard-response","179","830674","0.0-8.0-1.75","58ac91c38bf22a00015b91b3","condB","","resources/audio/wordStim/S3_AU_11_bxa_Step-7.wav","48","","","","","AU","resources/audio/wordStim/S3_AU_11_bxa_Step-7.wav","S3","11","bxa","7","MI","1","0","false"
"null","","fixation","html-keyboard-response","180","831677","0.0-8.0-0.76","58ac91c38bf22a00015b91b3","condB","","<div class=""vertical-center"" style='width:60%;'><p style='font-weight:bold;'>Does the middle word sound more like the first word (A) or the last word (B)?</p> <br> <div class=""container""> <div id=""a-box""> <p class=""title-text"">A</h3></p> </div> <div id=""x-box""> <p class=""title-text"">X<p> </div> <div id=""b-box""> <p class=""title-text"">B</p></div> <br> <div style='float: left;padding-left:30px;'><p>Press '1' for A</p></div><div style='float: right;padding-right:30px;'><p>Press '0' for B</p> </div> </div></div>","null","","","","","","","","","","","","","",""
"2819","","test","audio-keyboard-response","181","834493","0.0-8.0-1.76","58ac91c38bf22a00015b91b3","condB","","resources/audio/wordStim/S3_AU_19_axb_Step-8.wav","49","","","","","AU","resources/audio/wordStim/S3_AU_19_axb_Step-8.wav","S3","19","axb","8","MI","0","1","false"
"null","","fixation","html-keyboard-response","182","835496","0.0-8.0-0.77","58ac91c38bf22a00015b91b3","condB","","<div class=""vertical-center"" style='width:60%;'><p style='font-weight:bold;'>Does the middle word sound more like the first word (A) or the last word (B)?</p> <br> <div class=""container""> <div id=""a-box""> <p class=""title-text"">A</h3></p> </div> <div id=""x-box""> <p class=""title-text"">X<p> </div> <div id=""b-box""> <p class=""title-text"">B</p></div> <br> <div style='float: left;padding-left:30px;'><p>Press '1' for A</p></div><div style='float: right;padding-right:30px;'><p>Press '0' for B</p> </div> </div></div>","null","","","","","","","","","","","","","",""
"3309","","test","audio-keyboard-response","183","838809","0.0-8.0-1.77","58ac91c38bf22a00015b91b3","condB","","resources/audio/wordStim/S9_AU_11_axb_Step-2.wav","49","","","","","AU","resources/audio/wordStim/S9_AU_11_axb_Step-2.wav","S9","11","axb","2","CN","0","1","false"
"null","","fixation","html-keyboard-response","184","839810","0.0-8.0-0.78","58ac91c38bf22a00015b91b3","condB","","<div class=""vertical-center"" style='width:60%;'><p style='font-weight:bold;'>Does the middle word sound more like the first word (A) or the last word (B)?</p> <br> <div class=""container""> <div id=""a-box""> <p class=""title-text"">A</h3></p> </div> <div id=""x-box""> <p class=""title-text"">X<p> </div> <div id=""b-box""> <p class=""title-text"">B</p></div> <br> <div style='float: left;padding-left:30px;'><p>Press '1' for A</p></div><div style='float: right;padding-right:30px;'><p>Press '0' for B</p> </div> </div></div>","null","","","","","","","","","","","","","",""
"3331","","test","audio-keyboard-response","185","843134","0.0-8.0-1.78","58ac91c38bf22a00015b91b3","condB","","resources/audio/wordStim/S3_AI_29_axb_Step-2.wav","49","","","","","AI","resources/audio/wordStim/S3_AI_29_axb_Step-2.wav","S3","29","axb","2","MI","0","1","false"
"null","","fixation","html-keyboard-response","186","844137","0.0-8.0-0.79","58ac91c38bf22a00015b91b3","condB","","<div class=""vertical-center"" style='width:60%;'><p style='font-weight:bold;'>Does the middle word sound more like the first word (A) or the last word (B)?</p> <br> <div class=""container""> <div id=""a-box""> <p class=""title-text"">A</h3></p> </div> <div id=""x-box""> <p class=""title-text"">X<p> </div> <div id=""b-box""> <p class=""title-text"">B</p></div> <br> <div style='float: left;padding-left:30px;'><p>Press '1' for A</p></div><div style='float: right;padding-right:30px;'><p>Press '0' for B</p> </div> </div></div>","null","","","","","","","","","","","","","",""
"3691","","test","audio-keyboard-response","187","847830","0.0-8.0-1.79","58ac91c38bf22a00015b91b3","condB","","resources/audio/wordStim/S3_AU_16_axb_Step-4.wav","49","","","","","AU","resources/audio/wordStim/S3_AU_16_axb_Step-4.wav","S3","16","axb","4","MI","0","1","false"
"null","","fixation","html-keyboard-response","188","848832","0.0-8.0-0.80","58ac91c38bf22a00015b91b3","condB","","<div class=""vertical-center"" style='width:60%;'><p style='font-weight:bold;'>Does the middle word sound more like the first word (A) or the last word (B)?</p> <br> <div class=""container""> <div id=""a-box""> <p class=""title-text"">A</h3></p> </div> <div id=""x-box""> <p class=""title-text"">X<p> </div> <div id=""b-box""> <p class=""title-text"">B</p></div> <br> <div style='float: left;padding-left:30px;'><p>Press '1' for A</p></div><div style='float: right;padding-right:30px;'><p>Press '0' for B</p> </div> </div></div>","null","","","","","","","","","","","","","",""
"4549","","test","audio-keyboard-response","189","853388","0.0-8.0-1.80","58ac91c38bf22a00015b91b3","condB","","resources/audio/wordStim/S9_AU_20_bxa_Step-7.wav","49","","","","","AU","resources/audio/wordStim/S9_AU_20_bxa_Step-7.wav","S9","20","bxa","7","CN","1","1","true"
"2176.2950000120327","","break","html-keyboard-response","190","856065","0.0-8.0-2.80-0.80","58ac91c38bf22a00015b91b3","condB","","<div class=""vertical-center""><p>Feel free to take a break!</p><i>When you're ready to continue, press SPACE to begin the next trial.</i></p></div>","32","","","","","","","","","","","","","",""
"null","","fixation","html-keyboard-response","191","856566","0.0-8.0-0.81","58ac91c38bf22a00015b91b3","condB","","<div class=""vertical-center"" style='width:60%;'><p style='font-weight:bold;'>Does the middle word sound more like the first word (A) or the last word (B)?</p> <br> <div class=""container""> <div id=""a-box""> <p class=""title-text"">A</h3></p> </div> <div id=""x-box""> <p class=""title-text"">X<p> </div> <div id=""b-box""> <p class=""title-text"">B</p></div> <br> <div style='float: left;padding-left:30px;'><p>Press '1' for A</p></div><div style='float: right;padding-right:30px;'><p>Press '0' for B</p> </div> </div></div>","null","","","","","","","","","","","","","",""
"2920","","test","audio-keyboard-response","192","859483","0.0-8.0-1.81","58ac91c38bf22a00015b91b3","condB","","resources/audio/wordStim/S3_AU_19_bxa_Step-5.wav","49","","","","","AU","resources/audio/wordStim/S3_AU_19_bxa_Step-5.wav","S3","19","bxa","5","MI","1","1","true"
"null","","fixation","html-keyboard-response","193","860485","0.0-8.0-0.82","58ac91c38bf22a00015b91b3","condB","","<div class=""vertical-center"" style='width:60%;'><p style='font-weight:bold;'>Does the middle word sound more like the first word (A) or the last word (B)?</p> <br> <div class=""container""> <div id=""a-box""> <p class=""title-text"">A</h3></p> </div> <div id=""x-box""> <p class=""title-text"">X<p> </div> <div id=""b-box""> <p class=""title-text"">B</p></div> <br> <div style='float: left;padding-left:30px;'><p>Press '1' for A</p></div><div style='float: right;padding-right:30px;'><p>Press '0' for B</p> </div> </div></div>","null","","","","","","","","","","","","","",""
"3861","","test","audio-keyboard-response","194","864344","0.0-8.0-1.82","58ac91c38bf22a00015b91b3","condB","","resources/audio/wordStim/S9_AU_18_bxa_Step-7.wav","49","","","","","AU","resources/audio/wordStim/S9_AU_18_bxa_Step-7.wav","S9","18","bxa","7","CN","1","1","true"
"null","","fixation","html-keyboard-response","195","865345","0.0-8.0-0.83","58ac91c38bf22a00015b91b3","condB","","<div class=""vertical-center"" style='width:60%;'><p style='font-weight:bold;'>Does the middle word sound more like the first word (A) or the last word (B)?</p> <br> <div class=""container""> <div id=""a-box""> <p class=""title-text"">A</h3></p> </div> <div id=""x-box""> <p class=""title-text"">X<p> </div> <div id=""b-box""> <p class=""title-text"">B</p></div> <br> <div style='float: left;padding-left:30px;'><p>Press '1' for A</p></div><div style='float: right;padding-right:30px;'><p>Press '0' for B</p> </div> </div></div>","null","","","","","","","","","","","","","",""
"3531","","test","audio-keyboard-response","196","868875","0.0-8.0-1.83","58ac91c38bf22a00015b91b3","condB","","resources/audio/wordStim/S3_AU_14_bxa_Step-9.wav","49","","","","","AU","resources/audio/wordStim/S3_AU_14_bxa_Step-9.wav","S3","14","bxa","9","MI","1","1","true"
"null","","fixation","html-keyboard-response","197","869878","0.0-8.0-0.84","58ac91c38bf22a00015b91b3","condB","","<div class=""vertical-center"" style='width:60%;'><p style='font-weight:bold;'>Does the middle word sound more like the first word (A) or the last word (B)?</p> <br> <div class=""container""> <div id=""a-box""> <p class=""title-text"">A</h3></p> </div> <div id=""x-box""> <p class=""title-text"">X<p> </div> <div id=""b-box""> <p class=""title-text"">B</p></div> <br> <div style='float: left;padding-left:30px;'><p>Press '1' for A</p></div><div style='float: right;padding-right:30px;'><p>Press '0' for B</p> </div> </div></div>","null","","","","","","","","","","","","","",""
"3320","","test","audio-keyboard-response","198","873195","0.0-8.0-1.84","58ac91c38bf22a00015b91b3","condB","","resources/audio/wordStim/S3_AU_20_axb_Step-8.wav","49","","","","","AU","resources/audio/wordStim/S3_AU_20_axb_Step-8.wav","S3","20","axb","8","MI","0","1","false"
"null","","fixation","html-keyboard-response","199","874197","0.0-8.0-0.85","58ac91c38bf22a00015b91b3","condB","","<div class=""vertical-center"" style='width:60%;'><p style='font-weight:bold;'>Does the middle word sound more like the first word (A) or the last word (B)?</p> <br> <div class=""container""> <div id=""a-box""> <p class=""title-text"">A</h3></p> </div> <div id=""x-box""> <p class=""title-text"">X<p> </div> <div id=""b-box""> <p class=""title-text"">B</p></div> <br> <div style='float: left;padding-left:30px;'><p>Press '1' for A</p></div><div style='float: right;padding-right:30px;'><p>Press '0' for B</p> </div> </div></div>","null","","","","","","","","","","","","","",""
"3240","","test","audio-keyboard-response","200","877435","0.0-8.0-1.85","58ac91c38bf22a00015b91b3","condB","","resources/audio/wordStim/S3_AI_23_axb_Step-8.wav","49","","","","","AI","resources/audio/wordStim/S3_AI_23_axb_Step-8.wav","S3","23","axb","8","MI","0","1","false"
"null","","fixation","html-keyboard-response","201","878437","0.0-8.0-0.86","58ac91c38bf22a00015b91b3","condB","","<div class=""vertical-center"" style='width:60%;'><p style='font-weight:bold;'>Does the middle word sound more like the first word (A) or the last word (B)?</p> <br> <div class=""container""> <div id=""a-box""> <p class=""title-text"">A</h3></p> </div> <div id=""x-box""> <p class=""title-text"">X<p> </div> <div id=""b-box""> <p class=""title-text"">B</p></div> <br> <div style='float: left;padding-left:30px;'><p>Press '1' for A</p></div><div style='float: right;padding-right:30px;'><p>Press '0' for B</p> </div> </div></div>","null","","","","","","","","","","","","","",""
"3088","","test","audio-keyboard-response","202","881529","0.0-8.0-1.86","58ac91c38bf22a00015b91b3","condB","","resources/audio/wordStim/S3_AI_22_bxa_Step-10.wav","49","","","","","AI","resources/audio/wordStim/S3_AI_22_bxa_Step-10.wav","S3","22","bxa","10","MI","1","1","true"
"null","","fixation","html-keyboard-response","203","882533","0.0-8.0-0.87","58ac91c38bf22a00015b91b3","condB","","<div class=""vertical-center"" style='width:60%;'><p style='font-weight:bold;'>Does the middle word sound more like the first word (A) or the last word (B)?</p> <br> <div class=""container""> <div id=""a-box""> <p class=""title-text"">A</h3></p> </div> <div id=""x-box""> <p class=""title-text"">X<p> </div> <div id=""b-box""> <p class=""title-text"">B</p></div> <br> <div style='float: left;padding-left:30px;'><p>Press '1' for A</p></div><div style='float: right;padding-right:30px;'><p>Press '0' for B</p> </div> </div></div>","null","","","","","","","","","","","","","",""
"2971","","test","audio-keyboard-response","204","885505","0.0-8.0-1.87","58ac91c38bf22a00015b91b3","condB","","resources/audio/wordStim/S9_AI_27_axb_Step-8.wav","48","","","","","AI","resources/audio/wordStim/S9_AI_27_axb_Step-8.wav","S9","27","axb","8","CN","0","0","true"
"null","","fixation","html-keyboard-response","205","886508","0.0-8.0-0.88","58ac91c38bf22a00015b91b3","condB","","<div class=""vertical-center"" style='width:60%;'><p style='font-weight:bold;'>Does the middle word sound more like the first word (A) or the last word (B)?</p> <br> <div class=""container""> <div id=""a-box""> <p class=""title-text"">A</h3></p> </div> <div id=""x-box""> <p class=""title-text"">X<p> </div> <div id=""b-box""> <p class=""title-text"">B</p></div> <br> <div style='float: left;padding-left:30px;'><p>Press '1' for A</p></div><div style='float: right;padding-right:30px;'><p>Press '0' for B</p> </div> </div></div>","null","","","","","","","","","","","","","",""
"3531","","test","audio-keyboard-response","206","890034","0.0-8.0-1.88","58ac91c38bf22a00015b91b3","condB","","resources/audio/wordStim/S3_AU_17_bxa_Step-9.wav","49","","","","","AU","resources/audio/wordStim/S3_AU_17_bxa_Step-9.wav","S3","17","bxa","9","MI","1","1","true"
"null","","fixation","html-keyboard-response","207","891037","0.0-8.0-0.89","58ac91c38bf22a00015b91b3","condB","","<div class=""vertical-center"" style='width:60%;'><p style='font-weight:bold;'>Does the middle word sound more like the first word (A) or the last word (B)?</p> <br> <div class=""container""> <div id=""a-box""> <p class=""title-text"">A</h3></p> </div> <div id=""x-box""> <p class=""title-text"">X<p> </div> <div id=""b-box""> <p class=""title-text"">B</p></div> <br> <div style='float: left;padding-left:30px;'><p>Press '1' for A</p></div><div style='float: right;padding-right:30px;'><p>Press '0' for B</p> </div> </div></div>","null","","","","","","","","","","","","","",""
"3680","","test","audio-keyboard-response","208","894716","0.0-8.0-1.89","58ac91c38bf22a00015b91b3","condB","","resources/audio/wordStim/S3_AU_16_axb_Step-6.wav","49","","","","","AU","resources/audio/wordStim/S3_AU_16_axb_Step-6.wav","S3","16","axb","6","MI","0","1","false"
"null","","fixation","html-keyboard-response","209","895719","0.0-8.0-0.90","58ac91c38bf22a00015b91b3","condB","","<div class=""vertical-center"" style='width:60%;'><p style='font-weight:bold;'>Does the middle word sound more like the first word (A) or the last word (B)?</p> <br> <div class=""container""> <div id=""a-box""> <p class=""title-text"">A</h3></p> </div> <div id=""x-box""> <p class=""title-text"">X<p> </div> <div id=""b-box""> <p class=""title-text"">B</p></div> <br> <div style='float: left;padding-left:30px;'><p>Press '1' for A</p></div><div style='float: right;padding-right:30px;'><p>Press '0' for B</p> </div> </div></div>","null","","","","","","","","","","","","","",""
"3059","","test","audio-keyboard-response","210","898775","0.0-8.0-1.90","58ac91c38bf22a00015b91b3","condB","","resources/audio/wordStim/S9_AU_14_bxa_Step-10.wav","48","","","","","AU","resources/audio/wordStim/S9_AU_14_bxa_Step-10.wav","S9","14","bxa","10","CN","1","0","false"
"null","","fixation","html-keyboard-response","211","899778","0.0-8.0-0.91","58ac91c38bf22a00015b91b3","condB","","<div class=""vertical-center"" style='width:60%;'><p style='font-weight:bold;'>Does the middle word sound more like the first word (A) or the last word (B)?</p> <br> <div class=""container""> <div id=""a-box""> <p class=""title-text"">A</h3></p> </div> <div id=""x-box""> <p class=""title-text"">X<p> </div> <div id=""b-box""> <p class=""title-text"">B</p></div> <br> <div style='float: left;padding-left:30px;'><p>Press '1' for A</p></div><div style='float: right;padding-right:30px;'><p>Press '0' for B</p> </div> </div></div>","null","","","","","","","","","","","","","",""
"3811","","test","audio-keyboard-response","212","903582","0.0-8.0-1.91","58ac91c38bf22a00015b91b3","condB","","resources/audio/wordStim/S3_AU_17_bxa_Step-7.wav","48","","","","","AU","resources/audio/wordStim/S3_AU_17_bxa_Step-7.wav","S3","17","bxa","7","MI","1","0","false"
"null","","fixation","html-keyboard-response","213","904585","0.0-8.0-0.92","58ac91c38bf22a00015b91b3","condB","","<div class=""vertical-center"" style='width:60%;'><p style='font-weight:bold;'>Does the middle word sound more like the first word (A) or the last word (B)?</p> <br> <div class=""container""> <div id=""a-box""> <p class=""title-text"">A</h3></p> </div> <div id=""x-box""> <p class=""title-text"">X<p> </div> <div id=""b-box""> <p class=""title-text"">B</p></div> <br> <div style='float: left;padding-left:30px;'><p>Press '1' for A</p></div><div style='float: right;padding-right:30px;'><p>Press '0' for B</p> </div> </div></div>","null","","","","","","","","","","","","","",""
"3811","","test","audio-keyboard-response","214","908398","0.0-8.0-1.92","58ac91c38bf22a00015b91b3","condB","","resources/audio/wordStim/S3_AI_22_bxa_Step-5.wav","48","","","","","AI","resources/audio/wordStim/S3_AI_22_bxa_Step-5.wav","S3","22","bxa","5","MI","1","0","false"
