"rt","url","trial_role","trial_type","trial_index","time_elapsed","internal_node_id","participantId","condition","view_history","stimulus","key_press","button_pressed","correct_answer","correct_response","success","vowel","wordStim","speaker","sentNum","order","step","speakerIdentity","raised_answer","key_response","raised_response"
"4768.619999988005","micr.con.consent.html","consent","external-html","0","4804","0.0-0.0","5d8108c0a6d2bf001afdb2d9","condB","","","","","","","","","","","","","","","","",""
"28472.13999996893","","instructions","instructions","1","33279","0.0-1.0","5d8108c0a6d2bf001afdb2d9","condB","[{""page_index"":0,""viewing_time"":12141.719999955967},{""page_index"":1,""viewing_time"":8613.765000016429},{""page_index"":2,""viewing_time"":7716.140000033192}]","","","","","","","","","","","","","","","",""
"null","","fixation","html-keyboard-response","2","33781","0.0-2.0-0.0","5d8108c0a6d2bf001afdb2d9","condB","","<div class=""vertical-center"" style=""font-size:60px;"">+</div>","null","","","","","","","","","","","","","",""
"4485.905000008643","","tonetest","audio-button-response","3","38268","0.0-2.0-1.0","5d8108c0a6d2bf001afdb2d9","condB","","../../src/audio/toneTest_5.wav","","0","0","true","","","","","","","","","","",""
"null","","fixation","html-keyboard-response","4","38770","0.0-2.0-0.1","5d8108c0a6d2bf001afdb2d9","condB","","<div class=""vertical-center"" style=""font-size:60px;"">+</div>","null","","","","","","","","","","","","","",""
"4417.654999997467","","tonetest","audio-button-response","5","43188","0.0-2.0-1.1","5d8108c0a6d2bf001afdb2d9","condB","","../../src/audio/toneTest_6.wav","","0","0","true","","","","","","","","","","",""
"null","","fixation","html-keyboard-response","6","43689","0.0-2.0-0.2","5d8108c0a6d2bf001afdb2d9","condB","","<div class=""vertical-center"" style=""font-size:60px;"">+</div>","null","","","","","","","","","","","","","",""
"4400.634999969043","","tonetest","audio-button-response","7","48091","0.0-2.0-1.2","5d8108c0a6d2bf001afdb2d9","condB","","../../src/audio/toneTest_6.wav","","0","0","true","","","","","","","","","","",""
"null","","fixation","html-keyboard-response","8","48602","0.0-2.0-0.3","5d8108c0a6d2bf001afdb2d9","condB","","<div class=""vertical-center"" style=""font-size:60px;"">+</div>","null","","","","","","","","","","","","","",""
"4688.39000002481","","tonetest","audio-button-response","9","53292","0.0-2.0-1.3","5d8108c0a6d2bf001afdb2d9","condB","","../../src/audio/toneTest_6.wav","","0","0","true","","","","","","","","","","",""
"null","","fixation","html-keyboard-response","10","53792","0.0-2.0-0.4","5d8108c0a6d2bf001afdb2d9","condB","","<div class=""vertical-center"" style=""font-size:60px;"">+</div>","null","","","","","","","","","","","","","",""
"3915.3349999687634","","tonetest","audio-button-response","11","57709","0.0-2.0-1.4","5d8108c0a6d2bf001afdb2d9","condB","","../../src/audio/toneTest_1.wav","","2","2","true","","","","","","","","","","",""
"null","","fixation","html-keyboard-response","12","58210","0.0-2.0-0.5","5d8108c0a6d2bf001afdb2d9","condB","","<div class=""vertical-center"" style=""font-size:60px;"">+</div>","null","","","","","","","","","","","","","",""
"3728.275000001304","","tonetest","audio-button-response","13","61938","0.0-2.0-1.5","5d8108c0a6d2bf001afdb2d9","condB","","../../src/audio/toneTest_2.wav","","1","1","true","","","","","","","","","","",""
"6657.430000021122","","instructions","html-keyboard-response","14","68597","0.0-3.0","5d8108c0a6d2bf001afdb2d9","condB","","<div class=""vertical-center""><p><b>Your score was 6/6.</b></p><p>If you scored below 6, please ensure that you are wearing properly functioning headphones and in a quiet location free of distractions.</p><p><i>To continue to the main experiment, press SPACE.</i></p></div>","32","","","","","","","","","","","","","",""
"","","","fullscreen","15","71757","0.0-4.0","5d8108c0a6d2bf001afdb2d9","condB","","","","","","","true","","","","","","","","","",""
"25919.845000025816","","instructions","instructions","16","97677","0.0-5.0","5d8108c0a6d2bf001afdb2d9","condB","[{""page_index"":0,""viewing_time"":25919.745000021067}]","","","","","","","","","","","","","","","",""
"null","","fixation","html-keyboard-response","17","98179","0.0-6.0-0.0","5d8108c0a6d2bf001afdb2d9","condB","","<div class=""vertical-center"" style='width:60%;'><p style='font-weight:bold;'>Does the middle word sound more like the first word (A) or the last word (B)?</p> <br> <div class=""container""> <div id=""a-box""> <p class=""title-text"">A</h3></p> </div> <div id=""x-box""> <p class=""title-text"">X<p> </div> <div id=""b-box""> <p class=""title-text"">B</p></div> <br> <div style='float: left;padding-left:30px;'><p>Press '1' for A</p></div><div style='float: right;padding-right:30px;'><p>Press '0' for B</p> </div> </div></div>","null","","","","","","","","","","","","","",""
"10960","","practice","audio-keyboard-response","18","109133","0.0-6.0-1.0","5d8108c0a6d2bf001afdb2d9","condB","","resources/audio/practiceStim/S1_AI_21_axb_Step-6.wav","49","","","","","","","","","","","","","",""
"null","","fixation","html-keyboard-response","19","110151","0.0-6.0-0.1","5d8108c0a6d2bf001afdb2d9","condB","","<div class=""vertical-center"" style='width:60%;'><p style='font-weight:bold;'>Does the middle word sound more like the first word (A) or the last word (B)?</p> <br> <div class=""container""> <div id=""a-box""> <p class=""title-text"">A</h3></p> </div> <div id=""x-box""> <p class=""title-text"">X<p> </div> <div id=""b-box""> <p class=""title-text"">B</p></div> <br> <div style='float: left;padding-left:30px;'><p>Press '1' for A</p></div><div style='float: right;padding-right:30px;'><p>Press '0' for B</p> </div> </div></div>","null","","","","","","","","","","","","","",""
"3171","","practice","audio-keyboard-response","20","113324","0.0-6.0-1.1","5d8108c0a6d2bf001afdb2d9","condB","","resources/audio/practiceStim/S1_AI_21_bxa_Step-6.wav","48","","","","","","","","","","","","","",""
"null","","fixation","html-keyboard-response","21","114338","0.0-6.0-0.2","5d8108c0a6d2bf001afdb2d9","condB","","<div class=""vertical-center"" style='width:60%;'><p style='font-weight:bold;'>Does the middle word sound more like the first word (A) or the last word (B)?</p> <br> <div class=""container""> <div id=""a-box""> <p class=""title-text"">A</h3></p> </div> <div id=""x-box""> <p class=""title-text"">X<p> </div> <div id=""b-box""> <p class=""title-text"">B</p></div> <br> <div style='float: left;padding-left:30px;'><p>Press '1' for A</p></div><div style='float: right;padding-right:30px;'><p>Press '0' for B</p> </div> </div></div>","null","","","","","","","","","","","","","",""
"4040","","practice","audio-keyboard-response","22","118385","0.0-6.0-1.2","5d8108c0a6d2bf001afdb2d9","condB","","resources/audio/practiceStim/S1_AU_14_axb_Step-6.wav","48","","","","","","","","","","","","","",""
"null","","fixation","html-keyboard-response","23","119400","0.0-6.0-0.3","5d8108c0a6d2bf001afdb2d9","condB","","<div class=""vertical-center"" style='width:60%;'><p style='font-weight:bold;'>Does the middle word sound more like the first word (A) or the last word (B)?</p> <br> <div class=""container""> <div id=""a-box""> <p class=""title-text"">A</h3></p> </div> <div id=""x-box""> <p class=""title-text"">X<p> </div> <div id=""b-box""> <p class=""title-text"">B</p></div> <br> <div style='float: left;padding-left:30px;'><p>Press '1' for A</p></div><div style='float: right;padding-right:30px;'><p>Press '0' for B</p> </div> </div></div>","null","","","","","","","","","","","","","",""
"2800","","practice","audio-keyboard-response","24","122200","0.0-6.0-1.3","5d8108c0a6d2bf001afdb2d9","condB","","resources/audio/practiceStim/S1_AU_14_bxa_Step-6.wav","48","","","","","","","","","","","","","",""
"2204.4999999925494","","instructions","instructions","25","124907","0.0-7.0","5d8108c0a6d2bf001afdb2d9","condB","[{""page_index"":0,""viewing_time"":2204.379999951925}]","","","","","","","","","","","","","","","",""
"null","","fixation","html-keyboard-response","26","125421","0.0-8.0-0.0","5d8108c0a6d2bf001afdb2d9","condB","","<div class=""vertical-center"" style='width:60%;'><p style='font-weight:bold;'>Does the middle word sound more like the first word (A) or the last word (B)?</p> <br> <div class=""container""> <div id=""a-box""> <p class=""title-text"">A</h3></p> </div> <div id=""x-box""> <p class=""title-text"">X<p> </div> <div id=""b-box""> <p class=""title-text"">B</p></div> <br> <div style='float: left;padding-left:30px;'><p>Press '1' for A</p></div><div style='float: right;padding-right:30px;'><p>Press '0' for B</p> </div> </div></div>","null","","","","","","","","","","","","","",""
"3621","","test","audio-keyboard-response","27","129038","0.0-8.0-1.0","5d8108c0a6d2bf001afdb2d9","condB","","resources/audio/wordStim/S9_AU_16_bxa_Step-7.wav","49","","","","","AU","resources/audio/wordStim/S9_AU_16_bxa_Step-7.wav","S9","16","bxa","7","CN","1","1","true"
"null","","fixation","html-keyboard-response","28","130066","0.0-8.0-0.1","5d8108c0a6d2bf001afdb2d9","condB","","<div class=""vertical-center"" style='width:60%;'><p style='font-weight:bold;'>Does the middle word sound more like the first word (A) or the last word (B)?</p> <br> <div class=""container""> <div id=""a-box""> <p class=""title-text"">A</h3></p> </div> <div id=""x-box""> <p class=""title-text"">X<p> </div> <div id=""b-box""> <p class=""title-text"">B</p></div> <br> <div style='float: left;padding-left:30px;'><p>Press '1' for A</p></div><div style='float: right;padding-right:30px;'><p>Press '0' for B</p> </div> </div></div>","null","","","","","","","","","","","","","",""
"2651","","test","audio-keyboard-response","29","132726","0.0-8.0-1.1","5d8108c0a6d2bf001afdb2d9","condB","","resources/audio/wordStim/S9_AI_24_bxa_Step-5.wav","48","","","","","AI","resources/audio/wordStim/S9_AI_24_bxa_Step-5.wav","S9","24","bxa","5","CN","1","0","false"
"null","","fixation","html-keyboard-response","30","133750","0.0-8.0-0.2","5d8108c0a6d2bf001afdb2d9","condB","","<div class=""vertical-center"" style='width:60%;'><p style='font-weight:bold;'>Does the middle word sound more like the first word (A) or the last word (B)?</p> <br> <div class=""container""> <div id=""a-box""> <p class=""title-text"">A</h3></p> </div> <div id=""x-box""> <p class=""title-text"">X<p> </div> <div id=""b-box""> <p class=""title-text"">B</p></div> <br> <div style='float: left;padding-left:30px;'><p>Press '1' for A</p></div><div style='float: right;padding-right:30px;'><p>Press '0' for B</p> </div> </div></div>","null","","","","","","","","","","","","","",""
"3371","","test","audio-keyboard-response","31","137125","0.0-8.0-1.2","5d8108c0a6d2bf001afdb2d9","condB","","resources/audio/wordStim/S9_AU_18_bxa_Step-5.wav","49","","","","","AU","resources/audio/wordStim/S9_AU_18_bxa_Step-5.wav","S9","18","bxa","5","CN","1","1","true"
"null","","fixation","html-keyboard-response","32","138134","0.0-8.0-0.3","5d8108c0a6d2bf001afdb2d9","condB","","<div class=""vertical-center"" style='width:60%;'><p style='font-weight:bold;'>Does the middle word sound more like the first word (A) or the last word (B)?</p> <br> <div class=""container""> <div id=""a-box""> <p class=""title-text"">A</h3></p> </div> <div id=""x-box""> <p class=""title-text"">X<p> </div> <div id=""b-box""> <p class=""title-text"">B</p></div> <br> <div style='float: left;padding-left:30px;'><p>Press '1' for A</p></div><div style='float: right;padding-right:30px;'><p>Press '0' for B</p> </div> </div></div>","null","","","","","","","","","","","","","",""
"2848","","test","audio-keyboard-response","33","140979","0.0-8.0-1.3","5d8108c0a6d2bf001afdb2d9","condB","","resources/audio/wordStim/S3_AI_23_axb_Step-2.wav","49","","","","","AI","resources/audio/wordStim/S3_AI_23_axb_Step-2.wav","S3","23","axb","2","MI","0","1","false"
"null","","fixation","html-keyboard-response","34","141998","0.0-8.0-0.4","5d8108c0a6d2bf001afdb2d9","condB","","<div class=""vertical-center"" style='width:60%;'><p style='font-weight:bold;'>Does the middle word sound more like the first word (A) or the last word (B)?</p> <br> <div class=""container""> <div id=""a-box""> <p class=""title-text"">A</h3></p> </div> <div id=""x-box""> <p class=""title-text"">X<p> </div> <div id=""b-box""> <p class=""title-text"">B</p></div> <br> <div style='float: left;padding-left:30px;'><p>Press '1' for A</p></div><div style='float: right;padding-right:30px;'><p>Press '0' for B</p> </div> </div></div>","null","","","","","","","","","","","","","",""
"2899","","test","audio-keyboard-response","35","144897","0.0-8.0-1.4","5d8108c0a6d2bf001afdb2d9","condB","","resources/audio/wordStim/S3_AU_15_axb_Step-4.wav","49","","","","","AU","resources/audio/wordStim/S3_AU_15_axb_Step-4.wav","S3","15","axb","4","MI","0","1","false"
"null","","fixation","html-keyboard-response","36","145909","0.0-8.0-0.5","5d8108c0a6d2bf001afdb2d9","condB","","<div class=""vertical-center"" style='width:60%;'><p style='font-weight:bold;'>Does the middle word sound more like the first word (A) or the last word (B)?</p> <br> <div class=""container""> <div id=""a-box""> <p class=""title-text"">A</h3></p> </div> <div id=""x-box""> <p class=""title-text"">X<p> </div> <div id=""b-box""> <p class=""title-text"">B</p></div> <br> <div style='float: left;padding-left:30px;'><p>Press '1' for A</p></div><div style='float: right;padding-right:30px;'><p>Press '0' for B</p> </div> </div></div>","null","","","","","","","","","","","","","",""
"3251","","test","audio-keyboard-response","37","149166","0.0-8.0-1.5","5d8108c0a6d2bf001afdb2d9","condB","","resources/audio/wordStim/S3_AI_22_axb_Step-2.wav","49","","","","","AI","resources/audio/wordStim/S3_AI_22_axb_Step-2.wav","S3","22","axb","2","MI","0","1","false"
"null","","fixation","html-keyboard-response","38","150191","0.0-8.0-0.6","5d8108c0a6d2bf001afdb2d9","condB","","<div class=""vertical-center"" style='width:60%;'><p style='font-weight:bold;'>Does the middle word sound more like the first word (A) or the last word (B)?</p> <br> <div class=""container""> <div id=""a-box""> <p class=""title-text"">A</h3></p> </div> <div id=""x-box""> <p class=""title-text"">X<p> </div> <div id=""b-box""> <p class=""title-text"">B</p></div> <br> <div style='float: left;padding-left:30px;'><p>Press '1' for A</p></div><div style='float: right;padding-right:30px;'><p>Press '0' for B</p> </div> </div></div>","null","","","","","","","","","","","","","",""
"3080","","test","audio-keyboard-response","39","153268","0.0-8.0-1.6","5d8108c0a6d2bf001afdb2d9","condB","","resources/audio/wordStim/S9_AU_18_bxa_Step-7.wav","49","","","","","AU","resources/audio/wordStim/S9_AU_18_bxa_Step-7.wav","S9","18","bxa","7","CN","1","1","true"
"null","","fixation","html-keyboard-response","40","154284","0.0-8.0-0.7","5d8108c0a6d2bf001afdb2d9","condB","","<div class=""vertical-center"" style='width:60%;'><p style='font-weight:bold;'>Does the middle word sound more like the first word (A) or the last word (B)?</p> <br> <div class=""container""> <div id=""a-box""> <p class=""title-text"">A</h3></p> </div> <div id=""x-box""> <p class=""title-text"">X<p> </div> <div id=""b-box""> <p class=""title-text"">B</p></div> <br> <div style='float: left;padding-left:30px;'><p>Press '1' for A</p></div><div style='float: right;padding-right:30px;'><p>Press '0' for B</p> </div> </div></div>","null","","","","","","","","","","","","","",""
"2320","","test","audio-keyboard-response","41","156601","0.0-8.0-1.7","5d8108c0a6d2bf001afdb2d9","condB","","resources/audio/wordStim/S3_AI_21_axb_Step-2.wav","49","","","","","AI","resources/audio/wordStim/S3_AI_21_axb_Step-2.wav","S3","21","axb","2","MI","0","1","false"
"null","","fixation","html-keyboard-response","42","157614","0.0-8.0-0.8","5d8108c0a6d2bf001afdb2d9","condB","","<div class=""vertical-center"" style='width:60%;'><p style='font-weight:bold;'>Does the middle word sound more like the first word (A) or the last word (B)?</p> <br> <div class=""container""> <div id=""a-box""> <p class=""title-text"">A</h3></p> </div> <div id=""x-box""> <p class=""title-text"">X<p> </div> <div id=""b-box""> <p class=""title-text"">B</p></div> <br> <div style='float: left;padding-left:30px;'><p>Press '1' for A</p></div><div style='float: right;padding-right:30px;'><p>Press '0' for B</p> </div> </div></div>","null","","","","","","","","","","","","","",""
"3149","","test","audio-keyboard-response","43","160763","0.0-8.0-1.8","5d8108c0a6d2bf001afdb2d9","condB","","resources/audio/wordStim/S9_AU_18_axb_Step-2.wav","49","","","","","AU","resources/audio/wordStim/S9_AU_18_axb_Step-2.wav","S9","18","axb","2","CN","0","1","false"
"null","","fixation","html-keyboard-response","44","161770","0.0-8.0-0.9","5d8108c0a6d2bf001afdb2d9","condB","","<div class=""vertical-center"" style='width:60%;'><p style='font-weight:bold;'>Does the middle word sound more like the first word (A) or the last word (B)?</p> <br> <div class=""container""> <div id=""a-box""> <p class=""title-text"">A</h3></p> </div> <div id=""x-box""> <p class=""title-text"">X<p> </div> <div id=""b-box""> <p class=""title-text"">B</p></div> <br> <div style='float: left;padding-left:30px;'><p>Press '1' for A</p></div><div style='float: right;padding-right:30px;'><p>Press '0' for B</p> </div> </div></div>","null","","","","","","","","","","","","","",""
"2488","","test","audio-keyboard-response","45","164266","0.0-8.0-1.9","5d8108c0a6d2bf001afdb2d9","condB","","resources/audio/wordStim/S9_AU_16_axb_Step-2.wav","49","","","","","AU","resources/audio/wordStim/S9_AU_16_axb_Step-2.wav","S9","16","axb","2","CN","0","1","false"
"null","","fixation","html-keyboard-response","46","165273","0.0-8.0-0.10","5d8108c0a6d2bf001afdb2d9","condB","","<div class=""vertical-center"" style='width:60%;'><p style='font-weight:bold;'>Does the middle word sound more like the first word (A) or the last word (B)?</p> <br> <div class=""container""> <div id=""a-box""> <p class=""title-text"">A</h3></p> </div> <div id=""x-box""> <p class=""title-text"">X<p> </div> <div id=""b-box""> <p class=""title-text"">B</p></div> <br> <div style='float: left;padding-left:30px;'><p>Press '1' for A</p></div><div style='float: right;padding-right:30px;'><p>Press '0' for B</p> </div> </div></div>","null","","","","","","","","","","","","","",""
"2861","","test","audio-keyboard-response","47","168137","0.0-8.0-1.10","5d8108c0a6d2bf001afdb2d9","condB","","resources/audio/wordStim/S9_AI_29_bxa_Step-7.wav","49","","","","","AI","resources/audio/wordStim/S9_AI_29_bxa_Step-7.wav","S9","29","bxa","7","CN","1","1","true"
"null","","fixation","html-keyboard-response","48","169153","0.0-8.0-0.11","5d8108c0a6d2bf001afdb2d9","condB","","<div class=""vertical-center"" style='width:60%;'><p style='font-weight:bold;'>Does the middle word sound more like the first word (A) or the last word (B)?</p> <br> <div class=""container""> <div id=""a-box""> <p class=""title-text"">A</h3></p> </div> <div id=""x-box""> <p class=""title-text"">X<p> </div> <div id=""b-box""> <p class=""title-text"">B</p></div> <br> <div style='float: left;padding-left:30px;'><p>Press '1' for A</p></div><div style='float: right;padding-right:30px;'><p>Press '0' for B</p> </div> </div></div>","null","","","","","","","","","","","","","",""
"3211","","test","audio-keyboard-response","49","172359","0.0-8.0-1.11","5d8108c0a6d2bf001afdb2d9","condB","","resources/audio/wordStim/S9_AU_19_axb_Step-6.wav","49","","","","","AU","resources/audio/wordStim/S9_AU_19_axb_Step-6.wav","S9","19","axb","6","CN","0","1","false"
"null","","fixation","html-keyboard-response","50","173374","0.0-8.0-0.12","5d8108c0a6d2bf001afdb2d9","condB","","<div class=""vertical-center"" style='width:60%;'><p style='font-weight:bold;'>Does the middle word sound more like the first word (A) or the last word (B)?</p> <br> <div class=""container""> <div id=""a-box""> <p class=""title-text"">A</h3></p> </div> <div id=""x-box""> <p class=""title-text"">X<p> </div> <div id=""b-box""> <p class=""title-text"">B</p></div> <br> <div style='float: left;padding-left:30px;'><p>Press '1' for A</p></div><div style='float: right;padding-right:30px;'><p>Press '0' for B</p> </div> </div></div>","null","","","","","","","","","","","","","",""
"3429","","test","audio-keyboard-response","51","176801","0.0-8.0-1.12","5d8108c0a6d2bf001afdb2d9","condB","","resources/audio/wordStim/S9_AI_27_axb_Step-2.wav","48","","","","","AI","resources/audio/wordStim/S9_AI_27_axb_Step-2.wav","S9","27","axb","2","CN","0","0","true"
"null","","fixation","html-keyboard-response","52","177814","0.0-8.0-0.13","5d8108c0a6d2bf001afdb2d9","condB","","<div class=""vertical-center"" style='width:60%;'><p style='font-weight:bold;'>Does the middle word sound more like the first word (A) or the last word (B)?</p> <br> <div class=""container""> <div id=""a-box""> <p class=""title-text"">A</h3></p> </div> <div id=""x-box""> <p class=""title-text"">X<p> </div> <div id=""b-box""> <p class=""title-text"">B</p></div> <br> <div style='float: left;padding-left:30px;'><p>Press '1' for A</p></div><div style='float: right;padding-right:30px;'><p>Press '0' for B</p> </div> </div></div>","null","","","","","","","","","","","","","",""
"3229","","test","audio-keyboard-response","53","181043","0.0-8.0-1.13","5d8108c0a6d2bf001afdb2d9","condB","","resources/audio/wordStim/S3_AU_17_bxa_Step-10.wav","49","","","","","AU","resources/audio/wordStim/S3_AU_17_bxa_Step-10.wav","S3","17","bxa","10","MI","1","1","true"
"null","","fixation","html-keyboard-response","54","182060","0.0-8.0-0.14","5d8108c0a6d2bf001afdb2d9","condB","","<div class=""vertical-center"" style='width:60%;'><p style='font-weight:bold;'>Does the middle word sound more like the first word (A) or the last word (B)?</p> <br> <div class=""container""> <div id=""a-box""> <p class=""title-text"">A</h3></p> </div> <div id=""x-box""> <p class=""title-text"">X<p> </div> <div id=""b-box""> <p class=""title-text"">B</p></div> <br> <div style='float: left;padding-left:30px;'><p>Press '1' for A</p></div><div style='float: right;padding-right:30px;'><p>Press '0' for B</p> </div> </div></div>","null","","","","","","","","","","","","","",""
"3072","","test","audio-keyboard-response","55","185129","0.0-8.0-1.14","5d8108c0a6d2bf001afdb2d9","condB","","resources/audio/wordStim/S9_AU_17_bxa_Step-9.wav","49","","","","","AU","resources/audio/wordStim/S9_AU_17_bxa_Step-9.wav","S9","17","bxa","9","CN","1","1","true"
"null","","fixation","html-keyboard-response","56","186142","0.0-8.0-0.15","5d8108c0a6d2bf001afdb2d9","condB","","<div class=""vertical-center"" style='width:60%;'><p style='font-weight:bold;'>Does the middle word sound more like the first word (A) or the last word (B)?</p> <br> <div class=""container""> <div id=""a-box""> <p class=""title-text"">A</h3></p> </div> <div id=""x-box""> <p class=""title-text"">X<p> </div> <div id=""b-box""> <p class=""title-text"">B</p></div> <br> <div style='float: left;padding-left:30px;'><p>Press '1' for A</p></div><div style='float: right;padding-right:30px;'><p>Press '0' for B</p> </div> </div></div>","null","","","","","","","","","","","","","",""
"2992","","test","audio-keyboard-response","57","189133","0.0-8.0-1.15","5d8108c0a6d2bf001afdb2d9","condB","","resources/audio/wordStim/S3_AI_22_bxa_Step-7.wav","49","","","","","AI","resources/audio/wordStim/S3_AI_22_bxa_Step-7.wav","S3","22","bxa","7","MI","1","1","true"
"null","","fixation","html-keyboard-response","58","190153","0.0-8.0-0.16","5d8108c0a6d2bf001afdb2d9","condB","","<div class=""vertical-center"" style='width:60%;'><p style='font-weight:bold;'>Does the middle word sound more like the first word (A) or the last word (B)?</p> <br> <div class=""container""> <div id=""a-box""> <p class=""title-text"">A</h3></p> </div> <div id=""x-box""> <p class=""title-text"">X<p> </div> <div id=""b-box""> <p class=""title-text"">B</p></div> <br> <div style='float: left;padding-left:30px;'><p>Press '1' for A</p></div><div style='float: right;padding-right:30px;'><p>Press '0' for B</p> </div> </div></div>","null","","","","","","","","","","","","","",""
"3221","","test","audio-keyboard-response","59","193370","0.0-8.0-1.16","5d8108c0a6d2bf001afdb2d9","condB","","resources/audio/wordStim/S3_AU_18_bxa_Step-7.wav","49","","","","","AU","resources/audio/wordStim/S3_AU_18_bxa_Step-7.wav","S3","18","bxa","7","MI","1","1","true"
"null","","fixation","html-keyboard-response","60","194382","0.0-8.0-0.17","5d8108c0a6d2bf001afdb2d9","condB","","<div class=""vertical-center"" style='width:60%;'><p style='font-weight:bold;'>Does the middle word sound more like the first word (A) or the last word (B)?</p> <br> <div class=""container""> <div id=""a-box""> <p class=""title-text"">A</h3></p> </div> <div id=""x-box""> <p class=""title-text"">X<p> </div> <div id=""b-box""> <p class=""title-text"">B</p></div> <br> <div style='float: left;padding-left:30px;'><p>Press '1' for A</p></div><div style='float: right;padding-right:30px;'><p>Press '0' for B</p> </div> </div></div>","null","","","","","","","","","","","","","",""
"2611","","test","audio-keyboard-response","61","196992","0.0-8.0-1.17","5d8108c0a6d2bf001afdb2d9","condB","","resources/audio/wordStim/S9_AU_13_bxa_Step-9.wav","49","","","","","AU","resources/audio/wordStim/S9_AU_13_bxa_Step-9.wav","S9","13","bxa","9","CN","1","1","true"
"null","","fixation","html-keyboard-response","62","198005","0.0-8.0-0.18","5d8108c0a6d2bf001afdb2d9","condB","","<div class=""vertical-center"" style='width:60%;'><p style='font-weight:bold;'>Does the middle word sound more like the first word (A) or the last word (B)?</p> <br> <div class=""container""> <div id=""a-box""> <p class=""title-text"">A</h3></p> </div> <div id=""x-box""> <p class=""title-text"">X<p> </div> <div id=""b-box""> <p class=""title-text"">B</p></div> <br> <div style='float: left;padding-left:30px;'><p>Press '1' for A</p></div><div style='float: right;padding-right:30px;'><p>Press '0' for B</p> </div> </div></div>","null","","","","","","","","","","","","","",""
"4160","","test","audio-keyboard-response","63","202161","0.0-8.0-1.18","5d8108c0a6d2bf001afdb2d9","condB","","resources/audio/wordStim/S3_AU_15_axb_Step-6.wav","48","","","","","AU","resources/audio/wordStim/S3_AU_15_axb_Step-6.wav","S3","15","axb","6","MI","0","0","true"
"null","","fixation","html-keyboard-response","64","203162","0.0-8.0-0.19","5d8108c0a6d2bf001afdb2d9","condB","","<div class=""vertical-center"" style='width:60%;'><p style='font-weight:bold;'>Does the middle word sound more like the first word (A) or the last word (B)?</p> <br> <div class=""container""> <div id=""a-box""> <p class=""title-text"">A</h3></p> </div> <div id=""x-box""> <p class=""title-text"">X<p> </div> <div id=""b-box""> <p class=""title-text"">B</p></div> <br> <div style='float: left;padding-left:30px;'><p>Press '1' for A</p></div><div style='float: right;padding-right:30px;'><p>Press '0' for B</p> </div> </div></div>","null","","","","","","","","","","","","","",""
"3069","","test","audio-keyboard-response","65","206227","0.0-8.0-1.19","5d8108c0a6d2bf001afdb2d9","condB","","resources/audio/wordStim/S9_AI_27_bxa_Step-9.wav","49","","","","","AI","resources/audio/wordStim/S9_AI_27_bxa_Step-9.wav","S9","27","bxa","9","CN","1","1","true"
"null","","fixation","html-keyboard-response","66","207255","0.0-8.0-0.20","5d8108c0a6d2bf001afdb2d9","condB","","<div class=""vertical-center"" style='width:60%;'><p style='font-weight:bold;'>Does the middle word sound more like the first word (A) or the last word (B)?</p> <br> <div class=""container""> <div id=""a-box""> <p class=""title-text"">A</h3></p> </div> <div id=""x-box""> <p class=""title-text"">X<p> </div> <div id=""b-box""> <p class=""title-text"">B</p></div> <br> <div style='float: left;padding-left:30px;'><p>Press '1' for A</p></div><div style='float: right;padding-right:30px;'><p>Press '0' for B</p> </div> </div></div>","null","","","","","","","","","","","","","",""
"2739","","test","audio-keyboard-response","67","209988","0.0-8.0-1.20","5d8108c0a6d2bf001afdb2d9","condB","","resources/audio/wordStim/S9_AI_24_bxa_Step-10.wav","49","","","","","AI","resources/audio/wordStim/S9_AI_24_bxa_Step-10.wav","S9","24","bxa","10","CN","1","1","true"
"null","","fixation","html-keyboard-response","68","211019","0.0-8.0-0.21","5d8108c0a6d2bf001afdb2d9","condB","","<div class=""vertical-center"" style='width:60%;'><p style='font-weight:bold;'>Does the middle word sound more like the first word (A) or the last word (B)?</p> <br> <div class=""container""> <div id=""a-box""> <p class=""title-text"">A</h3></p> </div> <div id=""x-box""> <p class=""title-text"">X<p> </div> <div id=""b-box""> <p class=""title-text"">B</p></div> <br> <div style='float: left;padding-left:30px;'><p>Press '1' for A</p></div><div style='float: right;padding-right:30px;'><p>Press '0' for B</p> </div> </div></div>","null","","","","","","","","","","","","","",""
"3152","","test","audio-keyboard-response","69","214176","0.0-8.0-1.21","5d8108c0a6d2bf001afdb2d9","condB","","resources/audio/wordStim/S9_AI_22_axb_Step-2.wav","49","","","","","AI","resources/audio/wordStim/S9_AI_22_axb_Step-2.wav","S9","22","axb","2","CN","0","1","false"
"null","","fixation","html-keyboard-response","70","215190","0.0-8.0-0.22","5d8108c0a6d2bf001afdb2d9","condB","","<div class=""vertical-center"" style='width:60%;'><p style='font-weight:bold;'>Does the middle word sound more like the first word (A) or the last word (B)?</p> <br> <div class=""container""> <div id=""a-box""> <p class=""title-text"">A</h3></p> </div> <div id=""x-box""> <p class=""title-text"">X<p> </div> <div id=""b-box""> <p class=""title-text"">B</p></div> <br> <div style='float: left;padding-left:30px;'><p>Press '1' for A</p></div><div style='float: right;padding-right:30px;'><p>Press '0' for B</p> </div> </div></div>","null","","","","","","","","","","","","","",""
"2640","","test","audio-keyboard-response","71","217830","0.0-8.0-1.22","5d8108c0a6d2bf001afdb2d9","condB","","resources/audio/wordStim/S3_AI_23_bxa_Step-3.wav","48","","","","","AI","resources/audio/wordStim/S3_AI_23_bxa_Step-3.wav","S3","23","bxa","3","MI","1","0","false"
"null","","fixation","html-keyboard-response","72","218838","0.0-8.0-0.23","5d8108c0a6d2bf001afdb2d9","condB","","<div class=""vertical-center"" style='width:60%;'><p style='font-weight:bold;'>Does the middle word sound more like the first word (A) or the last word (B)?</p> <br> <div class=""container""> <div id=""a-box""> <p class=""title-text"">A</h3></p> </div> <div id=""x-box""> <p class=""title-text"">X<p> </div> <div id=""b-box""> <p class=""title-text"">B</p></div> <br> <div style='float: left;padding-left:30px;'><p>Press '1' for A</p></div><div style='float: right;padding-right:30px;'><p>Press '0' for B</p> </div> </div></div>","null","","","","","","","","","","","","","",""
"2939","","test","audio-keyboard-response","73","221782","0.0-8.0-1.23","5d8108c0a6d2bf001afdb2d9","condB","","resources/audio/wordStim/S9_AU_17_axb_Step-8.wav","49","","","","","AU","resources/audio/wordStim/S9_AU_17_axb_Step-8.wav","S9","17","axb","8","CN","0","1","false"
"null","","fixation","html-keyboard-response","74","222809","0.0-8.0-0.24","5d8108c0a6d2bf001afdb2d9","condB","","<div class=""vertical-center"" style='width:60%;'><p style='font-weight:bold;'>Does the middle word sound more like the first word (A) or the last word (B)?</p> <br> <div class=""container""> <div id=""a-box""> <p class=""title-text"">A</h3></p> </div> <div id=""x-box""> <p class=""title-text"">X<p> </div> <div id=""b-box""> <p class=""title-text"">B</p></div> <br> <div style='float: left;padding-left:30px;'><p>Press '1' for A</p></div><div style='float: right;padding-right:30px;'><p>Press '0' for B</p> </div> </div></div>","null","","","","","","","","","","","","","",""
"3069","","test","audio-keyboard-response","75","225879","0.0-8.0-1.24","5d8108c0a6d2bf001afdb2d9","condB","","resources/audio/wordStim/S3_AU_19_axb_Step-8.wav","48","","","","","AU","resources/audio/wordStim/S3_AU_19_axb_Step-8.wav","S3","19","axb","8","MI","0","0","true"
"null","","fixation","html-keyboard-response","76","226902","0.0-8.0-0.25","5d8108c0a6d2bf001afdb2d9","condB","","<div class=""vertical-center"" style='width:60%;'><p style='font-weight:bold;'>Does the middle word sound more like the first word (A) or the last word (B)?</p> <br> <div class=""container""> <div id=""a-box""> <p class=""title-text"">A</h3></p> </div> <div id=""x-box""> <p class=""title-text"">X<p> </div> <div id=""b-box""> <p class=""title-text"">B</p></div> <br> <div style='float: left;padding-left:30px;'><p>Press '1' for A</p></div><div style='float: right;padding-right:30px;'><p>Press '0' for B</p> </div> </div></div>","null","","","","","","","","","","","","","",""
"4272","","test","audio-keyboard-response","77","231168","0.0-8.0-1.25","5d8108c0a6d2bf001afdb2d9","condB","","resources/audio/wordStim/S9_AI_27_bxa_Step-5.wav","48","","","","","AI","resources/audio/wordStim/S9_AI_27_bxa_Step-5.wav","S9","27","bxa","5","CN","1","0","false"
"null","","fixation","html-keyboard-response","78","232194","0.0-8.0-0.26","5d8108c0a6d2bf001afdb2d9","condB","","<div class=""vertical-center"" style='width:60%;'><p style='font-weight:bold;'>Does the middle word sound more like the first word (A) or the last word (B)?</p> <br> <div class=""container""> <div id=""a-box""> <p class=""title-text"">A</h3></p> </div> <div id=""x-box""> <p class=""title-text"">X<p> </div> <div id=""b-box""> <p class=""title-text"">B</p></div> <br> <div style='float: left;padding-left:30px;'><p>Press '1' for A</p></div><div style='float: right;padding-right:30px;'><p>Press '0' for B</p> </div> </div></div>","null","","","","","","","","","","","","","",""
"2669","","test","audio-keyboard-response","79","234860","0.0-8.0-1.26","5d8108c0a6d2bf001afdb2d9","condB","","resources/audio/wordStim/S9_AU_16_axb_Step-6.wav","49","","","","","AU","resources/audio/wordStim/S9_AU_16_axb_Step-6.wav","S9","16","axb","6","CN","0","1","false"
"1905.3200000198558","","break","html-keyboard-response","80","237272","0.0-8.0-2.26-0.26","5d8108c0a6d2bf001afdb2d9","condB","","<div class=""vertical-center""><p>Feel free to take a break!</p><i>When you're ready to continue, press SPACE to begin the next trial.</i></p></div>","32","","","","","","","","","","","","","",""
"null","","fixation","html-keyboard-response","81","237787","0.0-8.0-0.27","5d8108c0a6d2bf001afdb2d9","condB","","<div class=""vertical-center"" style='width:60%;'><p style='font-weight:bold;'>Does the middle word sound more like the first word (A) or the last word (B)?</p> <br> <div class=""container""> <div id=""a-box""> <p class=""title-text"">A</h3></p> </div> <div id=""x-box""> <p class=""title-text"">X<p> </div> <div id=""b-box""> <p class=""title-text"">B</p></div> <br> <div style='float: left;padding-left:30px;'><p>Press '1' for A</p></div><div style='float: right;padding-right:30px;'><p>Press '0' for B</p> </div> </div></div>","null","","","","","","","","","","","","","",""
"3349","","test","audio-keyboard-response","82","241138","0.0-8.0-1.27","5d8108c0a6d2bf001afdb2d9","condB","","resources/audio/wordStim/S3_AI_22_bxa_Step-10.wav","49","","","","","AI","resources/audio/wordStim/S3_AI_22_bxa_Step-10.wav","S3","22","bxa","10","MI","1","1","true"
"null","","fixation","html-keyboard-response","83","242151","0.0-8.0-0.28","5d8108c0a6d2bf001afdb2d9","condB","","<div class=""vertical-center"" style='width:60%;'><p style='font-weight:bold;'>Does the middle word sound more like the first word (A) or the last word (B)?</p> <br> <div class=""container""> <div id=""a-box""> <p class=""title-text"">A</h3></p> </div> <div id=""x-box""> <p class=""title-text"">X<p> </div> <div id=""b-box""> <p class=""title-text"">B</p></div> <br> <div style='float: left;padding-left:30px;'><p>Press '1' for A</p></div><div style='float: right;padding-right:30px;'><p>Press '0' for B</p> </div> </div></div>","null","","","","","","","","","","","","","",""
"2781","","test","audio-keyboard-response","84","244927","0.0-8.0-1.28","5d8108c0a6d2bf001afdb2d9","condB","","resources/audio/wordStim/S9_AI_30_bxa_Step-5.wav","49","","","","","AI","resources/audio/wordStim/S9_AI_30_bxa_Step-5.wav","S9","30","bxa","5","CN","1","1","true"
"null","","fixation","html-keyboard-response","85","245951","0.0-8.0-0.29","5d8108c0a6d2bf001afdb2d9","condB","","<div class=""vertical-center"" style='width:60%;'><p style='font-weight:bold;'>Does the middle word sound more like the first word (A) or the last word (B)?</p> <br> <div class=""container""> <div id=""a-box""> <p class=""title-text"">A</h3></p> </div> <div id=""x-box""> <p class=""title-text"">X<p> </div> <div id=""b-box""> <p class=""title-text"">B</p></div> <br> <div style='float: left;padding-left:30px;'><p>Press '1' for A</p></div><div style='float: right;padding-right:30px;'><p>Press '0' for B</p> </div> </div></div>","null","","","","","","","","","","","","","",""
"3211","","test","audio-keyboard-response","86","249162","0.0-8.0-1.29","5d8108c0a6d2bf001afdb2d9","condB","","resources/audio/wordStim/S3_AU_17_bxa_Step-7.wav","49","","","","","AU","resources/audio/wordStim/S3_AU_17_bxa_Step-7.wav","S3","17","bxa","7","MI","1","1","true"
"null","","fixation","html-keyboard-response","87","250178","0.0-8.0-0.30","5d8108c0a6d2bf001afdb2d9","condB","","<div class=""vertical-center"" style='width:60%;'><p style='font-weight:bold;'>Does the middle word sound more like the first word (A) or the last word (B)?</p> <br> <div class=""container""> <div id=""a-box""> <p class=""title-text"">A</h3></p> </div> <div id=""x-box""> <p class=""title-text"">X<p> </div> <div id=""b-box""> <p class=""title-text"">B</p></div> <br> <div style='float: left;padding-left:30px;'><p>Press '1' for A</p></div><div style='float: right;padding-right:30px;'><p>Press '0' for B</p> </div> </div></div>","null","","","","","","","","","","","","","",""
"2941","","test","audio-keyboard-response","88","253124","0.0-8.0-1.30","5d8108c0a6d2bf001afdb2d9","condB","","resources/audio/wordStim/S9_AU_19_bxa_Step-3.wav","48","","","","","AU","resources/audio/wordStim/S9_AU_19_bxa_Step-3.wav","S9","19","bxa","3","CN","1","0","false"
"null","","fixation","html-keyboard-response","89","254133","0.0-8.0-0.31","5d8108c0a6d2bf001afdb2d9","condB","","<div class=""vertical-center"" style='width:60%;'><p style='font-weight:bold;'>Does the middle word sound more like the first word (A) or the last word (B)?</p> <br> <div class=""container""> <div id=""a-box""> <p class=""title-text"">A</h3></p> </div> <div id=""x-box""> <p class=""title-text"">X<p> </div> <div id=""b-box""> <p class=""title-text"">B</p></div> <br> <div style='float: left;padding-left:30px;'><p>Press '1' for A</p></div><div style='float: right;padding-right:30px;'><p>Press '0' for B</p> </div> </div></div>","null","","","","","","","","","","","","","",""
"59","","test","audio-keyboard-response","90","254193","0.0-8.0-1.31","5d8108c0a6d2bf001afdb2d9","condB","","resources/audio/wordStim/S9_AI_25_axb_Step-4.wav","48","","","","","AI","resources/audio/wordStim/S9_AI_25_axb_Step-4.wav","S9","25","axb","4","CN","0","0","true"
"null","","fixation","html-keyboard-response","91","255208","0.0-8.0-0.32","5d8108c0a6d2bf001afdb2d9","condB","","<div class=""vertical-center"" style='width:60%;'><p style='font-weight:bold;'>Does the middle word sound more like the first word (A) or the last word (B)?</p> <br> <div class=""container""> <div id=""a-box""> <p class=""title-text"">A</h3></p> </div> <div id=""x-box""> <p class=""title-text"">X<p> </div> <div id=""b-box""> <p class=""title-text"">B</p></div> <br> <div style='float: left;padding-left:30px;'><p>Press '1' for A</p></div><div style='float: right;padding-right:30px;'><p>Press '0' for B</p> </div> </div></div>","null","","","","","","","","","","","","","",""
"7109","","test","audio-keyboard-response","92","262326","0.0-8.0-1.32","5d8108c0a6d2bf001afdb2d9","condB","","resources/audio/wordStim/S9_AU_16_axb_Step-4.wav","49","","","","","AU","resources/audio/wordStim/S9_AU_16_axb_Step-4.wav","S9","16","axb","4","CN","0","1","false"
"null","","fixation","html-keyboard-response","93","263338","0.0-8.0-0.33","5d8108c0a6d2bf001afdb2d9","condB","","<div class=""vertical-center"" style='width:60%;'><p style='font-weight:bold;'>Does the middle word sound more like the first word (A) or the last word (B)?</p> <br> <div class=""container""> <div id=""a-box""> <p class=""title-text"">A</h3></p> </div> <div id=""x-box""> <p class=""title-text"">X<p> </div> <div id=""b-box""> <p class=""title-text"">B</p></div> <br> <div style='float: left;padding-left:30px;'><p>Press '1' for A</p></div><div style='float: right;padding-right:30px;'><p>Press '0' for B</p> </div> </div></div>","null","","","","","","","","","","","","","",""
"3571","","test","audio-keyboard-response","94","266914","0.0-8.0-1.33","5d8108c0a6d2bf001afdb2d9","condB","","resources/audio/wordStim/S9_AU_20_bxa_Step-7.wav","48","","","","","AU","resources/audio/wordStim/S9_AU_20_bxa_Step-7.wav","S9","20","bxa","7","CN","1","0","false"
"null","","fixation","html-keyboard-response","95","267930","0.0-8.0-0.34","5d8108c0a6d2bf001afdb2d9","condB","","<div class=""vertical-center"" style='width:60%;'><p style='font-weight:bold;'>Does the middle word sound more like the first word (A) or the last word (B)?</p> <br> <div class=""container""> <div id=""a-box""> <p class=""title-text"">A</h3></p> </div> <div id=""x-box""> <p class=""title-text"">X<p> </div> <div id=""b-box""> <p class=""title-text"">B</p></div> <br> <div style='float: left;padding-left:30px;'><p>Press '1' for A</p></div><div style='float: right;padding-right:30px;'><p>Press '0' for B</p> </div> </div></div>","null","","","","","","","","","","","","","",""
"2840","","test","audio-keyboard-response","96","270767","0.0-8.0-1.34","5d8108c0a6d2bf001afdb2d9","condB","","resources/audio/wordStim/S3_AU_11_axb_Step-4.wav","49","","","","","AU","resources/audio/wordStim/S3_AU_11_axb_Step-4.wav","S3","11","axb","4","MI","0","1","false"
"null","","fixation","html-keyboard-response","97","271791","0.0-8.0-0.35","5d8108c0a6d2bf001afdb2d9","condB","","<div class=""vertical-center"" style='width:60%;'><p style='font-weight:bold;'>Does the middle word sound more like the first word (A) or the last word (B)?</p> <br> <div class=""container""> <div id=""a-box""> <p class=""title-text"">A</h3></p> </div> <div id=""x-box""> <p class=""title-text"">X<p> </div> <div id=""b-box""> <p class=""title-text"">B</p></div> <br> <div style='float: left;padding-left:30px;'><p>Press '1' for A</p></div><div style='float: right;padding-right:30px;'><p>Press '0' for B</p> </div> </div></div>","null","","","","","","","","","","","","","",""
"3291","","test","audio-keyboard-response","98","275082","0.0-8.0-1.35","5d8108c0a6d2bf001afdb2d9","condB","","resources/audio/wordStim/S3_AI_22_bxa_Step-5.wav","49","","","","","AI","resources/audio/wordStim/S3_AI_22_bxa_Step-5.wav","S3","22","bxa","5","MI","1","1","true"
"null","","fixation","html-keyboard-response","99","276109","0.0-8.0-0.36","5d8108c0a6d2bf001afdb2d9","condB","","<div class=""vertical-center"" style='width:60%;'><p style='font-weight:bold;'>Does the middle word sound more like the first word (A) or the last word (B)?</p> <br> <div class=""container""> <div id=""a-box""> <p class=""title-text"">A</h3></p> </div> <div id=""x-box""> <p class=""title-text"">X<p> </div> <div id=""b-box""> <p class=""title-text"">B</p></div> <br> <div style='float: left;padding-left:30px;'><p>Press '1' for A</p></div><div style='float: right;padding-right:30px;'><p>Press '0' for B</p> </div> </div></div>","null","","","","","","","","","","","","","",""
"3061","","test","audio-keyboard-response","100","279174","0.0-8.0-1.36","5d8108c0a6d2bf001afdb2d9","condB","","resources/audio/wordStim/S3_AI_29_axb_Step-4.wav","48","","","","","AI","resources/audio/wordStim/S3_AI_29_axb_Step-4.wav","S3","29","axb","4","MI","0","0","true"
"null","","fixation","html-keyboard-response","101","280182","0.0-8.0-0.37","5d8108c0a6d2bf001afdb2d9","condB","","<div class=""vertical-center"" style='width:60%;'><p style='font-weight:bold;'>Does the middle word sound more like the first word (A) or the last word (B)?</p> <br> <div class=""container""> <div id=""a-box""> <p class=""title-text"">A</h3></p> </div> <div id=""x-box""> <p class=""title-text"">X<p> </div> <div id=""b-box""> <p class=""title-text"">B</p></div> <br> <div style='float: left;padding-left:30px;'><p>Press '1' for A</p></div><div style='float: right;padding-right:30px;'><p>Press '0' for B</p> </div> </div></div>","null","","","","","","","","","","","","","",""
"2200","","test","audio-keyboard-response","102","282383","0.0-8.0-1.37","5d8108c0a6d2bf001afdb2d9","condB","","resources/audio/wordStim/S3_AI_21_bxa_Step-3.wav","48","","","","","AI","resources/audio/wordStim/S3_AI_21_bxa_Step-3.wav","S3","21","bxa","3","MI","1","0","false"
"null","","fixation","html-keyboard-response","103","283394","0.0-8.0-0.38","5d8108c0a6d2bf001afdb2d9","condB","","<div class=""vertical-center"" style='width:60%;'><p style='font-weight:bold;'>Does the middle word sound more like the first word (A) or the last word (B)?</p> <br> <div class=""container""> <div id=""a-box""> <p class=""title-text"">A</h3></p> </div> <div id=""x-box""> <p class=""title-text"">X<p> </div> <div id=""b-box""> <p class=""title-text"">B</p></div> <br> <div style='float: left;padding-left:30px;'><p>Press '1' for A</p></div><div style='float: right;padding-right:30px;'><p>Press '0' for B</p> </div> </div></div>","null","","","","","","","","","","","","","",""
"3320","","test","audio-keyboard-response","104","286715","0.0-8.0-1.38","5d8108c0a6d2bf001afdb2d9","condB","","resources/audio/wordStim/S3_AI_23_bxa_Step-10.wav","49","","","","","AI","resources/audio/wordStim/S3_AI_23_bxa_Step-10.wav","S3","23","bxa","10","MI","1","1","true"
"null","","fixation","html-keyboard-response","105","287722","0.0-8.0-0.39","5d8108c0a6d2bf001afdb2d9","condB","","<div class=""vertical-center"" style='width:60%;'><p style='font-weight:bold;'>Does the middle word sound more like the first word (A) or the last word (B)?</p> <br> <div class=""container""> <div id=""a-box""> <p class=""title-text"">A</h3></p> </div> <div id=""x-box""> <p class=""title-text"">X<p> </div> <div id=""b-box""> <p class=""title-text"">B</p></div> <br> <div style='float: left;padding-left:30px;'><p>Press '1' for A</p></div><div style='float: right;padding-right:30px;'><p>Press '0' for B</p> </div> </div></div>","null","","","","","","","","","","","","","",""
"2949","","test","audio-keyboard-response","106","290667","0.0-8.0-1.39","5d8108c0a6d2bf001afdb2d9","condB","","resources/audio/wordStim/S3_AI_22_axb_Step-8.wav","48","","","","","AI","resources/audio/wordStim/S3_AI_22_axb_Step-8.wav","S3","22","axb","8","MI","0","0","true"
"null","","fixation","html-keyboard-response","107","291695","0.0-8.0-0.40","5d8108c0a6d2bf001afdb2d9","condB","","<div class=""vertical-center"" style='width:60%;'><p style='font-weight:bold;'>Does the middle word sound more like the first word (A) or the last word (B)?</p> <br> <div class=""container""> <div id=""a-box""> <p class=""title-text"">A</h3></p> </div> <div id=""x-box""> <p class=""title-text"">X<p> </div> <div id=""b-box""> <p class=""title-text"">B</p></div> <br> <div style='float: left;padding-left:30px;'><p>Press '1' for A</p></div><div style='float: right;padding-right:30px;'><p>Press '0' for B</p> </div> </div></div>","null","","","","","","","","","","","","","",""
"2768","","test","audio-keyboard-response","108","294459","0.0-8.0-1.40","5d8108c0a6d2bf001afdb2d9","condB","","resources/audio/wordStim/S9_AU_13_bxa_Step-3.wav","49","","","","","AU","resources/audio/wordStim/S9_AU_13_bxa_Step-3.wav","S9","13","bxa","3","CN","1","1","true"
"null","","fixation","html-keyboard-response","109","295483","0.0-8.0-0.41","5d8108c0a6d2bf001afdb2d9","condB","","<div class=""vertical-center"" style='width:60%;'><p style='font-weight:bold;'>Does the middle word sound more like the first word (A) or the last word (B)?</p> <br> <div class=""container""> <div id=""a-box""> <p class=""title-text"">A</h3></p> </div> <div id=""x-box""> <p class=""title-text"">X<p> </div> <div id=""b-box""> <p class=""title-text"">B</p></div> <br> <div style='float: left;padding-left:30px;'><p>Press '1' for A</p></div><div style='float: right;padding-right:30px;'><p>Press '0' for B</p> </div> </div></div>","null","","","","","","","","","","","","","",""
"3291","","test","audio-keyboard-response","110","298773","0.0-8.0-1.41","5d8108c0a6d2bf001afdb2d9","condB","","resources/audio/wordStim/S3_AU_16_bxa_Step-9.wav","49","","","","","AU","resources/audio/wordStim/S3_AU_16_bxa_Step-9.wav","S3","16","bxa","9","MI","1","1","true"
"null","","fixation","html-keyboard-response","111","299790","0.0-8.0-0.42","5d8108c0a6d2bf001afdb2d9","condB","","<div class=""vertical-center"" style='width:60%;'><p style='font-weight:bold;'>Does the middle word sound more like the first word (A) or the last word (B)?</p> <br> <div class=""container""> <div id=""a-box""> <p class=""title-text"">A</h3></p> </div> <div id=""x-box""> <p class=""title-text"">X<p> </div> <div id=""b-box""> <p class=""title-text"">B</p></div> <br> <div style='float: left;padding-left:30px;'><p>Press '1' for A</p></div><div style='float: right;padding-right:30px;'><p>Press '0' for B</p> </div> </div></div>","null","","","","","","","","","","","","","",""
"2880","","test","audio-keyboard-response","112","302671","0.0-8.0-1.42","5d8108c0a6d2bf001afdb2d9","condB","","resources/audio/wordStim/S9_AI_25_bxa_Step-5.wav","48","","","","","AI","resources/audio/wordStim/S9_AI_25_bxa_Step-5.wav","S9","25","bxa","5","CN","1","0","false"
"null","","fixation","html-keyboard-response","113","303674","0.0-8.0-0.43","5d8108c0a6d2bf001afdb2d9","condB","","<div class=""vertical-center"" style='width:60%;'><p style='font-weight:bold;'>Does the middle word sound more like the first word (A) or the last word (B)?</p> <br> <div class=""container""> <div id=""a-box""> <p class=""title-text"">A</h3></p> </div> <div id=""x-box""> <p class=""title-text"">X<p> </div> <div id=""b-box""> <p class=""title-text"">B</p></div> <br> <div style='float: left;padding-left:30px;'><p>Press '1' for A</p></div><div style='float: right;padding-right:30px;'><p>Press '0' for B</p> </div> </div></div>","null","","","","","","","","","","","","","",""
"3131","","test","audio-keyboard-response","114","306806","0.0-8.0-1.43","5d8108c0a6d2bf001afdb2d9","condB","","resources/audio/wordStim/S3_AU_18_bxa_Step-10.wav","49","","","","","AU","resources/audio/wordStim/S3_AU_18_bxa_Step-10.wav","S3","18","bxa","10","MI","1","1","true"
"null","","fixation","html-keyboard-response","115","307830","0.0-8.0-0.44","5d8108c0a6d2bf001afdb2d9","condB","","<div class=""vertical-center"" style='width:60%;'><p style='font-weight:bold;'>Does the middle word sound more like the first word (A) or the last word (B)?</p> <br> <div class=""container""> <div id=""a-box""> <p class=""title-text"">A</h3></p> </div> <div id=""x-box""> <p class=""title-text"">X<p> </div> <div id=""b-box""> <p class=""title-text"">B</p></div> <br> <div style='float: left;padding-left:30px;'><p>Press '1' for A</p></div><div style='float: right;padding-right:30px;'><p>Press '0' for B</p> </div> </div></div>","null","","","","","","","","","","","","","",""
"2389","","test","audio-keyboard-response","116","310218","0.0-8.0-1.44","5d8108c0a6d2bf001afdb2d9","condB","","resources/audio/wordStim/S3_AU_15_axb_Step-2.wav","49","","","","","AU","resources/audio/wordStim/S3_AU_15_axb_Step-2.wav","S3","15","axb","2","MI","0","1","false"
"null","","fixation","html-keyboard-response","117","311249","0.0-8.0-0.45","5d8108c0a6d2bf001afdb2d9","condB","","<div class=""vertical-center"" style='width:60%;'><p style='font-weight:bold;'>Does the middle word sound more like the first word (A) or the last word (B)?</p> <br> <div class=""container""> <div id=""a-box""> <p class=""title-text"">A</h3></p> </div> <div id=""x-box""> <p class=""title-text"">X<p> </div> <div id=""b-box""> <p class=""title-text"">B</p></div> <br> <div style='float: left;padding-left:30px;'><p>Press '1' for A</p></div><div style='float: right;padding-right:30px;'><p>Press '0' for B</p> </div> </div></div>","null","","","","","","","","","","","","","",""
"2600","","test","audio-keyboard-response","118","313849","0.0-8.0-1.45","5d8108c0a6d2bf001afdb2d9","condB","","resources/audio/wordStim/S9_AU_17_axb_Step-2.wav","49","","","","","AU","resources/audio/wordStim/S9_AU_17_axb_Step-2.wav","S9","17","axb","2","CN","0","1","false"
"null","","fixation","html-keyboard-response","119","314865","0.0-8.0-0.46","5d8108c0a6d2bf001afdb2d9","condB","","<div class=""vertical-center"" style='width:60%;'><p style='font-weight:bold;'>Does the middle word sound more like the first word (A) or the last word (B)?</p> <br> <div class=""container""> <div id=""a-box""> <p class=""title-text"">A</h3></p> </div> <div id=""x-box""> <p class=""title-text"">X<p> </div> <div id=""b-box""> <p class=""title-text"">B</p></div> <br> <div style='float: left;padding-left:30px;'><p>Press '1' for A</p></div><div style='float: right;padding-right:30px;'><p>Press '0' for B</p> </div> </div></div>","null","","","","","","","","","","","","","",""
"2941","","test","audio-keyboard-response","120","317802","0.0-8.0-1.46","5d8108c0a6d2bf001afdb2d9","condB","","resources/audio/wordStim/S3_AU_18_axb_Step-2.wav","49","","","","","AU","resources/audio/wordStim/S3_AU_18_axb_Step-2.wav","S3","18","axb","2","MI","0","1","false"
"null","","fixation","html-keyboard-response","121","318811","0.0-8.0-0.47","5d8108c0a6d2bf001afdb2d9","condB","","<div class=""vertical-center"" style='width:60%;'><p style='font-weight:bold;'>Does the middle word sound more like the first word (A) or the last word (B)?</p> <br> <div class=""container""> <div id=""a-box""> <p class=""title-text"">A</h3></p> </div> <div id=""x-box""> <p class=""title-text"">X<p> </div> <div id=""b-box""> <p class=""title-text"">B</p></div> <br> <div style='float: left;padding-left:30px;'><p>Press '1' for A</p></div><div style='float: right;padding-right:30px;'><p>Press '0' for B</p> </div> </div></div>","null","","","","","","","","","","","","","",""
"3179","","test","audio-keyboard-response","122","321994","0.0-8.0-1.47","5d8108c0a6d2bf001afdb2d9","condB","","resources/audio/wordStim/S9_AI_23_bxa_Step-9.wav","48","","","","","AI","resources/audio/wordStim/S9_AI_23_bxa_Step-9.wav","S9","23","bxa","9","CN","1","0","false"
"null","","fixation","html-keyboard-response","123","323011","0.0-8.0-0.48","5d8108c0a6d2bf001afdb2d9","condB","","<div class=""vertical-center"" style='width:60%;'><p style='font-weight:bold;'>Does the middle word sound more like the first word (A) or the last word (B)?</p> <br> <div class=""container""> <div id=""a-box""> <p class=""title-text"">A</h3></p> </div> <div id=""x-box""> <p class=""title-text"">X<p> </div> <div id=""b-box""> <p class=""title-text"">B</p></div> <br> <div style='float: left;padding-left:30px;'><p>Press '1' for A</p></div><div style='float: right;padding-right:30px;'><p>Press '0' for B</p> </div> </div></div>","null","","","","","","","","","","","","","",""
"3309","","test","audio-keyboard-response","124","326319","0.0-8.0-1.48","5d8108c0a6d2bf001afdb2d9","condB","","resources/audio/wordStim/S9_AI_22_axb_Step-8.wav","48","","","","","AI","resources/audio/wordStim/S9_AI_22_axb_Step-8.wav","S9","22","axb","8","CN","0","0","true"
"null","","fixation","html-keyboard-response","125","327330","0.0-8.0-0.49","5d8108c0a6d2bf001afdb2d9","condB","","<div class=""vertical-center"" style='width:60%;'><p style='font-weight:bold;'>Does the middle word sound more like the first word (A) or the last word (B)?</p> <br> <div class=""container""> <div id=""a-box""> <p class=""title-text"">A</h3></p> </div> <div id=""x-box""> <p class=""title-text"">X<p> </div> <div id=""b-box""> <p class=""title-text"">B</p></div> <br> <div style='float: left;padding-left:30px;'><p>Press '1' for A</p></div><div style='float: right;padding-right:30px;'><p>Press '0' for B</p> </div> </div></div>","null","","","","","","","","","","","","","",""
"2859","","test","audio-keyboard-response","126","330193","0.0-8.0-1.49","5d8108c0a6d2bf001afdb2d9","condB","","resources/audio/wordStim/S9_AI_29_bxa_Step-5.wav","48","","","","","AI","resources/audio/wordStim/S9_AI_29_bxa_Step-5.wav","S9","29","bxa","5","CN","1","0","false"
"null","","fixation","html-keyboard-response","127","331210","0.0-8.0-0.50","5d8108c0a6d2bf001afdb2d9","condB","","<div class=""vertical-center"" style='width:60%;'><p style='font-weight:bold;'>Does the middle word sound more like the first word (A) or the last word (B)?</p> <br> <div class=""container""> <div id=""a-box""> <p class=""title-text"">A</h3></p> </div> <div id=""x-box""> <p class=""title-text"">X<p> </div> <div id=""b-box""> <p class=""title-text"">B</p></div> <br> <div style='float: left;padding-left:30px;'><p>Press '1' for A</p></div><div style='float: right;padding-right:30px;'><p>Press '0' for B</p> </div> </div></div>","null","","","","","","","","","","","","","",""
"2499","","test","audio-keyboard-response","128","333709","0.0-8.0-1.50","5d8108c0a6d2bf001afdb2d9","condB","","resources/audio/wordStim/S9_AI_23_axb_Step-2.wav","49","","","","","AI","resources/audio/wordStim/S9_AI_23_axb_Step-2.wav","S9","23","axb","2","CN","0","1","false"
"null","","fixation","html-keyboard-response","129","334712","0.0-8.0-0.51","5d8108c0a6d2bf001afdb2d9","condB","","<div class=""vertical-center"" style='width:60%;'><p style='font-weight:bold;'>Does the middle word sound more like the first word (A) or the last word (B)?</p> <br> <div class=""container""> <div id=""a-box""> <p class=""title-text"">A</h3></p> </div> <div id=""x-box""> <p class=""title-text"">X<p> </div> <div id=""b-box""> <p class=""title-text"">B</p></div> <br> <div style='float: left;padding-left:30px;'><p>Press '1' for A</p></div><div style='float: right;padding-right:30px;'><p>Press '0' for B</p> </div> </div></div>","null","","","","","","","","","","","","","",""
"3360","","test","audio-keyboard-response","130","338068","0.0-8.0-1.51","5d8108c0a6d2bf001afdb2d9","condB","","resources/audio/wordStim/S9_AU_18_axb_Step-4.wav","49","","","","","AU","resources/audio/wordStim/S9_AU_18_axb_Step-4.wav","S9","18","axb","4","CN","0","1","false"
"null","","fixation","html-keyboard-response","131","339085","0.0-8.0-0.52","5d8108c0a6d2bf001afdb2d9","condB","","<div class=""vertical-center"" style='width:60%;'><p style='font-weight:bold;'>Does the middle word sound more like the first word (A) or the last word (B)?</p> <br> <div class=""container""> <div id=""a-box""> <p class=""title-text"">A</h3></p> </div> <div id=""x-box""> <p class=""title-text"">X<p> </div> <div id=""b-box""> <p class=""title-text"">B</p></div> <br> <div style='float: left;padding-left:30px;'><p>Press '1' for A</p></div><div style='float: right;padding-right:30px;'><p>Press '0' for B</p> </div> </div></div>","null","","","","","","","","","","","","","",""
"3928","","test","audio-keyboard-response","132","343017","0.0-8.0-1.52","5d8108c0a6d2bf001afdb2d9","condB","","resources/audio/wordStim/S3_AI_23_axb_Step-8.wav","48","","","","","AI","resources/audio/wordStim/S3_AI_23_axb_Step-8.wav","S3","23","axb","8","MI","0","0","true"
"null","","fixation","html-keyboard-response","133","344021","0.0-8.0-0.53","5d8108c0a6d2bf001afdb2d9","condB","","<div class=""vertical-center"" style='width:60%;'><p style='font-weight:bold;'>Does the middle word sound more like the first word (A) or the last word (B)?</p> <br> <div class=""container""> <div id=""a-box""> <p class=""title-text"">A</h3></p> </div> <div id=""x-box""> <p class=""title-text"">X<p> </div> <div id=""b-box""> <p class=""title-text"">B</p></div> <br> <div style='float: left;padding-left:30px;'><p>Press '1' for A</p></div><div style='float: right;padding-right:30px;'><p>Press '0' for B</p> </div> </div></div>","null","","","","","","","","","","","","","",""
"2811","","test","audio-keyboard-response","134","346832","0.0-8.0-1.53","5d8108c0a6d2bf001afdb2d9","condB","","resources/audio/wordStim/S3_AU_20_bxa_Step-9.wav","49","","","","","AU","resources/audio/wordStim/S3_AU_20_bxa_Step-9.wav","S3","20","bxa","9","MI","1","1","true"
"1129.7899999772198","","break","html-keyboard-response","135","348464","0.0-8.0-2.53-0.53","5d8108c0a6d2bf001afdb2d9","condB","","<div class=""vertical-center""><p>Feel free to take a break!</p><i>When you're ready to continue, press SPACE to begin the next trial.</i></p></div>","32","","","","","","","","","","","","","",""
"null","","fixation","html-keyboard-response","136","348976","0.0-8.0-0.54","5d8108c0a6d2bf001afdb2d9","condB","","<div class=""vertical-center"" style='width:60%;'><p style='font-weight:bold;'>Does the middle word sound more like the first word (A) or the last word (B)?</p> <br> <div class=""container""> <div id=""a-box""> <p class=""title-text"">A</h3></p> </div> <div id=""x-box""> <p class=""title-text"">X<p> </div> <div id=""b-box""> <p class=""title-text"">B</p></div> <br> <div style='float: left;padding-left:30px;'><p>Press '1' for A</p></div><div style='float: right;padding-right:30px;'><p>Press '0' for B</p> </div> </div></div>","null","","","","","","","","","","","","","",""
"2720","","test","audio-keyboard-response","137","351698","0.0-8.0-1.54","5d8108c0a6d2bf001afdb2d9","condB","","resources/audio/wordStim/S9_AI_24_bxa_Step-7.wav","49","","","","","AI","resources/audio/wordStim/S9_AI_24_bxa_Step-7.wav","S9","24","bxa","7","CN","1","1","true"
"null","","fixation","html-keyboard-response","138","352706","0.0-8.0-0.55","5d8108c0a6d2bf001afdb2d9","condB","","<div class=""vertical-center"" style='width:60%;'><p style='font-weight:bold;'>Does the middle word sound more like the first word (A) or the last word (B)?</p> <br> <div class=""container""> <div id=""a-box""> <p class=""title-text"">A</h3></p> </div> <div id=""x-box""> <p class=""title-text"">X<p> </div> <div id=""b-box""> <p class=""title-text"">B</p></div> <br> <div style='float: left;padding-left:30px;'><p>Press '1' for A</p></div><div style='float: right;padding-right:30px;'><p>Press '0' for B</p> </div> </div></div>","null","","","","","","","","","","","","","",""
"2589","","test","audio-keyboard-response","139","355301","0.0-8.0-1.55","5d8108c0a6d2bf001afdb2d9","condB","","resources/audio/wordStim/S9_AU_20_bxa_Step-9.wav","48","","","","","AU","resources/audio/wordStim/S9_AU_20_bxa_Step-9.wav","S9","20","bxa","9","CN","1","0","false"
"null","","fixation","html-keyboard-response","140","356310","0.0-8.0-0.56","5d8108c0a6d2bf001afdb2d9","condB","","<div class=""vertical-center"" style='width:60%;'><p style='font-weight:bold;'>Does the middle word sound more like the first word (A) or the last word (B)?</p> <br> <div class=""container""> <div id=""a-box""> <p class=""title-text"">A</h3></p> </div> <div id=""x-box""> <p class=""title-text"">X<p> </div> <div id=""b-box""> <p class=""title-text"">B</p></div> <br> <div style='float: left;padding-left:30px;'><p>Press '1' for A</p></div><div style='float: right;padding-right:30px;'><p>Press '0' for B</p> </div> </div></div>","null","","","","","","","","","","","","","",""
"2771","","test","audio-keyboard-response","141","359077","0.0-8.0-1.56","5d8108c0a6d2bf001afdb2d9","condB","","resources/audio/wordStim/S9_AI_27_axb_Step-4.wav","49","","","","","AI","resources/audio/wordStim/S9_AI_27_axb_Step-4.wav","S9","27","axb","4","CN","0","1","false"
"null","","fixation","html-keyboard-response","142","360079","0.0-8.0-0.57","5d8108c0a6d2bf001afdb2d9","condB","","<div class=""vertical-center"" style='width:60%;'><p style='font-weight:bold;'>Does the middle word sound more like the first word (A) or the last word (B)?</p> <br> <div class=""container""> <div id=""a-box""> <p class=""title-text"">A</h3></p> </div> <div id=""x-box""> <p class=""title-text"">X<p> </div> <div id=""b-box""> <p class=""title-text"">B</p></div> <br> <div style='float: left;padding-left:30px;'><p>Press '1' for A</p></div><div style='float: right;padding-right:30px;'><p>Press '0' for B</p> </div> </div></div>","null","","","","","","","","","","","","","",""
"4189","","test","audio-keyboard-response","143","364269","0.0-8.0-1.57","5d8108c0a6d2bf001afdb2d9","condB","","resources/audio/wordStim/S3_AU_16_axb_Step-8.wav","49","","","","","AU","resources/audio/wordStim/S3_AU_16_axb_Step-8.wav","S3","16","axb","8","MI","0","1","false"
"null","","fixation","html-keyboard-response","144","365284","0.0-8.0-0.58","5d8108c0a6d2bf001afdb2d9","condB","","<div class=""vertical-center"" style='width:60%;'><p style='font-weight:bold;'>Does the middle word sound more like the first word (A) or the last word (B)?</p> <br> <div class=""container""> <div id=""a-box""> <p class=""title-text"">A</h3></p> </div> <div id=""x-box""> <p class=""title-text"">X<p> </div> <div id=""b-box""> <p class=""title-text"">B</p></div> <br> <div style='float: left;padding-left:30px;'><p>Press '1' for A</p></div><div style='float: right;padding-right:30px;'><p>Press '0' for B</p> </div> </div></div>","null","","","","","","","","","","","","","",""
"3291","","test","audio-keyboard-response","145","368575","0.0-8.0-1.58","5d8108c0a6d2bf001afdb2d9","condB","","resources/audio/wordStim/S9_AU_19_bxa_Step-7.wav","49","","","","","AU","resources/audio/wordStim/S9_AU_19_bxa_Step-7.wav","S9","19","bxa","7","CN","1","1","true"
"null","","fixation","html-keyboard-response","146","369579","0.0-8.0-0.59","5d8108c0a6d2bf001afdb2d9","condB","","<div class=""vertical-center"" style='width:60%;'><p style='font-weight:bold;'>Does the middle word sound more like the first word (A) or the last word (B)?</p> <br> <div class=""container""> <div id=""a-box""> <p class=""title-text"">A</h3></p> </div> <div id=""x-box""> <p class=""title-text"">X<p> </div> <div id=""b-box""> <p class=""title-text"">B</p></div> <br> <div style='float: left;padding-left:30px;'><p>Press '1' for A</p></div><div style='float: right;padding-right:30px;'><p>Press '0' for B</p> </div> </div></div>","null","","","","","","","","","","","","","",""
"2571","","test","audio-keyboard-response","147","372150","0.0-8.0-1.59","5d8108c0a6d2bf001afdb2d9","condB","","resources/audio/wordStim/S3_AU_20_bxa_Step-7.wav","49","","","","","AU","resources/audio/wordStim/S3_AU_20_bxa_Step-7.wav","S3","20","bxa","7","MI","1","1","true"
"null","","fixation","html-keyboard-response","148","373178","0.0-8.0-0.60","5d8108c0a6d2bf001afdb2d9","condB","","<div class=""vertical-center"" style='width:60%;'><p style='font-weight:bold;'>Does the middle word sound more like the first word (A) or the last word (B)?</p> <br> <div class=""container""> <div id=""a-box""> <p class=""title-text"">A</h3></p> </div> <div id=""x-box""> <p class=""title-text"">X<p> </div> <div id=""b-box""> <p class=""title-text"">B</p></div> <br> <div style='float: left;padding-left:30px;'><p>Press '1' for A</p></div><div style='float: right;padding-right:30px;'><p>Press '0' for B</p> </div> </div></div>","null","","","","","","","","","","","","","",""
"2680","","test","audio-keyboard-response","149","375863","0.0-8.0-1.60","5d8108c0a6d2bf001afdb2d9","condB","","resources/audio/wordStim/S9_AU_14_axb_Step-8.wav","48","","","","","AU","resources/audio/wordStim/S9_AU_14_axb_Step-8.wav","S9","14","axb","8","CN","0","0","true"
"null","","fixation","html-keyboard-response","150","376878","0.0-8.0-0.61","5d8108c0a6d2bf001afdb2d9","condB","","<div class=""vertical-center"" style='width:60%;'><p style='font-weight:bold;'>Does the middle word sound more like the first word (A) or the last word (B)?</p> <br> <div class=""container""> <div id=""a-box""> <p class=""title-text"">A</h3></p> </div> <div id=""x-box""> <p class=""title-text"">X<p> </div> <div id=""b-box""> <p class=""title-text"">B</p></div> <br> <div style='float: left;padding-left:30px;'><p>Press '1' for A</p></div><div style='float: right;padding-right:30px;'><p>Press '0' for B</p> </div> </div></div>","null","","","","","","","","","","","","","",""
"2859","","test","audio-keyboard-response","151","379746","0.0-8.0-1.61","5d8108c0a6d2bf001afdb2d9","condB","","resources/audio/wordStim/S3_AI_30_axb_Step-4.wav","49","","","","","AI","resources/audio/wordStim/S3_AI_30_axb_Step-4.wav","S3","30","axb","4","MI","0","1","false"
"null","","fixation","html-keyboard-response","152","380759","0.0-8.0-0.62","5d8108c0a6d2bf001afdb2d9","condB","","<div class=""vertical-center"" style='width:60%;'><p style='font-weight:bold;'>Does the middle word sound more like the first word (A) or the last word (B)?</p> <br> <div class=""container""> <div id=""a-box""> <p class=""title-text"">A</h3></p> </div> <div id=""x-box""> <p class=""title-text"">X<p> </div> <div id=""b-box""> <p class=""title-text"">B</p></div> <br> <div style='float: left;padding-left:30px;'><p>Press '1' for A</p></div><div style='float: right;padding-right:30px;'><p>Press '0' for B</p> </div> </div></div>","null","","","","","","","","","","","","","",""
"2560","","test","audio-keyboard-response","153","383323","0.0-8.0-1.62","5d8108c0a6d2bf001afdb2d9","condB","","resources/audio/wordStim/S3_AU_11_bxa_Step-5.wav","49","","","","","AU","resources/audio/wordStim/S3_AU_11_bxa_Step-5.wav","S3","11","bxa","5","MI","1","1","true"
"null","","fixation","html-keyboard-response","154","384353","0.0-8.0-0.63","5d8108c0a6d2bf001afdb2d9","condB","","<div class=""vertical-center"" style='width:60%;'><p style='font-weight:bold;'>Does the middle word sound more like the first word (A) or the last word (B)?</p> <br> <div class=""container""> <div id=""a-box""> <p class=""title-text"">A</h3></p> </div> <div id=""x-box""> <p class=""title-text"">X<p> </div> <div id=""b-box""> <p class=""title-text"">B</p></div> <br> <div style='float: left;padding-left:30px;'><p>Press '1' for A</p></div><div style='float: right;padding-right:30px;'><p>Press '0' for B</p> </div> </div></div>","null","","","","","","","","","","","","","",""
"3240","","test","audio-keyboard-response","155","387592","0.0-8.0-1.63","5d8108c0a6d2bf001afdb2d9","condB","","resources/audio/wordStim/S3_AU_16_bxa_Step-5.wav","48","","","","","AU","resources/audio/wordStim/S3_AU_16_bxa_Step-5.wav","S3","16","bxa","5","MI","1","0","false"
"null","","fixation","html-keyboard-response","156","388607","0.0-8.0-0.64","5d8108c0a6d2bf001afdb2d9","condB","","<div class=""vertical-center"" style='width:60%;'><p style='font-weight:bold;'>Does the middle word sound more like the first word (A) or the last word (B)?</p> <br> <div class=""container""> <div id=""a-box""> <p class=""title-text"">A</h3></p> </div> <div id=""x-box""> <p class=""title-text"">X<p> </div> <div id=""b-box""> <p class=""title-text"">B</p></div> <br> <div style='float: left;padding-left:30px;'><p>Press '1' for A</p></div><div style='float: right;padding-right:30px;'><p>Press '0' for B</p> </div> </div></div>","null","","","","","","","","","","","","","",""
"2488","","test","audio-keyboard-response","157","391098","0.0-8.0-1.64","5d8108c0a6d2bf001afdb2d9","condB","","resources/audio/wordStim/S9_AU_14_bxa_Step-7.wav","49","","","","","AU","resources/audio/wordStim/S9_AU_14_bxa_Step-7.wav","S9","14","bxa","7","CN","1","1","true"
"null","","fixation","html-keyboard-response","158","392117","0.0-8.0-0.65","5d8108c0a6d2bf001afdb2d9","condB","","<div class=""vertical-center"" style='width:60%;'><p style='font-weight:bold;'>Does the middle word sound more like the first word (A) or the last word (B)?</p> <br> <div class=""container""> <div id=""a-box""> <p class=""title-text"">A</h3></p> </div> <div id=""x-box""> <p class=""title-text"">X<p> </div> <div id=""b-box""> <p class=""title-text"">B</p></div> <br> <div style='float: left;padding-left:30px;'><p>Press '1' for A</p></div><div style='float: right;padding-right:30px;'><p>Press '0' for B</p> </div> </div></div>","null","","","","","","","","","","","","","",""
"2299","","test","audio-keyboard-response","159","394416","0.0-8.0-1.65","5d8108c0a6d2bf001afdb2d9","condB","","resources/audio/wordStim/S3_AI_25_bxa_Step-9.wav","49","","","","","AI","resources/audio/wordStim/S3_AI_25_bxa_Step-9.wav","S3","25","bxa","9","MI","1","1","true"
"null","","fixation","html-keyboard-response","160","395437","0.0-8.0-0.66","5d8108c0a6d2bf001afdb2d9","condB","","<div class=""vertical-center"" style='width:60%;'><p style='font-weight:bold;'>Does the middle word sound more like the first word (A) or the last word (B)?</p> <br> <div class=""container""> <div id=""a-box""> <p class=""title-text"">A</h3></p> </div> <div id=""x-box""> <p class=""title-text"">X<p> </div> <div id=""b-box""> <p class=""title-text"">B</p></div> <br> <div style='float: left;padding-left:30px;'><p>Press '1' for A</p></div><div style='float: right;padding-right:30px;'><p>Press '0' for B</p> </div> </div></div>","null","","","","","","","","","","","","","",""
"2651","","test","audio-keyboard-response","161","398093","0.0-8.0-1.66","5d8108c0a6d2bf001afdb2d9","condB","","resources/audio/wordStim/S9_AI_23_bxa_Step-7.wav","49","","","","","AI","resources/audio/wordStim/S9_AI_23_bxa_Step-7.wav","S9","23","bxa","7","CN","1","1","true"
"null","","fixation","html-keyboard-response","162","399109","0.0-8.0-0.67","5d8108c0a6d2bf001afdb2d9","condB","","<div class=""vertical-center"" style='width:60%;'><p style='font-weight:bold;'>Does the middle word sound more like the first word (A) or the last word (B)?</p> <br> <div class=""container""> <div id=""a-box""> <p class=""title-text"">A</h3></p> </div> <div id=""x-box""> <p class=""title-text"">X<p> </div> <div id=""b-box""> <p class=""title-text"">B</p></div> <br> <div style='float: left;padding-left:30px;'><p>Press '1' for A</p></div><div style='float: right;padding-right:30px;'><p>Press '0' for B</p> </div> </div></div>","null","","","","","","","","","","","","","",""
"2800","","test","audio-keyboard-response","163","401912","0.0-8.0-1.67","5d8108c0a6d2bf001afdb2d9","condB","","resources/audio/wordStim/S3_AI_29_axb_Step-8.wav","49","","","","","AI","resources/audio/wordStim/S3_AI_29_axb_Step-8.wav","S3","29","axb","8","MI","0","1","false"
"null","","fixation","html-keyboard-response","164","402922","0.0-8.0-0.68","5d8108c0a6d2bf001afdb2d9","condB","","<div class=""vertical-center"" style='width:60%;'><p style='font-weight:bold;'>Does the middle word sound more like the first word (A) or the last word (B)?</p> <br> <div class=""container""> <div id=""a-box""> <p class=""title-text"">A</h3></p> </div> <div id=""x-box""> <p class=""title-text"">X<p> </div> <div id=""b-box""> <p class=""title-text"">B</p></div> <br> <div style='float: left;padding-left:30px;'><p>Press '1' for A</p></div><div style='float: right;padding-right:30px;'><p>Press '0' for B</p> </div> </div></div>","null","","","","","","","","","","","","","",""
"2859","","test","audio-keyboard-response","165","405778","0.0-8.0-1.68","5d8108c0a6d2bf001afdb2d9","condB","","resources/audio/wordStim/S3_AI_29_bxa_Step-5.wav","48","","","","","AI","resources/audio/wordStim/S3_AI_29_bxa_Step-5.wav","S3","29","bxa","5","MI","1","0","false"
"null","","fixation","html-keyboard-response","166","406802","0.0-8.0-0.69","5d8108c0a6d2bf001afdb2d9","condB","","<div class=""vertical-center"" style='width:60%;'><p style='font-weight:bold;'>Does the middle word sound more like the first word (A) or the last word (B)?</p> <br> <div class=""container""> <div id=""a-box""> <p class=""title-text"">A</h3></p> </div> <div id=""x-box""> <p class=""title-text"">X<p> </div> <div id=""b-box""> <p class=""title-text"">B</p></div> <br> <div style='float: left;padding-left:30px;'><p>Press '1' for A</p></div><div style='float: right;padding-right:30px;'><p>Press '0' for B</p> </div> </div></div>","null","","","","","","","","","","","","","",""
"2531","","test","audio-keyboard-response","167","409328","0.0-8.0-1.69","5d8108c0a6d2bf001afdb2d9","condB","","resources/audio/wordStim/S3_AI_25_axb_Step-2.wav","48","","","","","AI","resources/audio/wordStim/S3_AI_25_axb_Step-2.wav","S3","25","axb","2","MI","0","0","true"
"null","","fixation","html-keyboard-response","168","410354","0.0-8.0-0.70","5d8108c0a6d2bf001afdb2d9","condB","","<div class=""vertical-center"" style='width:60%;'><p style='font-weight:bold;'>Does the middle word sound more like the first word (A) or the last word (B)?</p> <br> <div class=""container""> <div id=""a-box""> <p class=""title-text"">A</h3></p> </div> <div id=""x-box""> <p class=""title-text"">X<p> </div> <div id=""b-box""> <p class=""title-text"">B</p></div> <br> <div style='float: left;padding-left:30px;'><p>Press '1' for A</p></div><div style='float: right;padding-right:30px;'><p>Press '0' for B</p> </div> </div></div>","null","","","","","","","","","","","","","",""
"2320","","test","audio-keyboard-response","169","412674","0.0-8.0-1.70","5d8108c0a6d2bf001afdb2d9","condB","","resources/audio/wordStim/S3_AU_14_axb_Step-8.wav","49","","","","","AU","resources/audio/wordStim/S3_AU_14_axb_Step-8.wav","S3","14","axb","8","MI","0","1","false"
"null","","fixation","html-keyboard-response","170","413681","0.0-8.0-0.71","5d8108c0a6d2bf001afdb2d9","condB","","<div class=""vertical-center"" style='width:60%;'><p style='font-weight:bold;'>Does the middle word sound more like the first word (A) or the last word (B)?</p> <br> <div class=""container""> <div id=""a-box""> <p class=""title-text"">A</h3></p> </div> <div id=""x-box""> <p class=""title-text"">X<p> </div> <div id=""b-box""> <p class=""title-text"">B</p></div> <br> <div style='float: left;padding-left:30px;'><p>Press '1' for A</p></div><div style='float: right;padding-right:30px;'><p>Press '0' for B</p> </div> </div></div>","null","","","","","","","","","","","","","",""
"4240","","test","audio-keyboard-response","171","417924","0.0-8.0-1.71","5d8108c0a6d2bf001afdb2d9","condB","","resources/audio/wordStim/S9_AI_29_axb_Step-6.wav","48","","","","","AI","resources/audio/wordStim/S9_AI_29_axb_Step-6.wav","S9","29","axb","6","CN","0","0","true"
"null","","fixation","html-keyboard-response","172","418930","0.0-8.0-0.72","5d8108c0a6d2bf001afdb2d9","condB","","<div class=""vertical-center"" style='width:60%;'><p style='font-weight:bold;'>Does the middle word sound more like the first word (A) or the last word (B)?</p> <br> <div class=""container""> <div id=""a-box""> <p class=""title-text"">A</h3></p> </div> <div id=""x-box""> <p class=""title-text"">X<p> </div> <div id=""b-box""> <p class=""title-text"">B</p></div> <br> <div style='float: left;padding-left:30px;'><p>Press '1' for A</p></div><div style='float: right;padding-right:30px;'><p>Press '0' for B</p> </div> </div></div>","null","","","","","","","","","","","","","",""
"2989","","test","audio-keyboard-response","173","421916","0.0-8.0-1.72","5d8108c0a6d2bf001afdb2d9","condB","","resources/audio/wordStim/S9_AI_22_axb_Step-4.wav","48","","","","","AI","resources/audio/wordStim/S9_AI_22_axb_Step-4.wav","S9","22","axb","4","CN","0","0","true"
"null","","fixation","html-keyboard-response","174","422926","0.0-8.0-0.73","5d8108c0a6d2bf001afdb2d9","condB","","<div class=""vertical-center"" style='width:60%;'><p style='font-weight:bold;'>Does the middle word sound more like the first word (A) or the last word (B)?</p> <br> <div class=""container""> <div id=""a-box""> <p class=""title-text"">A</h3></p> </div> <div id=""x-box""> <p class=""title-text"">X<p> </div> <div id=""b-box""> <p class=""title-text"">B</p></div> <br> <div style='float: left;padding-left:30px;'><p>Press '1' for A</p></div><div style='float: right;padding-right:30px;'><p>Press '0' for B</p> </div> </div></div>","null","","","","","","","","","","","","","",""
"3189","","test","audio-keyboard-response","175","426124","0.0-8.0-1.73","5d8108c0a6d2bf001afdb2d9","condB","","resources/audio/wordStim/S3_AU_17_axb_Step-4.wav","49","","","","","AU","resources/audio/wordStim/S3_AU_17_axb_Step-4.wav","S3","17","axb","4","MI","0","1","false"
"null","","fixation","html-keyboard-response","176","427125","0.0-8.0-0.74","5d8108c0a6d2bf001afdb2d9","condB","","<div class=""vertical-center"" style='width:60%;'><p style='font-weight:bold;'>Does the middle word sound more like the first word (A) or the last word (B)?</p> <br> <div class=""container""> <div id=""a-box""> <p class=""title-text"">A</h3></p> </div> <div id=""x-box""> <p class=""title-text"">X<p> </div> <div id=""b-box""> <p class=""title-text"">B</p></div> <br> <div style='float: left;padding-left:30px;'><p>Press '1' for A</p></div><div style='float: right;padding-right:30px;'><p>Press '0' for B</p> </div> </div></div>","null","","","","","","","","","","","","","",""
"3619","","test","audio-keyboard-response","177","430745","0.0-8.0-1.74","5d8108c0a6d2bf001afdb2d9","condB","","resources/audio/wordStim/S3_AI_25_axb_Step-4.wav","48","","","","","AI","resources/audio/wordStim/S3_AI_25_axb_Step-4.wav","S3","25","axb","4","MI","0","0","true"
"null","","fixation","html-keyboard-response","178","431746","0.0-8.0-0.75","5d8108c0a6d2bf001afdb2d9","condB","","<div class=""vertical-center"" style='width:60%;'><p style='font-weight:bold;'>Does the middle word sound more like the first word (A) or the last word (B)?</p> <br> <div class=""container""> <div id=""a-box""> <p class=""title-text"">A</h3></p> </div> <div id=""x-box""> <p class=""title-text"">X<p> </div> <div id=""b-box""> <p class=""title-text"">B</p></div> <br> <div style='float: left;padding-left:30px;'><p>Press '1' for A</p></div><div style='float: right;padding-right:30px;'><p>Press '0' for B</p> </div> </div></div>","null","","","","","","","","","","","","","",""
"2560","","test","audio-keyboard-response","179","434313","0.0-8.0-1.75","5d8108c0a6d2bf001afdb2d9","condB","","resources/audio/wordStim/S9_AI_29_axb_Step-2.wav","49","","","","","AI","resources/audio/wordStim/S9_AI_29_axb_Step-2.wav","S9","29","axb","2","CN","0","1","false"
"null","","fixation","html-keyboard-response","180","435341","0.0-8.0-0.76","5d8108c0a6d2bf001afdb2d9","condB","","<div class=""vertical-center"" style='width:60%;'><p style='font-weight:bold;'>Does the middle word sound more like the first word (A) or the last word (B)?</p> <br> <div class=""container""> <div id=""a-box""> <p class=""title-text"">A</h3></p> </div> <div id=""x-box""> <p class=""title-text"">X<p> </div> <div id=""b-box""> <p class=""title-text"">B</p></div> <br> <div style='float: left;padding-left:30px;'><p>Press '1' for A</p></div><div style='float: right;padding-right:30px;'><p>Press '0' for B</p> </div> </div></div>","null","","","","","","","","","","","","","",""
"2811","","test","audio-keyboard-response","181","438149","0.0-8.0-1.76","5d8108c0a6d2bf001afdb2d9","condB","","resources/audio/wordStim/S3_AI_28_axb_Step-2.wav","49","","","","","AI","resources/audio/wordStim/S3_AI_28_axb_Step-2.wav","S3","28","axb","2","MI","0","1","false"
"null","","fixation","html-keyboard-response","182","439156","0.0-8.0-0.77","5d8108c0a6d2bf001afdb2d9","condB","","<div class=""vertical-center"" style='width:60%;'><p style='font-weight:bold;'>Does the middle word sound more like the first word (A) or the last word (B)?</p> <br> <div class=""container""> <div id=""a-box""> <p class=""title-text"">A</h3></p> </div> <div id=""x-box""> <p class=""title-text"">X<p> </div> <div id=""b-box""> <p class=""title-text"">B</p></div> <br> <div style='float: left;padding-left:30px;'><p>Press '1' for A</p></div><div style='float: right;padding-right:30px;'><p>Press '0' for B</p> </div> </div></div>","null","","","","","","","","","","","","","",""
"2789","","test","audio-keyboard-response","183","441953","0.0-8.0-1.77","5d8108c0a6d2bf001afdb2d9","condB","","resources/audio/wordStim/S9_AU_11_bxa_Step-7.wav","49","","","","","AU","resources/audio/wordStim/S9_AU_11_bxa_Step-7.wav","S9","11","bxa","7","CN","1","1","true"
"null","","fixation","html-keyboard-response","184","442959","0.0-8.0-0.78","5d8108c0a6d2bf001afdb2d9","condB","","<div class=""vertical-center"" style='width:60%;'><p style='font-weight:bold;'>Does the middle word sound more like the first word (A) or the last word (B)?</p> <br> <div class=""container""> <div id=""a-box""> <p class=""title-text"">A</h3></p> </div> <div id=""x-box""> <p class=""title-text"">X<p> </div> <div id=""b-box""> <p class=""title-text"">B</p></div> <br> <div style='float: left;padding-left:30px;'><p>Press '1' for A</p></div><div style='float: right;padding-right:30px;'><p>Press '0' for B</p> </div> </div></div>","null","","","","","","","","","","","","","",""
"2440","","test","audio-keyboard-response","185","445401","0.0-8.0-1.78","5d8108c0a6d2bf001afdb2d9","condB","","resources/audio/wordStim/S3_AI_28_axb_Step-4.wav","49","","","","","AI","resources/audio/wordStim/S3_AI_28_axb_Step-4.wav","S3","28","axb","4","MI","0","1","false"
"null","","fixation","html-keyboard-response","186","446417","0.0-8.0-0.79","5d8108c0a6d2bf001afdb2d9","condB","","<div class=""vertical-center"" style='width:60%;'><p style='font-weight:bold;'>Does the middle word sound more like the first word (A) or the last word (B)?</p> <br> <div class=""container""> <div id=""a-box""> <p class=""title-text"">A</h3></p> </div> <div id=""x-box""> <p class=""title-text"">X<p> </div> <div id=""b-box""> <p class=""title-text"">B</p></div> <br> <div style='float: left;padding-left:30px;'><p>Press '1' for A</p></div><div style='float: right;padding-right:30px;'><p>Press '0' for B</p> </div> </div></div>","null","","","","","","","","","","","","","",""
"3040","","test","audio-keyboard-response","187","449464","0.0-8.0-1.79","5d8108c0a6d2bf001afdb2d9","condB","","resources/audio/wordStim/S9_AI_22_bxa_Step-10.wav","49","","","","","AI","resources/audio/wordStim/S9_AI_22_bxa_Step-10.wav","S9","22","bxa","10","CN","1","1","true"
"null","","fixation","html-keyboard-response","188","450466","0.0-8.0-0.80","5d8108c0a6d2bf001afdb2d9","condB","","<div class=""vertical-center"" style='width:60%;'><p style='font-weight:bold;'>Does the middle word sound more like the first word (A) or the last word (B)?</p> <br> <div class=""container""> <div id=""a-box""> <p class=""title-text"">A</h3></p> </div> <div id=""x-box""> <p class=""title-text"">X<p> </div> <div id=""b-box""> <p class=""title-text"">B</p></div> <br> <div style='float: left;padding-left:30px;'><p>Press '1' for A</p></div><div style='float: right;padding-right:30px;'><p>Press '0' for B</p> </div> </div></div>","null","","","","","","","","","","","","","",""
"2261","","test","audio-keyboard-response","189","452735","0.0-8.0-1.80","5d8108c0a6d2bf001afdb2d9","condB","","resources/audio/wordStim/S9_AU_20_axb_Step-4.wav","48","","","","","AU","resources/audio/wordStim/S9_AU_20_axb_Step-4.wav","S9","20","axb","4","CN","0","0","true"
"1087.9800000111572","","break","html-keyboard-response","190","454326","0.0-8.0-2.80-0.80","5d8108c0a6d2bf001afdb2d9","condB","","<div class=""vertical-center""><p>Feel free to take a break!</p><i>When you're ready to continue, press SPACE to begin the next trial.</i></p></div>","32","","","","","","","","","","","","","",""
"null","","fixation","html-keyboard-response","191","454832","0.0-8.0-0.81","5d8108c0a6d2bf001afdb2d9","condB","","<div class=""vertical-center"" style='width:60%;'><p style='font-weight:bold;'>Does the middle word sound more like the first word (A) or the last word (B)?</p> <br> <div class=""container""> <div id=""a-box""> <p class=""title-text"">A</h3></p> </div> <div id=""x-box""> <p class=""title-text"">X<p> </div> <div id=""b-box""> <p class=""title-text"">B</p></div> <br> <div style='float: left;padding-left:30px;'><p>Press '1' for A</p></div><div style='float: right;padding-right:30px;'><p>Press '0' for B</p> </div> </div></div>","null","","","","","","","","","","","","","",""
"2720","","test","audio-keyboard-response","192","457548","0.0-8.0-1.81","5d8108c0a6d2bf001afdb2d9","condB","","resources/audio/wordStim/S9_AI_25_bxa_Step-9.wav","49","","","","","AI","resources/audio/wordStim/S9_AI_25_bxa_Step-9.wav","S9","25","bxa","9","CN","1","1","true"
"null","","fixation","html-keyboard-response","193","458550","0.0-8.0-0.82","5d8108c0a6d2bf001afdb2d9","condB","","<div class=""vertical-center"" style='width:60%;'><p style='font-weight:bold;'>Does the middle word sound more like the first word (A) or the last word (B)?</p> <br> <div class=""container""> <div id=""a-box""> <p class=""title-text"">A</h3></p> </div> <div id=""x-box""> <p class=""title-text"">X<p> </div> <div id=""b-box""> <p class=""title-text"">B</p></div> <br> <div style='float: left;padding-left:30px;'><p>Press '1' for A</p></div><div style='float: right;padding-right:30px;'><p>Press '0' for B</p> </div> </div></div>","null","","","","","","","","","","","","","",""
"3440","","test","audio-keyboard-response","194","461993","0.0-8.0-1.82","5d8108c0a6d2bf001afdb2d9","condB","","resources/audio/wordStim/S3_AU_18_axb_Step-4.wav","49","","","","","AU","resources/audio/wordStim/S3_AU_18_axb_Step-4.wav","S3","18","axb","4","MI","0","1","false"
"null","","fixation","html-keyboard-response","195","462997","0.0-8.0-0.83","5d8108c0a6d2bf001afdb2d9","condB","","<div class=""vertical-center"" style='width:60%;'><p style='font-weight:bold;'>Does the middle word sound more like the first word (A) or the last word (B)?</p> <br> <div class=""container""> <div id=""a-box""> <p class=""title-text"">A</h3></p> </div> <div id=""x-box""> <p class=""title-text"">X<p> </div> <div id=""b-box""> <p class=""title-text"">B</p></div> <br> <div style='float: left;padding-left:30px;'><p>Press '1' for A</p></div><div style='float: right;padding-right:30px;'><p>Press '0' for B</p> </div> </div></div>","null","","","","","","","","","","","","","",""
"2480","","test","audio-keyboard-response","196","465476","0.0-8.0-1.83","5d8108c0a6d2bf001afdb2d9","condB","","resources/audio/wordStim/S3_AU_14_bxa_Step-7.wav","49","","","","","AU","resources/audio/wordStim/S3_AU_14_bxa_Step-7.wav","S3","14","bxa","7","MI","1","1","true"
"null","","fixation","html-keyboard-response","197","466487","0.0-8.0-0.84","5d8108c0a6d2bf001afdb2d9","condB","","<div class=""vertical-center"" style='width:60%;'><p style='font-weight:bold;'>Does the middle word sound more like the first word (A) or the last word (B)?</p> <br> <div class=""container""> <div id=""a-box""> <p class=""title-text"">A</h3></p> </div> <div id=""x-box""> <p class=""title-text"">X<p> </div> <div id=""b-box""> <p class=""title-text"">B</p></div> <br> <div style='float: left;padding-left:30px;'><p>Press '1' for A</p></div><div style='float: right;padding-right:30px;'><p>Press '0' for B</p> </div> </div></div>","null","","","","","","","","","","","","","",""
"2968","","test","audio-keyboard-response","198","469462","0.0-8.0-1.84","5d8108c0a6d2bf001afdb2d9","condB","","resources/audio/wordStim/S9_AI_22_axb_Step-6.wav","49","","","","","AI","resources/audio/wordStim/S9_AI_22_axb_Step-6.wav","S9","22","axb","6","CN","0","1","false"
"null","","fixation","html-keyboard-response","199","470468","0.0-8.0-0.85","5d8108c0a6d2bf001afdb2d9","condB","","<div class=""vertical-center"" style='width:60%;'><p style='font-weight:bold;'>Does the middle word sound more like the first word (A) or the last word (B)?</p> <br> <div class=""container""> <div id=""a-box""> <p class=""title-text"">A</h3></p> </div> <div id=""x-box""> <p class=""title-text"">X<p> </div> <div id=""b-box""> <p class=""title-text"">B</p></div> <br> <div style='float: left;padding-left:30px;'><p>Press '1' for A</p></div><div style='float: right;padding-right:30px;'><p>Press '0' for B</p> </div> </div></div>","null","","","","","","","","","","","","","",""
"2469","","test","audio-keyboard-response","200","472939","0.0-8.0-1.85","5d8108c0a6d2bf001afdb2d9","condB","","resources/audio/wordStim/S9_AI_27_bxa_Step-10.wav","49","","","","","AI","resources/audio/wordStim/S9_AI_27_bxa_Step-10.wav","S9","27","bxa","10","CN","1","1","true"
"null","","fixation","html-keyboard-response","201","473969","0.0-8.0-0.86","5d8108c0a6d2bf001afdb2d9","condB","","<div class=""vertical-center"" style='width:60%;'><p style='font-weight:bold;'>Does the middle word sound more like the first word (A) or the last word (B)?</p> <br> <div class=""container""> <div id=""a-box""> <p class=""title-text"">A</h3></p> </div> <div id=""x-box""> <p class=""title-text"">X<p> </div> <div id=""b-box""> <p class=""title-text"">B</p></div> <br> <div style='float: left;padding-left:30px;'><p>Press '1' for A</p></div><div style='float: right;padding-right:30px;'><p>Press '0' for B</p> </div> </div></div>","null","","","","","","","","","","","","","",""
"2749","","test","audio-keyboard-response","202","476722","0.0-8.0-1.86","5d8108c0a6d2bf001afdb2d9","condB","","resources/audio/wordStim/S9_AI_30_axb_Step-6.wav","49","","","","","AI","resources/audio/wordStim/S9_AI_30_axb_Step-6.wav","S9","30","axb","6","CN","0","1","false"
"null","","fixation","html-keyboard-response","203","477737","0.0-8.0-0.87","5d8108c0a6d2bf001afdb2d9","condB","","<div class=""vertical-center"" style='width:60%;'><p style='font-weight:bold;'>Does the middle word sound more like the first word (A) or the last word (B)?</p> <br> <div class=""container""> <div id=""a-box""> <p class=""title-text"">A</h3></p> </div> <div id=""x-box""> <p class=""title-text"">X<p> </div> <div id=""b-box""> <p class=""title-text"">B</p></div> <br> <div style='float: left;padding-left:30px;'><p>Press '1' for A</p></div><div style='float: right;padding-right:30px;'><p>Press '0' for B</p> </div> </div></div>","null","","","","","","","","","","","","","",""
"2411","","test","audio-keyboard-response","204","480154","0.0-8.0-1.87","5d8108c0a6d2bf001afdb2d9","condB","","resources/audio/wordStim/S3_AU_15_bxa_Step-9.wav","49","","","","","AU","resources/audio/wordStim/S3_AU_15_bxa_Step-9.wav","S3","15","bxa","9","MI","1","1","true"
"null","","fixation","html-keyboard-response","205","481165","0.0-8.0-0.88","5d8108c0a6d2bf001afdb2d9","condB","","<div class=""vertical-center"" style='width:60%;'><p style='font-weight:bold;'>Does the middle word sound more like the first word (A) or the last word (B)?</p> <br> <div class=""container""> <div id=""a-box""> <p class=""title-text"">A</h3></p> </div> <div id=""x-box""> <p class=""title-text"">X<p> </div> <div id=""b-box""> <p class=""title-text"">B</p></div> <br> <div style='float: left;padding-left:30px;'><p>Press '1' for A</p></div><div style='float: right;padding-right:30px;'><p>Press '0' for B</p> </div> </div></div>","null","","","","","","","","","","","","","",""
"2728","","test","audio-keyboard-response","206","483900","0.0-8.0-1.88","5d8108c0a6d2bf001afdb2d9","condB","","resources/audio/wordStim/S9_AI_27_axb_Step-8.wav","48","","","","","AI","resources/audio/wordStim/S9_AI_27_axb_Step-8.wav","S9","27","axb","8","CN","0","0","true"
"null","","fixation","html-keyboard-response","207","484909","0.0-8.0-0.89","5d8108c0a6d2bf001afdb2d9","condB","","<div class=""vertical-center"" style='width:60%;'><p style='font-weight:bold;'>Does the middle word sound more like the first word (A) or the last word (B)?</p> <br> <div class=""container""> <div id=""a-box""> <p class=""title-text"">A</h3></p> </div> <div id=""x-box""> <p class=""title-text"">X<p> </div> <div id=""b-box""> <p class=""title-text"">B</p></div> <br> <div style='float: left;padding-left:30px;'><p>Press '1' for A</p></div><div style='float: right;padding-right:30px;'><p>Press '0' for B</p> </div> </div></div>","null","","","","","","","","","","","","","",""
"2451","","test","audio-keyboard-response","208","487360","0.0-8.0-1.89","5d8108c0a6d2bf001afdb2d9","condB","","resources/audio/wordStim/S9_AI_30_axb_Step-8.wav","48","","","","","AI","resources/audio/wordStim/S9_AI_30_axb_Step-8.wav","S9","30","axb","8","CN","0","0","true"
"null","","fixation","html-keyboard-response","209","488365","0.0-8.0-0.90","5d8108c0a6d2bf001afdb2d9","condB","","<div class=""vertical-center"" style='width:60%;'><p style='font-weight:bold;'>Does the middle word sound more like the first word (A) or the last word (B)?</p> <br> <div class=""container""> <div id=""a-box""> <p class=""title-text"">A</h3></p> </div> <div id=""x-box""> <p class=""title-text"">X<p> </div> <div id=""b-box""> <p class=""title-text"">B</p></div> <br> <div style='float: left;padding-left:30px;'><p>Press '1' for A</p></div><div style='float: right;padding-right:30px;'><p>Press '0' for B</p> </div> </div></div>","null","","","","","","","","","","","","","",""
"2979","","test","audio-keyboard-response","210","491347","0.0-8.0-1.90","5d8108c0a6d2bf001afdb2d9","condB","","resources/audio/wordStim/S3_AU_18_bxa_Step-5.wav","48","","","","","AU","resources/audio/wordStim/S3_AU_18_bxa_Step-5.wav","S3","18","bxa","5","MI","1","0","false"
"null","","fixation","html-keyboard-response","211","492356","0.0-8.0-0.91","5d8108c0a6d2bf001afdb2d9","condB","","<div class=""vertical-center"" style='width:60%;'><p style='font-weight:bold;'>Does the middle word sound more like the first word (A) or the last word (B)?</p> <br> <div class=""container""> <div id=""a-box""> <p class=""title-text"">A</h3></p> </div> <div id=""x-box""> <p class=""title-text"">X<p> </div> <div id=""b-box""> <p class=""title-text"">B</p></div> <br> <div style='float: left;padding-left:30px;'><p>Press '1' for A</p></div><div style='float: right;padding-right:30px;'><p>Press '0' for B</p> </div> </div></div>","null","","","","","","","","","","","","","",""
"2909","","test","audio-keyboard-response","212","495271","0.0-8.0-1.91","5d8108c0a6d2bf001afdb2d9","condB","","resources/audio/wordStim/S9_AU_14_axb_Step-6.wav","48","","","","","AU","resources/audio/wordStim/S9_AU_14_axb_Step-6.wav","S9","14","axb","6","CN","0","0","true"
"null","","fixation","html-keyboard-response","213","496290","0.0-8.0-0.92","5d8108c0a6d2bf001afdb2d9","condB","","<div class=""vertical-center"" style='width:60%;'><p style='font-weight:bold;'>Does the middle word sound more like the first word (A) or the last word (B)?</p> <br> <div class=""container""> <div id=""a-box""> <p class=""title-text"">A</h3></p> </div> <div id=""x-box""> <p class=""title-text"">X<p> </div> <div id=""b-box""> <p class=""title-text"">B</p></div> <br> <div style='float: left;padding-left:30px;'><p>Press '1' for A</p></div><div style='float: right;padding-right:30px;'><p>Press '0' for B</p> </div> </div></div>","null","","","","","","","","","","","","","",""
"2400","","test","audio-keyboard-response","214","498695","0.0-8.0-1.92","5d8108c0a6d2bf001afdb2d9","condB","","resources/audio/wordStim/S3_AI_25_axb_Step-6.wav","49","","","","","AI","resources/audio/wordStim/S3_AI_25_axb_Step-6.wav","S3","25","axb","6","MI","0","1","false"
