"rt","url","trial_role","trial_type","trial_index","time_elapsed","internal_node_id","participantId","condition","view_history","stimulus","key_press","button_pressed","correct_answer","correct_response","success","vowel","wordStim","speaker","sentNum","order","step","speakerIdentity","raised_answer","key_response","raised_response"
"25309.399999998277","micr.con.consent.html","consent","external-html","0","25356","0.0-0.0","5d9d5debf346240014428500","condB","","","","","","","","","","","","","","","","",""
"60925.52499999874","","instructions","instructions","1","86297","0.0-1.0","5d9d5debf346240014428500","condB","[{""page_index"":0,""viewing_time"":38167.90499999479},{""page_index"":1,""viewing_time"":14357.045000011567},{""page_index"":2,""viewing_time"":8398.130000001402}]","","","","","","","","","","","","","","","",""
"null","","fixation","html-keyboard-response","2","86802","0.0-2.0-0.0","5d9d5debf346240014428500","condB","","<div class=""vertical-center"" style=""font-size:60px;"">+</div>","null","","","","","","","","","","","","","",""
"4840.96000000136","","tonetest","audio-button-response","3","91650","0.0-2.0-1.0","5d9d5debf346240014428500","condB","","../../src/audio/toneTest_6.wav","","1","0","false","","","","","","","","","","",""
"null","","fixation","html-keyboard-response","4","92156","0.0-2.0-0.1","5d9d5debf346240014428500","condB","","<div class=""vertical-center"" style=""font-size:60px;"">+</div>","null","","","","","","","","","","","","","",""
"4672.14999999851","","tonetest","audio-button-response","5","96831","0.0-2.0-1.1","5d9d5debf346240014428500","condB","","../../src/audio/toneTest_5.wav","","2","0","false","","","","","","","","","","",""
"null","","fixation","html-keyboard-response","6","97339","0.0-2.0-0.2","5d9d5debf346240014428500","condB","","<div class=""vertical-center"" style=""font-size:60px;"">+</div>","null","","","","","","","","","","","","","",""
"4848.964999997406","","tonetest","audio-button-response","7","102192","0.0-2.0-1.2","5d9d5debf346240014428500","condB","","../../src/audio/toneTest_3.wav","","0","2","false","","","","","","","","","","",""
"null","","fixation","html-keyboard-response","8","102699","0.0-2.0-0.3","5d9d5debf346240014428500","condB","","<div class=""vertical-center"" style=""font-size:60px;"">+</div>","null","","","","","","","","","","","","","",""
"4724.549999998999","","tonetest","audio-button-response","9","107427","0.0-2.0-1.3","5d9d5debf346240014428500","condB","","../../src/audio/toneTest_2.wav","","2","1","false","","","","","","","","","","",""
"null","","fixation","html-keyboard-response","10","107933","0.0-2.0-0.4","5d9d5debf346240014428500","condB","","<div class=""vertical-center"" style=""font-size:60px;"">+</div>","null","","","","","","","","","","","","","",""
"6281.640000001062","","tonetest","audio-button-response","11","114220","0.0-2.0-1.4","5d9d5debf346240014428500","condB","","../../src/audio/toneTest_4.wav","","2","1","false","","","","","","","","","","",""
"null","","fixation","html-keyboard-response","12","114724","0.0-2.0-0.5","5d9d5debf346240014428500","condB","","<div class=""vertical-center"" style=""font-size:60px;"">+</div>","null","","","","","","","","","","","","","",""
"4722.495000009076","","tonetest","audio-button-response","13","119451","0.0-2.0-1.5","5d9d5debf346240014428500","condB","","../../src/audio/toneTest_1.wav","","1","2","false","","","","","","","","","","",""
"16397.01000000059","","instructions","html-keyboard-response","14","135853","0.0-3.0","5d9d5debf346240014428500","condB","","<div class=""vertical-center""><p><b>Your score was 0/6.</b></p><p>If you scored below 6, please ensure that you are wearing properly functioning headphones and in a quiet location free of distractions.</p><p><i>To continue to the main experiment, press SPACE.</i></p></div>","32","","","","","","","","","","","","","",""
"","","","fullscreen","15","139308","0.0-4.0","5d9d5debf346240014428500","condB","","","","","","","true","","","","","","","","","",""
"30171.585000003688","","instructions","instructions","16","169481","0.0-5.0","5d9d5debf346240014428500","condB","[{""page_index"":0,""viewing_time"":30171.279999995022}]","","","","","","","","","","","","","","","",""
"null","","fixation","html-keyboard-response","17","169984","0.0-6.0-0.0","5d9d5debf346240014428500","condB","","<div class=""vertical-center"" style='width:60%;'><p style='font-weight:bold;'>Does the middle word sound more like the first word (A) or the last word (B)?</p> <br> <div class=""container""> <div id=""a-box""> <p class=""title-text"">A</h3></p> </div> <div id=""x-box""> <p class=""title-text"">X<p> </div> <div id=""b-box""> <p class=""title-text"">B</p></div> <br> <div style='float: left;padding-left:30px;'><p>Press '1' for A</p></div><div style='float: right;padding-right:30px;'><p>Press '0' for B</p> </div> </div></div>","null","","","","","","","","","","","","","",""
"3760","","practice","audio-keyboard-response","18","173853","0.0-6.0-1.0","5d9d5debf346240014428500","condB","","resources/audio/practiceStim/S1_AU_14_axb_Step-6.wav","49","","","","","","","","","","","","","",""
"null","","fixation","html-keyboard-response","19","174863","0.0-6.0-0.1","5d9d5debf346240014428500","condB","","<div class=""vertical-center"" style='width:60%;'><p style='font-weight:bold;'>Does the middle word sound more like the first word (A) or the last word (B)?</p> <br> <div class=""container""> <div id=""a-box""> <p class=""title-text"">A</h3></p> </div> <div id=""x-box""> <p class=""title-text"">X<p> </div> <div id=""b-box""> <p class=""title-text"">B</p></div> <br> <div style='float: left;padding-left:30px;'><p>Press '1' for A</p></div><div style='float: right;padding-right:30px;'><p>Press '0' for B</p> </div> </div></div>","null","","","","","","","","","","","","","",""
"3869","","practice","audio-keyboard-response","20","178737","0.0-6.0-1.1","5d9d5debf346240014428500","condB","","resources/audio/practiceStim/S1_AI_21_bxa_Step-6.wav","48","","","","","","","","","","","","","",""
"null","","fixation","html-keyboard-response","21","179741","0.0-6.0-0.2","5d9d5debf346240014428500","condB","","<div class=""vertical-center"" style='width:60%;'><p style='font-weight:bold;'>Does the middle word sound more like the first word (A) or the last word (B)?</p> <br> <div class=""container""> <div id=""a-box""> <p class=""title-text"">A</h3></p> </div> <div id=""x-box""> <p class=""title-text"">X<p> </div> <div id=""b-box""> <p class=""title-text"">B</p></div> <br> <div style='float: left;padding-left:30px;'><p>Press '1' for A</p></div><div style='float: right;padding-right:30px;'><p>Press '0' for B</p> </div> </div></div>","null","","","","","","","","","","","","","",""
"3600","","practice","audio-keyboard-response","22","183340","0.0-6.0-1.2","5d9d5debf346240014428500","condB","","resources/audio/practiceStim/S1_AI_21_axb_Step-6.wav","49","","","","","","","","","","","","","",""
"null","","fixation","html-keyboard-response","23","184356","0.0-6.0-0.3","5d9d5debf346240014428500","condB","","<div class=""vertical-center"" style='width:60%;'><p style='font-weight:bold;'>Does the middle word sound more like the first word (A) or the last word (B)?</p> <br> <div class=""container""> <div id=""a-box""> <p class=""title-text"">A</h3></p> </div> <div id=""x-box""> <p class=""title-text"">X<p> </div> <div id=""b-box""> <p class=""title-text"">B</p></div> <br> <div style='float: left;padding-left:30px;'><p>Press '1' for A</p></div><div style='float: right;padding-right:30px;'><p>Press '0' for B</p> </div> </div></div>","null","","","","","","","","","","","","","",""
"3272","","practice","audio-keyboard-response","24","187632","0.0-6.0-1.3","5d9d5debf346240014428500","condB","","resources/audio/practiceStim/S1_AU_14_bxa_Step-6.wav","49","","","","","","","","","","","","","",""
"2686.405000000377","","instructions","instructions","25","190829","0.0-7.0","5d9d5debf346240014428500","condB","[{""page_index"":0,""viewing_time"":2686.025000002701}]","","","","","","","","","","","","","","","",""
"null","","fixation","html-keyboard-response","26","191334","0.0-8.0-0.0","5d9d5debf346240014428500","condB","","<div class=""vertical-center"" style='width:60%;'><p style='font-weight:bold;'>Does the middle word sound more like the first word (A) or the last word (B)?</p> <br> <div class=""container""> <div id=""a-box""> <p class=""title-text"">A</h3></p> </div> <div id=""x-box""> <p class=""title-text"">X<p> </div> <div id=""b-box""> <p class=""title-text"">B</p></div> <br> <div style='float: left;padding-left:30px;'><p>Press '1' for A</p></div><div style='float: right;padding-right:30px;'><p>Press '0' for B</p> </div> </div></div>","null","","","","","","","","","","","","","",""
"3840","","test","audio-keyboard-response","27","195175","0.0-8.0-1.0","5d9d5debf346240014428500","condB","","resources/audio/wordStim/S3_AU_16_axb_Step-6.wav","49","","","","","AU","resources/audio/wordStim/S3_AU_16_axb_Step-6.wav","S3","16","axb","6","MI","0","1","false"
"null","","fixation","html-keyboard-response","28","196207","0.0-8.0-0.1","5d9d5debf346240014428500","condB","","<div class=""vertical-center"" style='width:60%;'><p style='font-weight:bold;'>Does the middle word sound more like the first word (A) or the last word (B)?</p> <br> <div class=""container""> <div id=""a-box""> <p class=""title-text"">A</h3></p> </div> <div id=""x-box""> <p class=""title-text"">X<p> </div> <div id=""b-box""> <p class=""title-text"">B</p></div> <br> <div style='float: left;padding-left:30px;'><p>Press '1' for A</p></div><div style='float: right;padding-right:30px;'><p>Press '0' for B</p> </div> </div></div>","null","","","","","","","","","","","","","",""
"2869","","test","audio-keyboard-response","29","199089","0.0-8.0-1.1","5d9d5debf346240014428500","condB","","resources/audio/wordStim/S3_AU_19_axb_Step-4.wav","49","","","","","AU","resources/audio/wordStim/S3_AU_19_axb_Step-4.wav","S3","19","axb","4","MI","0","1","false"
"null","","fixation","html-keyboard-response","30","200092","0.0-8.0-0.2","5d9d5debf346240014428500","condB","","<div class=""vertical-center"" style='width:60%;'><p style='font-weight:bold;'>Does the middle word sound more like the first word (A) or the last word (B)?</p> <br> <div class=""container""> <div id=""a-box""> <p class=""title-text"">A</h3></p> </div> <div id=""x-box""> <p class=""title-text"">X<p> </div> <div id=""b-box""> <p class=""title-text"">B</p></div> <br> <div style='float: left;padding-left:30px;'><p>Press '1' for A</p></div><div style='float: right;padding-right:30px;'><p>Press '0' for B</p> </div> </div></div>","null","","","","","","","","","","","","","",""
"3669","","test","audio-keyboard-response","31","203762","0.0-8.0-1.2","5d9d5debf346240014428500","condB","","resources/audio/wordStim/S9_AU_19_bxa_Step-9.wav","49","","","","","AU","resources/audio/wordStim/S9_AU_19_bxa_Step-9.wav","S9","19","bxa","9","CN","1","1","true"
"null","","fixation","html-keyboard-response","32","204779","0.0-8.0-0.3","5d9d5debf346240014428500","condB","","<div class=""vertical-center"" style='width:60%;'><p style='font-weight:bold;'>Does the middle word sound more like the first word (A) or the last word (B)?</p> <br> <div class=""container""> <div id=""a-box""> <p class=""title-text"">A</h3></p> </div> <div id=""x-box""> <p class=""title-text"">X<p> </div> <div id=""b-box""> <p class=""title-text"">B</p></div> <br> <div style='float: left;padding-left:30px;'><p>Press '1' for A</p></div><div style='float: right;padding-right:30px;'><p>Press '0' for B</p> </div> </div></div>","null","","","","","","","","","","","","","",""
"4619","","test","audio-keyboard-response","33","209400","0.0-8.0-1.3","5d9d5debf346240014428500","condB","","resources/audio/wordStim/S9_AI_22_bxa_Step-5.wav","49","","","","","AI","resources/audio/wordStim/S9_AI_22_bxa_Step-5.wav","S9","22","bxa","5","CN","1","1","true"
"null","","fixation","html-keyboard-response","34","210410","0.0-8.0-0.4","5d9d5debf346240014428500","condB","","<div class=""vertical-center"" style='width:60%;'><p style='font-weight:bold;'>Does the middle word sound more like the first word (A) or the last word (B)?</p> <br> <div class=""container""> <div id=""a-box""> <p class=""title-text"">A</h3></p> </div> <div id=""x-box""> <p class=""title-text"">X<p> </div> <div id=""b-box""> <p class=""title-text"">B</p></div> <br> <div style='float: left;padding-left:30px;'><p>Press '1' for A</p></div><div style='float: right;padding-right:30px;'><p>Press '0' for B</p> </div> </div></div>","null","","","","","","","","","","","","","",""
"3280","","test","audio-keyboard-response","35","213696","0.0-8.0-1.4","5d9d5debf346240014428500","condB","","resources/audio/wordStim/S3_AI_23_bxa_Step-7.wav","48","","","","","AI","resources/audio/wordStim/S3_AI_23_bxa_Step-7.wav","S3","23","bxa","7","MI","1","0","false"
"null","","fixation","html-keyboard-response","36","214710","0.0-8.0-0.5","5d9d5debf346240014428500","condB","","<div class=""vertical-center"" style='width:60%;'><p style='font-weight:bold;'>Does the middle word sound more like the first word (A) or the last word (B)?</p> <br> <div class=""container""> <div id=""a-box""> <p class=""title-text"">A</h3></p> </div> <div id=""x-box""> <p class=""title-text"">X<p> </div> <div id=""b-box""> <p class=""title-text"">B</p></div> <br> <div style='float: left;padding-left:30px;'><p>Press '1' for A</p></div><div style='float: right;padding-right:30px;'><p>Press '0' for B</p> </div> </div></div>","null","","","","","","","","","","","","","",""
"3149","","test","audio-keyboard-response","37","217867","0.0-8.0-1.5","5d9d5debf346240014428500","condB","","resources/audio/wordStim/S3_AU_11_bxa_Step-9.wav","49","","","","","AU","resources/audio/wordStim/S3_AU_11_bxa_Step-9.wav","S3","11","bxa","9","MI","1","1","true"
"null","","fixation","html-keyboard-response","38","218892","0.0-8.0-0.6","5d9d5debf346240014428500","condB","","<div class=""vertical-center"" style='width:60%;'><p style='font-weight:bold;'>Does the middle word sound more like the first word (A) or the last word (B)?</p> <br> <div class=""container""> <div id=""a-box""> <p class=""title-text"">A</h3></p> </div> <div id=""x-box""> <p class=""title-text"">X<p> </div> <div id=""b-box""> <p class=""title-text"">B</p></div> <br> <div style='float: left;padding-left:30px;'><p>Press '1' for A</p></div><div style='float: right;padding-right:30px;'><p>Press '0' for B</p> </div> </div></div>","null","","","","","","","","","","","","","",""
"3261","","test","audio-keyboard-response","39","222149","0.0-8.0-1.6","5d9d5debf346240014428500","condB","","resources/audio/wordStim/S3_AI_22_bxa_Step-7.wav","48","","","","","AI","resources/audio/wordStim/S3_AI_22_bxa_Step-7.wav","S3","22","bxa","7","MI","1","0","false"
"null","","fixation","html-keyboard-response","40","223165","0.0-8.0-0.7","5d9d5debf346240014428500","condB","","<div class=""vertical-center"" style='width:60%;'><p style='font-weight:bold;'>Does the middle word sound more like the first word (A) or the last word (B)?</p> <br> <div class=""container""> <div id=""a-box""> <p class=""title-text"">A</h3></p> </div> <div id=""x-box""> <p class=""title-text"">X<p> </div> <div id=""b-box""> <p class=""title-text"">B</p></div> <br> <div style='float: left;padding-left:30px;'><p>Press '1' for A</p></div><div style='float: right;padding-right:30px;'><p>Press '0' for B</p> </div> </div></div>","null","","","","","","","","","","","","","",""
"2741","","test","audio-keyboard-response","41","225909","0.0-8.0-1.7","5d9d5debf346240014428500","condB","","resources/audio/wordStim/S9_AU_20_bxa_Step-5.wav","48","","","","","AU","resources/audio/wordStim/S9_AU_20_bxa_Step-5.wav","S9","20","bxa","5","CN","1","0","false"
"null","","fixation","html-keyboard-response","42","226921","0.0-8.0-0.8","5d9d5debf346240014428500","condB","","<div class=""vertical-center"" style='width:60%;'><p style='font-weight:bold;'>Does the middle word sound more like the first word (A) or the last word (B)?</p> <br> <div class=""container""> <div id=""a-box""> <p class=""title-text"">A</h3></p> </div> <div id=""x-box""> <p class=""title-text"">X<p> </div> <div id=""b-box""> <p class=""title-text"">B</p></div> <br> <div style='float: left;padding-left:30px;'><p>Press '1' for A</p></div><div style='float: right;padding-right:30px;'><p>Press '0' for B</p> </div> </div></div>","null","","","","","","","","","","","","","",""
"3211","","test","audio-keyboard-response","43","230138","0.0-8.0-1.8","5d9d5debf346240014428500","condB","","resources/audio/wordStim/S9_AU_13_axb_Step-8.wav","49","","","","","AU","resources/audio/wordStim/S9_AU_13_axb_Step-8.wav","S9","13","axb","8","CN","0","1","false"
"null","","fixation","html-keyboard-response","44","231167","0.0-8.0-0.9","5d9d5debf346240014428500","condB","","<div class=""vertical-center"" style='width:60%;'><p style='font-weight:bold;'>Does the middle word sound more like the first word (A) or the last word (B)?</p> <br> <div class=""container""> <div id=""a-box""> <p class=""title-text"">A</h3></p> </div> <div id=""x-box""> <p class=""title-text"">X<p> </div> <div id=""b-box""> <p class=""title-text"">B</p></div> <br> <div style='float: left;padding-left:30px;'><p>Press '1' for A</p></div><div style='float: right;padding-right:30px;'><p>Press '0' for B</p> </div> </div></div>","null","","","","","","","","","","","","","",""
"3149","","test","audio-keyboard-response","45","234328","0.0-8.0-1.9","5d9d5debf346240014428500","condB","","resources/audio/wordStim/S9_AU_11_bxa_Step-5.wav","48","","","","","AU","resources/audio/wordStim/S9_AU_11_bxa_Step-5.wav","S9","11","bxa","5","CN","1","0","false"
"null","","fixation","html-keyboard-response","46","235356","0.0-8.0-0.10","5d9d5debf346240014428500","condB","","<div class=""vertical-center"" style='width:60%;'><p style='font-weight:bold;'>Does the middle word sound more like the first word (A) or the last word (B)?</p> <br> <div class=""container""> <div id=""a-box""> <p class=""title-text"">A</h3></p> </div> <div id=""x-box""> <p class=""title-text"">X<p> </div> <div id=""b-box""> <p class=""title-text"">B</p></div> <br> <div style='float: left;padding-left:30px;'><p>Press '1' for A</p></div><div style='float: right;padding-right:30px;'><p>Press '0' for B</p> </div> </div></div>","null","","","","","","","","","","","","","",""
"4520","","test","audio-keyboard-response","47","239888","0.0-8.0-1.10","5d9d5debf346240014428500","condB","","resources/audio/wordStim/S9_AI_24_bxa_Step-7.wav","49","","","","","AI","resources/audio/wordStim/S9_AI_24_bxa_Step-7.wav","S9","24","bxa","7","CN","1","1","true"
"null","","fixation","html-keyboard-response","48","240901","0.0-8.0-0.11","5d9d5debf346240014428500","condB","","<div class=""vertical-center"" style='width:60%;'><p style='font-weight:bold;'>Does the middle word sound more like the first word (A) or the last word (B)?</p> <br> <div class=""container""> <div id=""a-box""> <p class=""title-text"">A</h3></p> </div> <div id=""x-box""> <p class=""title-text"">X<p> </div> <div id=""b-box""> <p class=""title-text"">B</p></div> <br> <div style='float: left;padding-left:30px;'><p>Press '1' for A</p></div><div style='float: right;padding-right:30px;'><p>Press '0' for B</p> </div> </div></div>","null","","","","","","","","","","","","","",""
"3851","","test","audio-keyboard-response","49","244757","0.0-8.0-1.11","5d9d5debf346240014428500","condB","","resources/audio/wordStim/S3_AU_16_bxa_Step-5.wav","48","","","","","AU","resources/audio/wordStim/S3_AU_16_bxa_Step-5.wav","S3","16","bxa","5","MI","1","0","false"
"null","","fixation","html-keyboard-response","50","245786","0.0-8.0-0.12","5d9d5debf346240014428500","condB","","<div class=""vertical-center"" style='width:60%;'><p style='font-weight:bold;'>Does the middle word sound more like the first word (A) or the last word (B)?</p> <br> <div class=""container""> <div id=""a-box""> <p class=""title-text"">A</h3></p> </div> <div id=""x-box""> <p class=""title-text"">X<p> </div> <div id=""b-box""> <p class=""title-text"">B</p></div> <br> <div style='float: left;padding-left:30px;'><p>Press '1' for A</p></div><div style='float: right;padding-right:30px;'><p>Press '0' for B</p> </div> </div></div>","null","","","","","","","","","","","","","",""
"3448","","test","audio-keyboard-response","51","249245","0.0-8.0-1.12","5d9d5debf346240014428500","condB","","resources/audio/wordStim/S3_AI_22_axb_Step-2.wav","49","","","","","AI","resources/audio/wordStim/S3_AI_22_axb_Step-2.wav","S3","22","axb","2","MI","0","1","false"
"null","","fixation","html-keyboard-response","52","250266","0.0-8.0-0.13","5d9d5debf346240014428500","condB","","<div class=""vertical-center"" style='width:60%;'><p style='font-weight:bold;'>Does the middle word sound more like the first word (A) or the last word (B)?</p> <br> <div class=""container""> <div id=""a-box""> <p class=""title-text"">A</h3></p> </div> <div id=""x-box""> <p class=""title-text"">X<p> </div> <div id=""b-box""> <p class=""title-text"">B</p></div> <br> <div style='float: left;padding-left:30px;'><p>Press '1' for A</p></div><div style='float: right;padding-right:30px;'><p>Press '0' for B</p> </div> </div></div>","null","","","","","","","","","","","","","",""
"3069","","test","audio-keyboard-response","53","253337","0.0-8.0-1.13","5d9d5debf346240014428500","condB","","resources/audio/wordStim/S9_AU_20_axb_Step-4.wav","48","","","","","AU","resources/audio/wordStim/S9_AU_20_axb_Step-4.wav","S9","20","axb","4","CN","0","0","true"
"null","","fixation","html-keyboard-response","54","254360","0.0-8.0-0.14","5d9d5debf346240014428500","condB","","<div class=""vertical-center"" style='width:60%;'><p style='font-weight:bold;'>Does the middle word sound more like the first word (A) or the last word (B)?</p> <br> <div class=""container""> <div id=""a-box""> <p class=""title-text"">A</h3></p> </div> <div id=""x-box""> <p class=""title-text"">X<p> </div> <div id=""b-box""> <p class=""title-text"">B</p></div> <br> <div style='float: left;padding-left:30px;'><p>Press '1' for A</p></div><div style='float: right;padding-right:30px;'><p>Press '0' for B</p> </div> </div></div>","null","","","","","","","","","","","","","",""
"3221","","test","audio-keyboard-response","55","257585","0.0-8.0-1.14","5d9d5debf346240014428500","condB","","resources/audio/wordStim/S3_AI_30_bxa_Step-9.wav","49","","","","","AI","resources/audio/wordStim/S3_AI_30_bxa_Step-9.wav","S3","30","bxa","9","MI","1","1","true"
"null","","fixation","html-keyboard-response","56","258594","0.0-8.0-0.15","5d9d5debf346240014428500","condB","","<div class=""vertical-center"" style='width:60%;'><p style='font-weight:bold;'>Does the middle word sound more like the first word (A) or the last word (B)?</p> <br> <div class=""container""> <div id=""a-box""> <p class=""title-text"">A</h3></p> </div> <div id=""x-box""> <p class=""title-text"">X<p> </div> <div id=""b-box""> <p class=""title-text"">B</p></div> <br> <div style='float: left;padding-left:30px;'><p>Press '1' for A</p></div><div style='float: right;padding-right:30px;'><p>Press '0' for B</p> </div> </div></div>","null","","","","","","","","","","","","","",""
"3029","","test","audio-keyboard-response","57","261625","0.0-8.0-1.15","5d9d5debf346240014428500","condB","","resources/audio/wordStim/S3_AU_20_bxa_Step-9.wav","48","","","","","AU","resources/audio/wordStim/S3_AU_20_bxa_Step-9.wav","S3","20","bxa","9","MI","1","0","false"
"null","","fixation","html-keyboard-response","58","262643","0.0-8.0-0.16","5d9d5debf346240014428500","condB","","<div class=""vertical-center"" style='width:60%;'><p style='font-weight:bold;'>Does the middle word sound more like the first word (A) or the last word (B)?</p> <br> <div class=""container""> <div id=""a-box""> <p class=""title-text"">A</h3></p> </div> <div id=""x-box""> <p class=""title-text"">X<p> </div> <div id=""b-box""> <p class=""title-text"">B</p></div> <br> <div style='float: left;padding-left:30px;'><p>Press '1' for A</p></div><div style='float: right;padding-right:30px;'><p>Press '0' for B</p> </div> </div></div>","null","","","","","","","","","","","","","",""
"4331","","test","audio-keyboard-response","59","266974","0.0-8.0-1.16","5d9d5debf346240014428500","condB","","resources/audio/wordStim/S9_AI_27_axb_Step-2.wav","49","","","","","AI","resources/audio/wordStim/S9_AI_27_axb_Step-2.wav","S9","27","axb","2","CN","0","1","false"
"null","","fixation","html-keyboard-response","60","267992","0.0-8.0-0.17","5d9d5debf346240014428500","condB","","<div class=""vertical-center"" style='width:60%;'><p style='font-weight:bold;'>Does the middle word sound more like the first word (A) or the last word (B)?</p> <br> <div class=""container""> <div id=""a-box""> <p class=""title-text"">A</h3></p> </div> <div id=""x-box""> <p class=""title-text"">X<p> </div> <div id=""b-box""> <p class=""title-text"">B</p></div> <br> <div style='float: left;padding-left:30px;'><p>Press '1' for A</p></div><div style='float: right;padding-right:30px;'><p>Press '0' for B</p> </div> </div></div>","null","","","","","","","","","","","","","",""
"2899","","test","audio-keyboard-response","61","270898","0.0-8.0-1.17","5d9d5debf346240014428500","condB","","resources/audio/wordStim/S3_AI_30_axb_Step-6.wav","48","","","","","AI","resources/audio/wordStim/S3_AI_30_axb_Step-6.wav","S3","30","axb","6","MI","0","0","true"
"null","","fixation","html-keyboard-response","62","271916","0.0-8.0-0.18","5d9d5debf346240014428500","condB","","<div class=""vertical-center"" style='width:60%;'><p style='font-weight:bold;'>Does the middle word sound more like the first word (A) or the last word (B)?</p> <br> <div class=""container""> <div id=""a-box""> <p class=""title-text"">A</h3></p> </div> <div id=""x-box""> <p class=""title-text"">X<p> </div> <div id=""b-box""> <p class=""title-text"">B</p></div> <br> <div style='float: left;padding-left:30px;'><p>Press '1' for A</p></div><div style='float: right;padding-right:30px;'><p>Press '0' for B</p> </div> </div></div>","null","","","","","","","","","","","","","",""
"3741","","test","audio-keyboard-response","63","275662","0.0-8.0-1.18","5d9d5debf346240014428500","condB","","resources/audio/wordStim/S9_AI_30_bxa_Step-5.wav","49","","","","","AI","resources/audio/wordStim/S9_AI_30_bxa_Step-5.wav","S9","30","bxa","5","CN","1","1","true"
"null","","fixation","html-keyboard-response","64","276676","0.0-8.0-0.19","5d9d5debf346240014428500","condB","","<div class=""vertical-center"" style='width:60%;'><p style='font-weight:bold;'>Does the middle word sound more like the first word (A) or the last word (B)?</p> <br> <div class=""container""> <div id=""a-box""> <p class=""title-text"">A</h3></p> </div> <div id=""x-box""> <p class=""title-text"">X<p> </div> <div id=""b-box""> <p class=""title-text"">B</p></div> <br> <div style='float: left;padding-left:30px;'><p>Press '1' for A</p></div><div style='float: right;padding-right:30px;'><p>Press '0' for B</p> </div> </div></div>","null","","","","","","","","","","","","","",""
"2840","","test","audio-keyboard-response","65","279521","0.0-8.0-1.19","5d9d5debf346240014428500","condB","","resources/audio/wordStim/S9_AU_14_bxa_Step-7.wav","48","","","","","AU","resources/audio/wordStim/S9_AU_14_bxa_Step-7.wav","S9","14","bxa","7","CN","1","0","false"
"null","","fixation","html-keyboard-response","66","280538","0.0-8.0-0.20","5d9d5debf346240014428500","condB","","<div class=""vertical-center"" style='width:60%;'><p style='font-weight:bold;'>Does the middle word sound more like the first word (A) or the last word (B)?</p> <br> <div class=""container""> <div id=""a-box""> <p class=""title-text"">A</h3></p> </div> <div id=""x-box""> <p class=""title-text"">X<p> </div> <div id=""b-box""> <p class=""title-text"">B</p></div> <br> <div style='float: left;padding-left:30px;'><p>Press '1' for A</p></div><div style='float: right;padding-right:30px;'><p>Press '0' for B</p> </div> </div></div>","null","","","","","","","","","","","","","",""
"2869","","test","audio-keyboard-response","67","283415","0.0-8.0-1.20","5d9d5debf346240014428500","condB","","resources/audio/wordStim/S3_AI_25_bxa_Step-5.wav","49","","","","","AI","resources/audio/wordStim/S3_AI_25_bxa_Step-5.wav","S3","25","bxa","5","MI","1","1","true"
"null","","fixation","html-keyboard-response","68","284440","0.0-8.0-0.21","5d9d5debf346240014428500","condB","","<div class=""vertical-center"" style='width:60%;'><p style='font-weight:bold;'>Does the middle word sound more like the first word (A) or the last word (B)?</p> <br> <div class=""container""> <div id=""a-box""> <p class=""title-text"">A</h3></p> </div> <div id=""x-box""> <p class=""title-text"">X<p> </div> <div id=""b-box""> <p class=""title-text"">B</p></div> <br> <div style='float: left;padding-left:30px;'><p>Press '1' for A</p></div><div style='float: right;padding-right:30px;'><p>Press '0' for B</p> </div> </div></div>","null","","","","","","","","","","","","","",""
"2971","","test","audio-keyboard-response","69","287417","0.0-8.0-1.21","5d9d5debf346240014428500","condB","","resources/audio/wordStim/S9_AU_16_bxa_Step-7.wav","48","","","","","AU","resources/audio/wordStim/S9_AU_16_bxa_Step-7.wav","S9","16","bxa","7","CN","1","0","false"
"null","","fixation","html-keyboard-response","70","288434","0.0-8.0-0.22","5d9d5debf346240014428500","condB","","<div class=""vertical-center"" style='width:60%;'><p style='font-weight:bold;'>Does the middle word sound more like the first word (A) or the last word (B)?</p> <br> <div class=""container""> <div id=""a-box""> <p class=""title-text"">A</h3></p> </div> <div id=""x-box""> <p class=""title-text"">X<p> </div> <div id=""b-box""> <p class=""title-text"">B</p></div> <br> <div style='float: left;padding-left:30px;'><p>Press '1' for A</p></div><div style='float: right;padding-right:30px;'><p>Press '0' for B</p> </div> </div></div>","null","","","","","","","","","","","","","",""
"2789","","test","audio-keyboard-response","71","291220","0.0-8.0-1.22","5d9d5debf346240014428500","condB","","resources/audio/wordStim/S9_AU_14_axb_Step-8.wav","49","","","","","AU","resources/audio/wordStim/S9_AU_14_axb_Step-8.wav","S9","14","axb","8","CN","0","1","false"
"null","","fixation","html-keyboard-response","72","292229","0.0-8.0-0.23","5d9d5debf346240014428500","condB","","<div class=""vertical-center"" style='width:60%;'><p style='font-weight:bold;'>Does the middle word sound more like the first word (A) or the last word (B)?</p> <br> <div class=""container""> <div id=""a-box""> <p class=""title-text"">A</h3></p> </div> <div id=""x-box""> <p class=""title-text"">X<p> </div> <div id=""b-box""> <p class=""title-text"">B</p></div> <br> <div style='float: left;padding-left:30px;'><p>Press '1' for A</p></div><div style='float: right;padding-right:30px;'><p>Press '0' for B</p> </div> </div></div>","null","","","","","","","","","","","","","",""
"3339","","test","audio-keyboard-response","73","295573","0.0-8.0-1.23","5d9d5debf346240014428500","condB","","resources/audio/wordStim/S3_AI_22_bxa_Step-3.wav","49","","","","","AI","resources/audio/wordStim/S3_AI_22_bxa_Step-3.wav","S3","22","bxa","3","MI","1","1","true"
"null","","fixation","html-keyboard-response","74","296596","0.0-8.0-0.24","5d9d5debf346240014428500","condB","","<div class=""vertical-center"" style='width:60%;'><p style='font-weight:bold;'>Does the middle word sound more like the first word (A) or the last word (B)?</p> <br> <div class=""container""> <div id=""a-box""> <p class=""title-text"">A</h3></p> </div> <div id=""x-box""> <p class=""title-text"">X<p> </div> <div id=""b-box""> <p class=""title-text"">B</p></div> <br> <div style='float: left;padding-left:30px;'><p>Press '1' for A</p></div><div style='float: right;padding-right:30px;'><p>Press '0' for B</p> </div> </div></div>","null","","","","","","","","","","","","","",""
"4800","","test","audio-keyboard-response","75","301404","0.0-8.0-1.24","5d9d5debf346240014428500","condB","","resources/audio/wordStim/S3_AU_18_axb_Step-8.wav","48","","","","","AU","resources/audio/wordStim/S3_AU_18_axb_Step-8.wav","S3","18","axb","8","MI","0","0","true"
"null","","fixation","html-keyboard-response","76","302431","0.0-8.0-0.25","5d9d5debf346240014428500","condB","","<div class=""vertical-center"" style='width:60%;'><p style='font-weight:bold;'>Does the middle word sound more like the first word (A) or the last word (B)?</p> <br> <div class=""container""> <div id=""a-box""> <p class=""title-text"">A</h3></p> </div> <div id=""x-box""> <p class=""title-text"">X<p> </div> <div id=""b-box""> <p class=""title-text"">B</p></div> <br> <div style='float: left;padding-left:30px;'><p>Press '1' for A</p></div><div style='float: right;padding-right:30px;'><p>Press '0' for B</p> </div> </div></div>","null","","","","","","","","","","","","","",""
"3109","","test","audio-keyboard-response","77","305545","0.0-8.0-1.25","5d9d5debf346240014428500","condB","","resources/audio/wordStim/S3_AU_11_bxa_Step-5.wav","48","","","","","AU","resources/audio/wordStim/S3_AU_11_bxa_Step-5.wav","S3","11","bxa","5","MI","1","0","false"
"null","","fixation","html-keyboard-response","78","306558","0.0-8.0-0.26","5d9d5debf346240014428500","condB","","<div class=""vertical-center"" style='width:60%;'><p style='font-weight:bold;'>Does the middle word sound more like the first word (A) or the last word (B)?</p> <br> <div class=""container""> <div id=""a-box""> <p class=""title-text"">A</h3></p> </div> <div id=""x-box""> <p class=""title-text"">X<p> </div> <div id=""b-box""> <p class=""title-text"">B</p></div> <br> <div style='float: left;padding-left:30px;'><p>Press '1' for A</p></div><div style='float: right;padding-right:30px;'><p>Press '0' for B</p> </div> </div></div>","null","","","","","","","","","","","","","",""
"3101","","test","audio-keyboard-response","79","309661","0.0-8.0-1.26","5d9d5debf346240014428500","condB","","resources/audio/wordStim/S9_AU_19_axb_Step-8.wav","49","","","","","AU","resources/audio/wordStim/S9_AU_19_axb_Step-8.wav","S9","19","axb","8","CN","0","1","false"
"2743.7950000021374","","break","html-keyboard-response","80","312918","0.0-8.0-2.26-0.26","5d9d5debf346240014428500","condB","","<div class=""vertical-center""><p>Feel free to take a break!</p><i>When you're ready to continue, press SPACE to begin the next trial.</i></p></div>","32","","","","","","","","","","","","","",""
"null","","fixation","html-keyboard-response","81","313420","0.0-8.0-0.27","5d9d5debf346240014428500","condB","","<div class=""vertical-center"" style='width:60%;'><p style='font-weight:bold;'>Does the middle word sound more like the first word (A) or the last word (B)?</p> <br> <div class=""container""> <div id=""a-box""> <p class=""title-text"">A</h3></p> </div> <div id=""x-box""> <p class=""title-text"">X<p> </div> <div id=""b-box""> <p class=""title-text"">B</p></div> <br> <div style='float: left;padding-left:30px;'><p>Press '1' for A</p></div><div style='float: right;padding-right:30px;'><p>Press '0' for B</p> </div> </div></div>","null","","","","","","","","","","","","","",""
"3171","","test","audio-keyboard-response","82","316597","0.0-8.0-1.27","5d9d5debf346240014428500","condB","","resources/audio/wordStim/S3_AI_29_axb_Step-4.wav","49","","","","","AI","resources/audio/wordStim/S3_AI_29_axb_Step-4.wav","S3","29","axb","4","MI","0","1","false"
"null","","fixation","html-keyboard-response","83","317628","0.0-8.0-0.28","5d9d5debf346240014428500","condB","","<div class=""vertical-center"" style='width:60%;'><p style='font-weight:bold;'>Does the middle word sound more like the first word (A) or the last word (B)?</p> <br> <div class=""container""> <div id=""a-box""> <p class=""title-text"">A</h3></p> </div> <div id=""x-box""> <p class=""title-text"">X<p> </div> <div id=""b-box""> <p class=""title-text"">B</p></div> <br> <div style='float: left;padding-left:30px;'><p>Press '1' for A</p></div><div style='float: right;padding-right:30px;'><p>Press '0' for B</p> </div> </div></div>","null","","","","","","","","","","","","","",""
"3808","","test","audio-keyboard-response","84","321443","0.0-8.0-1.28","5d9d5debf346240014428500","condB","","resources/audio/wordStim/S3_AU_18_bxa_Step-9.wav","49","","","","","AU","resources/audio/wordStim/S3_AU_18_bxa_Step-9.wav","S3","18","bxa","9","MI","1","1","true"
"null","","fixation","html-keyboard-response","85","322461","0.0-8.0-0.29","5d9d5debf346240014428500","condB","","<div class=""vertical-center"" style='width:60%;'><p style='font-weight:bold;'>Does the middle word sound more like the first word (A) or the last word (B)?</p> <br> <div class=""container""> <div id=""a-box""> <p class=""title-text"">A</h3></p> </div> <div id=""x-box""> <p class=""title-text"">X<p> </div> <div id=""b-box""> <p class=""title-text"">B</p></div> <br> <div style='float: left;padding-left:30px;'><p>Press '1' for A</p></div><div style='float: right;padding-right:30px;'><p>Press '0' for B</p> </div> </div></div>","null","","","","","","","","","","","","","",""
"3011","","test","audio-keyboard-response","86","325477","0.0-8.0-1.29","5d9d5debf346240014428500","condB","","resources/audio/wordStim/S9_AU_20_bxa_Step-7.wav","49","","","","","AU","resources/audio/wordStim/S9_AU_20_bxa_Step-7.wav","S9","20","bxa","7","CN","1","1","true"
"null","","fixation","html-keyboard-response","87","326501","0.0-8.0-0.30","5d9d5debf346240014428500","condB","","<div class=""vertical-center"" style='width:60%;'><p style='font-weight:bold;'>Does the middle word sound more like the first word (A) or the last word (B)?</p> <br> <div class=""container""> <div id=""a-box""> <p class=""title-text"">A</h3></p> </div> <div id=""x-box""> <p class=""title-text"">X<p> </div> <div id=""b-box""> <p class=""title-text"">B</p></div> <br> <div style='float: left;padding-left:30px;'><p>Press '1' for A</p></div><div style='float: right;padding-right:30px;'><p>Press '0' for B</p> </div> </div></div>","null","","","","","","","","","","","","","",""
"3299","","test","audio-keyboard-response","88","329807","0.0-8.0-1.30","5d9d5debf346240014428500","condB","","resources/audio/wordStim/S9_AI_27_bxa_Step-5.wav","49","","","","","AI","resources/audio/wordStim/S9_AI_27_bxa_Step-5.wav","S9","27","bxa","5","CN","1","1","true"
"null","","fixation","html-keyboard-response","89","330820","0.0-8.0-0.31","5d9d5debf346240014428500","condB","","<div class=""vertical-center"" style='width:60%;'><p style='font-weight:bold;'>Does the middle word sound more like the first word (A) or the last word (B)?</p> <br> <div class=""container""> <div id=""a-box""> <p class=""title-text"">A</h3></p> </div> <div id=""x-box""> <p class=""title-text"">X<p> </div> <div id=""b-box""> <p class=""title-text"">B</p></div> <br> <div style='float: left;padding-left:30px;'><p>Press '1' for A</p></div><div style='float: right;padding-right:30px;'><p>Press '0' for B</p> </div> </div></div>","null","","","","","","","","","","","","","",""
"3291","","test","audio-keyboard-response","90","334115","0.0-8.0-1.31","5d9d5debf346240014428500","condB","","resources/audio/wordStim/S9_AU_18_axb_Step-4.wav","49","","","","","AU","resources/audio/wordStim/S9_AU_18_axb_Step-4.wav","S9","18","axb","4","CN","0","1","false"
"null","","fixation","html-keyboard-response","91","335128","0.0-8.0-0.32","5d9d5debf346240014428500","condB","","<div class=""vertical-center"" style='width:60%;'><p style='font-weight:bold;'>Does the middle word sound more like the first word (A) or the last word (B)?</p> <br> <div class=""container""> <div id=""a-box""> <p class=""title-text"">A</h3></p> </div> <div id=""x-box""> <p class=""title-text"">X<p> </div> <div id=""b-box""> <p class=""title-text"">B</p></div> <br> <div style='float: left;padding-left:30px;'><p>Press '1' for A</p></div><div style='float: right;padding-right:30px;'><p>Press '0' for B</p> </div> </div></div>","null","","","","","","","","","","","","","",""
"2709","","test","audio-keyboard-response","92","337847","0.0-8.0-1.32","5d9d5debf346240014428500","condB","","resources/audio/wordStim/S3_AU_15_axb_Step-8.wav","49","","","","","AU","resources/audio/wordStim/S3_AU_15_axb_Step-8.wav","S3","15","axb","8","MI","0","1","false"
"null","","fixation","html-keyboard-response","93","338860","0.0-8.0-0.33","5d9d5debf346240014428500","condB","","<div class=""vertical-center"" style='width:60%;'><p style='font-weight:bold;'>Does the middle word sound more like the first word (A) or the last word (B)?</p> <br> <div class=""container""> <div id=""a-box""> <p class=""title-text"">A</h3></p> </div> <div id=""x-box""> <p class=""title-text"">X<p> </div> <div id=""b-box""> <p class=""title-text"">B</p></div> <br> <div style='float: left;padding-left:30px;'><p>Press '1' for A</p></div><div style='float: right;padding-right:30px;'><p>Press '0' for B</p> </div> </div></div>","null","","","","","","","","","","","","","",""
"3411","","test","audio-keyboard-response","94","342278","0.0-8.0-1.33","5d9d5debf346240014428500","condB","","resources/audio/wordStim/S9_AI_25_axb_Step-4.wav","48","","","","","AI","resources/audio/wordStim/S9_AI_25_axb_Step-4.wav","S9","25","axb","4","CN","0","0","true"
"null","","fixation","html-keyboard-response","95","343299","0.0-8.0-0.34","5d9d5debf346240014428500","condB","","<div class=""vertical-center"" style='width:60%;'><p style='font-weight:bold;'>Does the middle word sound more like the first word (A) or the last word (B)?</p> <br> <div class=""container""> <div id=""a-box""> <p class=""title-text"">A</h3></p> </div> <div id=""x-box""> <p class=""title-text"">X<p> </div> <div id=""b-box""> <p class=""title-text"">B</p></div> <br> <div style='float: left;padding-left:30px;'><p>Press '1' for A</p></div><div style='float: right;padding-right:30px;'><p>Press '0' for B</p> </div> </div></div>","null","","","","","","","","","","","","","",""
"2819","","test","audio-keyboard-response","96","346129","0.0-8.0-1.34","5d9d5debf346240014428500","condB","","resources/audio/wordStim/S3_AI_28_bxa_Step-5.wav","48","","","","","AI","resources/audio/wordStim/S3_AI_28_bxa_Step-5.wav","S3","28","bxa","5","MI","1","0","false"
"null","","fixation","html-keyboard-response","97","347149","0.0-8.0-0.35","5d9d5debf346240014428500","condB","","<div class=""vertical-center"" style='width:60%;'><p style='font-weight:bold;'>Does the middle word sound more like the first word (A) or the last word (B)?</p> <br> <div class=""container""> <div id=""a-box""> <p class=""title-text"">A</h3></p> </div> <div id=""x-box""> <p class=""title-text"">X<p> </div> <div id=""b-box""> <p class=""title-text"">B</p></div> <br> <div style='float: left;padding-left:30px;'><p>Press '1' for A</p></div><div style='float: right;padding-right:30px;'><p>Press '0' for B</p> </div> </div></div>","null","","","","","","","","","","","","","",""
"3400","","test","audio-keyboard-response","98","350550","0.0-8.0-1.35","5d9d5debf346240014428500","condB","","resources/audio/wordStim/S9_AU_18_bxa_Step-10.wav","49","","","","","AU","resources/audio/wordStim/S9_AU_18_bxa_Step-10.wav","S9","18","bxa","10","CN","1","1","true"
"null","","fixation","html-keyboard-response","99","351557","0.0-8.0-0.36","5d9d5debf346240014428500","condB","","<div class=""vertical-center"" style='width:60%;'><p style='font-weight:bold;'>Does the middle word sound more like the first word (A) or the last word (B)?</p> <br> <div class=""container""> <div id=""a-box""> <p class=""title-text"">A</h3></p> </div> <div id=""x-box""> <p class=""title-text"">X<p> </div> <div id=""b-box""> <p class=""title-text"">B</p></div> <br> <div style='float: left;padding-left:30px;'><p>Press '1' for A</p></div><div style='float: right;padding-right:30px;'><p>Press '0' for B</p> </div> </div></div>","null","","","","","","","","","","","","","",""
"3160","","test","audio-keyboard-response","100","354720","0.0-8.0-1.36","5d9d5debf346240014428500","condB","","resources/audio/wordStim/S3_AU_20_bxa_Step-5.wav","49","","","","","AU","resources/audio/wordStim/S3_AU_20_bxa_Step-5.wav","S3","20","bxa","5","MI","1","1","true"
"null","","fixation","html-keyboard-response","101","355733","0.0-8.0-0.37","5d9d5debf346240014428500","condB","","<div class=""vertical-center"" style='width:60%;'><p style='font-weight:bold;'>Does the middle word sound more like the first word (A) or the last word (B)?</p> <br> <div class=""container""> <div id=""a-box""> <p class=""title-text"">A</h3></p> </div> <div id=""x-box""> <p class=""title-text"">X<p> </div> <div id=""b-box""> <p class=""title-text"">B</p></div> <br> <div style='float: left;padding-left:30px;'><p>Press '1' for A</p></div><div style='float: right;padding-right:30px;'><p>Press '0' for B</p> </div> </div></div>","null","","","","","","","","","","","","","",""
"3640","","test","audio-keyboard-response","102","359370","0.0-8.0-1.37","5d9d5debf346240014428500","condB","","resources/audio/wordStim/S9_AU_18_bxa_Step-5.wav","49","","","","","AU","resources/audio/wordStim/S9_AU_18_bxa_Step-5.wav","S9","18","bxa","5","CN","1","1","true"
"null","","fixation","html-keyboard-response","103","360382","0.0-8.0-0.38","5d9d5debf346240014428500","condB","","<div class=""vertical-center"" style='width:60%;'><p style='font-weight:bold;'>Does the middle word sound more like the first word (A) or the last word (B)?</p> <br> <div class=""container""> <div id=""a-box""> <p class=""title-text"">A</h3></p> </div> <div id=""x-box""> <p class=""title-text"">X<p> </div> <div id=""b-box""> <p class=""title-text"">B</p></div> <br> <div style='float: left;padding-left:30px;'><p>Press '1' for A</p></div><div style='float: right;padding-right:30px;'><p>Press '0' for B</p> </div> </div></div>","null","","","","","","","","","","","","","",""
"3531","","test","audio-keyboard-response","104","363915","0.0-8.0-1.38","5d9d5debf346240014428500","condB","","resources/audio/wordStim/S9_AI_27_bxa_Step-10.wav","49","","","","","AI","resources/audio/wordStim/S9_AI_27_bxa_Step-10.wav","S9","27","bxa","10","CN","1","1","true"
"null","","fixation","html-keyboard-response","105","364928","0.0-8.0-0.39","5d9d5debf346240014428500","condB","","<div class=""vertical-center"" style='width:60%;'><p style='font-weight:bold;'>Does the middle word sound more like the first word (A) or the last word (B)?</p> <br> <div class=""container""> <div id=""a-box""> <p class=""title-text"">A</h3></p> </div> <div id=""x-box""> <p class=""title-text"">X<p> </div> <div id=""b-box""> <p class=""title-text"">B</p></div> <br> <div style='float: left;padding-left:30px;'><p>Press '1' for A</p></div><div style='float: right;padding-right:30px;'><p>Press '0' for B</p> </div> </div></div>","null","","","","","","","","","","","","","",""
"2669","","test","audio-keyboard-response","106","367608","0.0-8.0-1.39","5d9d5debf346240014428500","condB","","resources/audio/wordStim/S3_AI_21_axb_Step-4.wav","49","","","","","AI","resources/audio/wordStim/S3_AI_21_axb_Step-4.wav","S3","21","axb","4","MI","0","1","false"
"null","","fixation","html-keyboard-response","107","368616","0.0-8.0-0.40","5d9d5debf346240014428500","condB","","<div class=""vertical-center"" style='width:60%;'><p style='font-weight:bold;'>Does the middle word sound more like the first word (A) or the last word (B)?</p> <br> <div class=""container""> <div id=""a-box""> <p class=""title-text"">A</h3></p> </div> <div id=""x-box""> <p class=""title-text"">X<p> </div> <div id=""b-box""> <p class=""title-text"">B</p></div> <br> <div style='float: left;padding-left:30px;'><p>Press '1' for A</p></div><div style='float: right;padding-right:30px;'><p>Press '0' for B</p> </div> </div></div>","null","","","","","","","","","","","","","",""
"2971","","test","audio-keyboard-response","108","371586","0.0-8.0-1.40","5d9d5debf346240014428500","condB","","resources/audio/wordStim/S3_AI_23_axb_Step-4.wav","48","","","","","AI","resources/audio/wordStim/S3_AI_23_axb_Step-4.wav","S3","23","axb","4","MI","0","0","true"
"null","","fixation","html-keyboard-response","109","372596","0.0-8.0-0.41","5d9d5debf346240014428500","condB","","<div class=""vertical-center"" style='width:60%;'><p style='font-weight:bold;'>Does the middle word sound more like the first word (A) or the last word (B)?</p> <br> <div class=""container""> <div id=""a-box""> <p class=""title-text"">A</h3></p> </div> <div id=""x-box""> <p class=""title-text"">X<p> </div> <div id=""b-box""> <p class=""title-text"">B</p></div> <br> <div style='float: left;padding-left:30px;'><p>Press '1' for A</p></div><div style='float: right;padding-right:30px;'><p>Press '0' for B</p> </div> </div></div>","null","","","","","","","","","","","","","",""
"2859","","test","audio-keyboard-response","110","375451","0.0-8.0-1.41","5d9d5debf346240014428500","condB","","resources/audio/wordStim/S9_AU_16_bxa_Step-3.wav","49","","","","","AU","resources/audio/wordStim/S9_AU_16_bxa_Step-3.wav","S9","16","bxa","3","CN","1","1","true"
"null","","fixation","html-keyboard-response","111","376468","0.0-8.0-0.42","5d9d5debf346240014428500","condB","","<div class=""vertical-center"" style='width:60%;'><p style='font-weight:bold;'>Does the middle word sound more like the first word (A) or the last word (B)?</p> <br> <div class=""container""> <div id=""a-box""> <p class=""title-text"">A</h3></p> </div> <div id=""x-box""> <p class=""title-text"">X<p> </div> <div id=""b-box""> <p class=""title-text"">B</p></div> <br> <div style='float: left;padding-left:30px;'><p>Press '1' for A</p></div><div style='float: right;padding-right:30px;'><p>Press '0' for B</p> </div> </div></div>","null","","","","","","","","","","","","","",""
"3240","","test","audio-keyboard-response","112","379711","0.0-8.0-1.42","5d9d5debf346240014428500","condB","","resources/audio/wordStim/S9_AU_14_bxa_Step-10.wav","49","","","","","AU","resources/audio/wordStim/S9_AU_14_bxa_Step-10.wav","S9","14","bxa","10","CN","1","1","true"
"null","","fixation","html-keyboard-response","113","380717","0.0-8.0-0.43","5d9d5debf346240014428500","condB","","<div class=""vertical-center"" style='width:60%;'><p style='font-weight:bold;'>Does the middle word sound more like the first word (A) or the last word (B)?</p> <br> <div class=""container""> <div id=""a-box""> <p class=""title-text"">A</h3></p> </div> <div id=""x-box""> <p class=""title-text"">X<p> </div> <div id=""b-box""> <p class=""title-text"">B</p></div> <br> <div style='float: left;padding-left:30px;'><p>Press '1' for A</p></div><div style='float: right;padding-right:30px;'><p>Press '0' for B</p> </div> </div></div>","null","","","","","","","","","","","","","",""
"2920","","test","audio-keyboard-response","114","383647","0.0-8.0-1.43","5d9d5debf346240014428500","condB","","resources/audio/wordStim/S9_AI_24_bxa_Step-10.wav","49","","","","","AI","resources/audio/wordStim/S9_AI_24_bxa_Step-10.wav","S9","24","bxa","10","CN","1","1","true"
"null","","fixation","html-keyboard-response","115","384656","0.0-8.0-0.44","5d9d5debf346240014428500","condB","","<div class=""vertical-center"" style='width:60%;'><p style='font-weight:bold;'>Does the middle word sound more like the first word (A) or the last word (B)?</p> <br> <div class=""container""> <div id=""a-box""> <p class=""title-text"">A</h3></p> </div> <div id=""x-box""> <p class=""title-text"">X<p> </div> <div id=""b-box""> <p class=""title-text"">B</p></div> <br> <div style='float: left;padding-left:30px;'><p>Press '1' for A</p></div><div style='float: right;padding-right:30px;'><p>Press '0' for B</p> </div> </div></div>","null","","","","","","","","","","","","","",""
"2979","","test","audio-keyboard-response","116","387642","0.0-8.0-1.44","5d9d5debf346240014428500","condB","","resources/audio/wordStim/S3_AI_28_bxa_Step-7.wav","48","","","","","AI","resources/audio/wordStim/S3_AI_28_bxa_Step-7.wav","S3","28","bxa","7","MI","1","0","false"
"null","","fixation","html-keyboard-response","117","388660","0.0-8.0-0.45","5d9d5debf346240014428500","condB","","<div class=""vertical-center"" style='width:60%;'><p style='font-weight:bold;'>Does the middle word sound more like the first word (A) or the last word (B)?</p> <br> <div class=""container""> <div id=""a-box""> <p class=""title-text"">A</h3></p> </div> <div id=""x-box""> <p class=""title-text"">X<p> </div> <div id=""b-box""> <p class=""title-text"">B</p></div> <br> <div style='float: left;padding-left:30px;'><p>Press '1' for A</p></div><div style='float: right;padding-right:30px;'><p>Press '0' for B</p> </div> </div></div>","null","","","","","","","","","","","","","",""
"4440","","test","audio-keyboard-response","118","393105","0.0-8.0-1.45","5d9d5debf346240014428500","condB","","resources/audio/wordStim/S3_AI_23_bxa_Step-3.wav","48","","","","","AI","resources/audio/wordStim/S3_AI_23_bxa_Step-3.wav","S3","23","bxa","3","MI","1","0","false"
"null","","fixation","html-keyboard-response","119","394112","0.0-8.0-0.46","5d9d5debf346240014428500","condB","","<div class=""vertical-center"" style='width:60%;'><p style='font-weight:bold;'>Does the middle word sound more like the first word (A) or the last word (B)?</p> <br> <div class=""container""> <div id=""a-box""> <p class=""title-text"">A</h3></p> </div> <div id=""x-box""> <p class=""title-text"">X<p> </div> <div id=""b-box""> <p class=""title-text"">B</p></div> <br> <div style='float: left;padding-left:30px;'><p>Press '1' for A</p></div><div style='float: right;padding-right:30px;'><p>Press '0' for B</p> </div> </div></div>","null","","","","","","","","","","","","","",""
"3029","","test","audio-keyboard-response","120","397148","0.0-8.0-1.46","5d9d5debf346240014428500","condB","","resources/audio/wordStim/S3_AU_11_bxa_Step-7.wav","49","","","","","AU","resources/audio/wordStim/S3_AU_11_bxa_Step-7.wav","S3","11","bxa","7","MI","1","1","true"
"null","","fixation","html-keyboard-response","121","398175","0.0-8.0-0.47","5d9d5debf346240014428500","condB","","<div class=""vertical-center"" style='width:60%;'><p style='font-weight:bold;'>Does the middle word sound more like the first word (A) or the last word (B)?</p> <br> <div class=""container""> <div id=""a-box""> <p class=""title-text"">A</h3></p> </div> <div id=""x-box""> <p class=""title-text"">X<p> </div> <div id=""b-box""> <p class=""title-text"">B</p></div> <br> <div style='float: left;padding-left:30px;'><p>Press '1' for A</p></div><div style='float: right;padding-right:30px;'><p>Press '0' for B</p> </div> </div></div>","null","","","","","","","","","","","","","",""
"3651","","test","audio-keyboard-response","122","401826","0.0-8.0-1.47","5d9d5debf346240014428500","condB","","resources/audio/wordStim/S3_AU_17_axb_Step-6.wav","49","","","","","AU","resources/audio/wordStim/S3_AU_17_axb_Step-6.wav","S3","17","axb","6","MI","0","1","false"
"null","","fixation","html-keyboard-response","123","402840","0.0-8.0-0.48","5d9d5debf346240014428500","condB","","<div class=""vertical-center"" style='width:60%;'><p style='font-weight:bold;'>Does the middle word sound more like the first word (A) or the last word (B)?</p> <br> <div class=""container""> <div id=""a-box""> <p class=""title-text"">A</h3></p> </div> <div id=""x-box""> <p class=""title-text"">X<p> </div> <div id=""b-box""> <p class=""title-text"">B</p></div> <br> <div style='float: left;padding-left:30px;'><p>Press '1' for A</p></div><div style='float: right;padding-right:30px;'><p>Press '0' for B</p> </div> </div></div>","null","","","","","","","","","","","","","",""
"3192","","test","audio-keyboard-response","124","406030","0.0-8.0-1.48","5d9d5debf346240014428500","condB","","resources/audio/wordStim/S9_AI_27_axb_Step-6.wav","49","","","","","AI","resources/audio/wordStim/S9_AI_27_axb_Step-6.wav","S9","27","axb","6","CN","0","1","false"
"null","","fixation","html-keyboard-response","125","407057","0.0-8.0-0.49","5d9d5debf346240014428500","condB","","<div class=""vertical-center"" style='width:60%;'><p style='font-weight:bold;'>Does the middle word sound more like the first word (A) or the last word (B)?</p> <br> <div class=""container""> <div id=""a-box""> <p class=""title-text"">A</h3></p> </div> <div id=""x-box""> <p class=""title-text"">X<p> </div> <div id=""b-box""> <p class=""title-text"">B</p></div> <br> <div style='float: left;padding-left:30px;'><p>Press '1' for A</p></div><div style='float: right;padding-right:30px;'><p>Press '0' for B</p> </div> </div></div>","null","","","","","","","","","","","","","",""
"2811","","test","audio-keyboard-response","126","409872","0.0-8.0-1.49","5d9d5debf346240014428500","condB","","resources/audio/wordStim/S3_AI_30_axb_Step-4.wav","48","","","","","AI","resources/audio/wordStim/S3_AI_30_axb_Step-4.wav","S3","30","axb","4","MI","0","0","true"
"null","","fixation","html-keyboard-response","127","410893","0.0-8.0-0.50","5d9d5debf346240014428500","condB","","<div class=""vertical-center"" style='width:60%;'><p style='font-weight:bold;'>Does the middle word sound more like the first word (A) or the last word (B)?</p> <br> <div class=""container""> <div id=""a-box""> <p class=""title-text"">A</h3></p> </div> <div id=""x-box""> <p class=""title-text"">X<p> </div> <div id=""b-box""> <p class=""title-text"">B</p></div> <br> <div style='float: left;padding-left:30px;'><p>Press '1' for A</p></div><div style='float: right;padding-right:30px;'><p>Press '0' for B</p> </div> </div></div>","null","","","","","","","","","","","","","",""
"3571","","test","audio-keyboard-response","128","414464","0.0-8.0-1.50","5d9d5debf346240014428500","condB","","resources/audio/wordStim/S3_AU_17_axb_Step-4.wav","49","","","","","AU","resources/audio/wordStim/S3_AU_17_axb_Step-4.wav","S3","17","axb","4","MI","0","1","false"
"null","","fixation","html-keyboard-response","129","415478","0.0-8.0-0.51","5d9d5debf346240014428500","condB","","<div class=""vertical-center"" style='width:60%;'><p style='font-weight:bold;'>Does the middle word sound more like the first word (A) or the last word (B)?</p> <br> <div class=""container""> <div id=""a-box""> <p class=""title-text"">A</h3></p> </div> <div id=""x-box""> <p class=""title-text"">X<p> </div> <div id=""b-box""> <p class=""title-text"">B</p></div> <br> <div style='float: left;padding-left:30px;'><p>Press '1' for A</p></div><div style='float: right;padding-right:30px;'><p>Press '0' for B</p> </div> </div></div>","null","","","","","","","","","","","","","",""
"3152","","test","audio-keyboard-response","130","418636","0.0-8.0-1.51","5d9d5debf346240014428500","condB","","resources/audio/wordStim/S3_AI_25_bxa_Step-7.wav","49","","","","","AI","resources/audio/wordStim/S3_AI_25_bxa_Step-7.wav","S3","25","bxa","7","MI","1","1","true"
"null","","fixation","html-keyboard-response","131","419659","0.0-8.0-0.52","5d9d5debf346240014428500","condB","","<div class=""vertical-center"" style='width:60%;'><p style='font-weight:bold;'>Does the middle word sound more like the first word (A) or the last word (B)?</p> <br> <div class=""container""> <div id=""a-box""> <p class=""title-text"">A</h3></p> </div> <div id=""x-box""> <p class=""title-text"">X<p> </div> <div id=""b-box""> <p class=""title-text"">B</p></div> <br> <div style='float: left;padding-left:30px;'><p>Press '1' for A</p></div><div style='float: right;padding-right:30px;'><p>Press '0' for B</p> </div> </div></div>","null","","","","","","","","","","","","","",""
"3259","","test","audio-keyboard-response","132","422924","0.0-8.0-1.52","5d9d5debf346240014428500","condB","","resources/audio/wordStim/S3_AU_14_bxa_Step-5.wav","48","","","","","AU","resources/audio/wordStim/S3_AU_14_bxa_Step-5.wav","S3","14","bxa","5","MI","1","0","false"
"null","","fixation","html-keyboard-response","133","423938","0.0-8.0-0.53","5d9d5debf346240014428500","condB","","<div class=""vertical-center"" style='width:60%;'><p style='font-weight:bold;'>Does the middle word sound more like the first word (A) or the last word (B)?</p> <br> <div class=""container""> <div id=""a-box""> <p class=""title-text"">A</h3></p> </div> <div id=""x-box""> <p class=""title-text"">X<p> </div> <div id=""b-box""> <p class=""title-text"">B</p></div> <br> <div style='float: left;padding-left:30px;'><p>Press '1' for A</p></div><div style='float: right;padding-right:30px;'><p>Press '0' for B</p> </div> </div></div>","null","","","","","","","","","","","","","",""
"2731","","test","audio-keyboard-response","134","426674","0.0-8.0-1.53","5d9d5debf346240014428500","condB","","resources/audio/wordStim/S9_AU_20_bxa_Step-9.wav","49","","","","","AU","resources/audio/wordStim/S9_AU_20_bxa_Step-9.wav","S9","20","bxa","9","CN","1","1","true"
"1861.2500000017462","","break","html-keyboard-response","135","429042","0.0-8.0-2.53-0.53","5d9d5debf346240014428500","condB","","<div class=""vertical-center""><p>Feel free to take a break!</p><i>When you're ready to continue, press SPACE to begin the next trial.</i></p></div>","32","","","","","","","","","","","","","",""
"null","","fixation","html-keyboard-response","136","429555","0.0-8.0-0.54","5d9d5debf346240014428500","condB","","<div class=""vertical-center"" style='width:60%;'><p style='font-weight:bold;'>Does the middle word sound more like the first word (A) or the last word (B)?</p> <br> <div class=""container""> <div id=""a-box""> <p class=""title-text"">A</h3></p> </div> <div id=""x-box""> <p class=""title-text"">X<p> </div> <div id=""b-box""> <p class=""title-text"">B</p></div> <br> <div style='float: left;padding-left:30px;'><p>Press '1' for A</p></div><div style='float: right;padding-right:30px;'><p>Press '0' for B</p> </div> </div></div>","null","","","","","","","","","","","","","",""
"3221","","test","audio-keyboard-response","137","432781","0.0-8.0-1.54","5d9d5debf346240014428500","condB","","resources/audio/wordStim/S9_AU_17_axb_Step-6.wav","49","","","","","AU","resources/audio/wordStim/S9_AU_17_axb_Step-6.wav","S9","17","axb","6","CN","0","1","false"
"null","","fixation","html-keyboard-response","138","433787","0.0-8.0-0.55","5d9d5debf346240014428500","condB","","<div class=""vertical-center"" style='width:60%;'><p style='font-weight:bold;'>Does the middle word sound more like the first word (A) or the last word (B)?</p> <br> <div class=""container""> <div id=""a-box""> <p class=""title-text"">A</h3></p> </div> <div id=""x-box""> <p class=""title-text"">X<p> </div> <div id=""b-box""> <p class=""title-text"">B</p></div> <br> <div style='float: left;padding-left:30px;'><p>Press '1' for A</p></div><div style='float: right;padding-right:30px;'><p>Press '0' for B</p> </div> </div></div>","null","","","","","","","","","","","","","",""
"2720","","test","audio-keyboard-response","139","436517","0.0-8.0-1.55","5d9d5debf346240014428500","condB","","resources/audio/wordStim/S3_AU_14_bxa_Step-3.wav","48","","","","","AU","resources/audio/wordStim/S3_AU_14_bxa_Step-3.wav","S3","14","bxa","3","MI","1","0","false"
"null","","fixation","html-keyboard-response","140","437521","0.0-8.0-0.56","5d9d5debf346240014428500","condB","","<div class=""vertical-center"" style='width:60%;'><p style='font-weight:bold;'>Does the middle word sound more like the first word (A) or the last word (B)?</p> <br> <div class=""container""> <div id=""a-box""> <p class=""title-text"">A</h3></p> </div> <div id=""x-box""> <p class=""title-text"">X<p> </div> <div id=""b-box""> <p class=""title-text"">B</p></div> <br> <div style='float: left;padding-left:30px;'><p>Press '1' for A</p></div><div style='float: right;padding-right:30px;'><p>Press '0' for B</p> </div> </div></div>","null","","","","","","","","","","","","","",""
"2752","","test","audio-keyboard-response","141","440273","0.0-8.0-1.56","5d9d5debf346240014428500","condB","","resources/audio/wordStim/S9_AU_16_bxa_Step-9.wav","49","","","","","AU","resources/audio/wordStim/S9_AU_16_bxa_Step-9.wav","S9","16","bxa","9","CN","1","1","true"
"null","","fixation","html-keyboard-response","142","441280","0.0-8.0-0.57","5d9d5debf346240014428500","condB","","<div class=""vertical-center"" style='width:60%;'><p style='font-weight:bold;'>Does the middle word sound more like the first word (A) or the last word (B)?</p> <br> <div class=""container""> <div id=""a-box""> <p class=""title-text"">A</h3></p> </div> <div id=""x-box""> <p class=""title-text"">X<p> </div> <div id=""b-box""> <p class=""title-text"">B</p></div> <br> <div style='float: left;padding-left:30px;'><p>Press '1' for A</p></div><div style='float: right;padding-right:30px;'><p>Press '0' for B</p> </div> </div></div>","null","","","","","","","","","","","","","",""
"3472","","test","audio-keyboard-response","143","444752","0.0-8.0-1.57","5d9d5debf346240014428500","condB","","resources/audio/wordStim/S9_AI_22_axb_Step-4.wav","48","","","","","AI","resources/audio/wordStim/S9_AI_22_axb_Step-4.wav","S9","22","axb","4","CN","0","0","true"
"null","","fixation","html-keyboard-response","144","445762","0.0-8.0-0.58","5d9d5debf346240014428500","condB","","<div class=""vertical-center"" style='width:60%;'><p style='font-weight:bold;'>Does the middle word sound more like the first word (A) or the last word (B)?</p> <br> <div class=""container""> <div id=""a-box""> <p class=""title-text"">A</h3></p> </div> <div id=""x-box""> <p class=""title-text"">X<p> </div> <div id=""b-box""> <p class=""title-text"">B</p></div> <br> <div style='float: left;padding-left:30px;'><p>Press '1' for A</p></div><div style='float: right;padding-right:30px;'><p>Press '0' for B</p> </div> </div></div>","null","","","","","","","","","","","","","",""
"3832","","test","audio-keyboard-response","145","449598","0.0-8.0-1.58","5d9d5debf346240014428500","condB","","resources/audio/wordStim/S3_AU_11_bxa_Step-3.wav","48","","","","","AU","resources/audio/wordStim/S3_AU_11_bxa_Step-3.wav","S3","11","bxa","3","MI","1","0","false"
"null","","fixation","html-keyboard-response","146","450610","0.0-8.0-0.59","5d9d5debf346240014428500","condB","","<div class=""vertical-center"" style='width:60%;'><p style='font-weight:bold;'>Does the middle word sound more like the first word (A) or the last word (B)?</p> <br> <div class=""container""> <div id=""a-box""> <p class=""title-text"">A</h3></p> </div> <div id=""x-box""> <p class=""title-text"">X<p> </div> <div id=""b-box""> <p class=""title-text"">B</p></div> <br> <div style='float: left;padding-left:30px;'><p>Press '1' for A</p></div><div style='float: right;padding-right:30px;'><p>Press '0' for B</p> </div> </div></div>","null","","","","","","","","","","","","","",""
"3520","","test","audio-keyboard-response","147","454133","0.0-8.0-1.59","5d9d5debf346240014428500","condB","","resources/audio/wordStim/S3_AI_23_bxa_Step-9.wav","49","","","","","AI","resources/audio/wordStim/S3_AI_23_bxa_Step-9.wav","S3","23","bxa","9","MI","1","1","true"
"null","","fixation","html-keyboard-response","148","455140","0.0-8.0-0.60","5d9d5debf346240014428500","condB","","<div class=""vertical-center"" style='width:60%;'><p style='font-weight:bold;'>Does the middle word sound more like the first word (A) or the last word (B)?</p> <br> <div class=""container""> <div id=""a-box""> <p class=""title-text"">A</h3></p> </div> <div id=""x-box""> <p class=""title-text"">X<p> </div> <div id=""b-box""> <p class=""title-text"">B</p></div> <br> <div style='float: left;padding-left:30px;'><p>Press '1' for A</p></div><div style='float: right;padding-right:30px;'><p>Press '0' for B</p> </div> </div></div>","null","","","","","","","","","","","","","",""
"2979","","test","audio-keyboard-response","149","458128","0.0-8.0-1.60","5d9d5debf346240014428500","condB","","resources/audio/wordStim/S9_AI_24_axb_Step-8.wav","49","","","","","AI","resources/audio/wordStim/S9_AI_24_axb_Step-8.wav","S9","24","axb","8","CN","0","1","false"
"null","","fixation","html-keyboard-response","150","459153","0.0-8.0-0.61","5d9d5debf346240014428500","condB","","<div class=""vertical-center"" style='width:60%;'><p style='font-weight:bold;'>Does the middle word sound more like the first word (A) or the last word (B)?</p> <br> <div class=""container""> <div id=""a-box""> <p class=""title-text"">A</h3></p> </div> <div id=""x-box""> <p class=""title-text"">X<p> </div> <div id=""b-box""> <p class=""title-text"">B</p></div> <br> <div style='float: left;padding-left:30px;'><p>Press '1' for A</p></div><div style='float: right;padding-right:30px;'><p>Press '0' for B</p> </div> </div></div>","null","","","","","","","","","","","","","",""
"3120","","test","audio-keyboard-response","151","462274","0.0-8.0-1.61","5d9d5debf346240014428500","condB","","resources/audio/wordStim/S3_AU_11_bxa_Step-10.wav","49","","","","","AU","resources/audio/wordStim/S3_AU_11_bxa_Step-10.wav","S3","11","bxa","10","MI","1","1","true"
"null","","fixation","html-keyboard-response","152","463278","0.0-8.0-0.62","5d9d5debf346240014428500","condB","","<div class=""vertical-center"" style='width:60%;'><p style='font-weight:bold;'>Does the middle word sound more like the first word (A) or the last word (B)?</p> <br> <div class=""container""> <div id=""a-box""> <p class=""title-text"">A</h3></p> </div> <div id=""x-box""> <p class=""title-text"">X<p> </div> <div id=""b-box""> <p class=""title-text"">B</p></div> <br> <div style='float: left;padding-left:30px;'><p>Press '1' for A</p></div><div style='float: right;padding-right:30px;'><p>Press '0' for B</p> </div> </div></div>","null","","","","","","","","","","","","","",""
"2971","","test","audio-keyboard-response","153","466251","0.0-8.0-1.62","5d9d5debf346240014428500","condB","","resources/audio/wordStim/S3_AU_19_bxa_Step-9.wav","49","","","","","AU","resources/audio/wordStim/S3_AU_19_bxa_Step-9.wav","S3","19","bxa","9","MI","1","1","true"
"null","","fixation","html-keyboard-response","154","467277","0.0-8.0-0.63","5d9d5debf346240014428500","condB","","<div class=""vertical-center"" style='width:60%;'><p style='font-weight:bold;'>Does the middle word sound more like the first word (A) or the last word (B)?</p> <br> <div class=""container""> <div id=""a-box""> <p class=""title-text"">A</h3></p> </div> <div id=""x-box""> <p class=""title-text"">X<p> </div> <div id=""b-box""> <p class=""title-text"">B</p></div> <br> <div style='float: left;padding-left:30px;'><p>Press '1' for A</p></div><div style='float: right;padding-right:30px;'><p>Press '0' for B</p> </div> </div></div>","null","","","","","","","","","","","","","",""
"3520","","test","audio-keyboard-response","155","470809","0.0-8.0-1.63","5d9d5debf346240014428500","condB","","resources/audio/wordStim/S9_AI_25_bxa_Step-3.wav","48","","","","","AI","resources/audio/wordStim/S9_AI_25_bxa_Step-3.wav","S9","25","bxa","3","CN","1","0","false"
"null","","fixation","html-keyboard-response","156","471831","0.0-8.0-0.64","5d9d5debf346240014428500","condB","","<div class=""vertical-center"" style='width:60%;'><p style='font-weight:bold;'>Does the middle word sound more like the first word (A) or the last word (B)?</p> <br> <div class=""container""> <div id=""a-box""> <p class=""title-text"">A</h3></p> </div> <div id=""x-box""> <p class=""title-text"">X<p> </div> <div id=""b-box""> <p class=""title-text"">B</p></div> <br> <div style='float: left;padding-left:30px;'><p>Press '1' for A</p></div><div style='float: right;padding-right:30px;'><p>Press '0' for B</p> </div> </div></div>","null","","","","","","","","","","","","","",""
"2859","","test","audio-keyboard-response","157","474699","0.0-8.0-1.64","5d9d5debf346240014428500","condB","","resources/audio/wordStim/S3_AI_22_bxa_Step-10.wav","49","","","","","AI","resources/audio/wordStim/S3_AI_22_bxa_Step-10.wav","S3","22","bxa","10","MI","1","1","true"
"null","","fixation","html-keyboard-response","158","475713","0.0-8.0-0.65","5d9d5debf346240014428500","condB","","<div class=""vertical-center"" style='width:60%;'><p style='font-weight:bold;'>Does the middle word sound more like the first word (A) or the last word (B)?</p> <br> <div class=""container""> <div id=""a-box""> <p class=""title-text"">A</h3></p> </div> <div id=""x-box""> <p class=""title-text"">X<p> </div> <div id=""b-box""> <p class=""title-text"">B</p></div> <br> <div style='float: left;padding-left:30px;'><p>Press '1' for A</p></div><div style='float: right;padding-right:30px;'><p>Press '0' for B</p> </div> </div></div>","null","","","","","","","","","","","","","",""
"2800","","test","audio-keyboard-response","159","478512","0.0-8.0-1.65","5d9d5debf346240014428500","condB","","resources/audio/wordStim/S3_AU_19_bxa_Step-3.wav","49","","","","","AU","resources/audio/wordStim/S3_AU_19_bxa_Step-3.wav","S3","19","bxa","3","MI","1","1","true"
"null","","fixation","html-keyboard-response","160","479539","0.0-8.0-0.66","5d9d5debf346240014428500","condB","","<div class=""vertical-center"" style='width:60%;'><p style='font-weight:bold;'>Does the middle word sound more like the first word (A) or the last word (B)?</p> <br> <div class=""container""> <div id=""a-box""> <p class=""title-text"">A</h3></p> </div> <div id=""x-box""> <p class=""title-text"">X<p> </div> <div id=""b-box""> <p class=""title-text"">B</p></div> <br> <div style='float: left;padding-left:30px;'><p>Press '1' for A</p></div><div style='float: right;padding-right:30px;'><p>Press '0' for B</p> </div> </div></div>","null","","","","","","","","","","","","","",""
"3200","","test","audio-keyboard-response","161","482749","0.0-8.0-1.66","5d9d5debf346240014428500","condB","","resources/audio/wordStim/S3_AU_11_axb_Step-8.wav","49","","","","","AU","resources/audio/wordStim/S3_AU_11_axb_Step-8.wav","S3","11","axb","8","MI","0","1","false"
"null","","fixation","html-keyboard-response","162","483769","0.0-8.0-0.67","5d9d5debf346240014428500","condB","","<div class=""vertical-center"" style='width:60%;'><p style='font-weight:bold;'>Does the middle word sound more like the first word (A) or the last word (B)?</p> <br> <div class=""container""> <div id=""a-box""> <p class=""title-text"">A</h3></p> </div> <div id=""x-box""> <p class=""title-text"">X<p> </div> <div id=""b-box""> <p class=""title-text"">B</p></div> <br> <div style='float: left;padding-left:30px;'><p>Press '1' for A</p></div><div style='float: right;padding-right:30px;'><p>Press '0' for B</p> </div> </div></div>","null","","","","","","","","","","","","","",""
"4131","","test","audio-keyboard-response","163","487902","0.0-8.0-1.67","5d9d5debf346240014428500","condB","","resources/audio/wordStim/S9_AI_29_bxa_Step-9.wav","48","","","","","AI","resources/audio/wordStim/S9_AI_29_bxa_Step-9.wav","S9","29","bxa","9","CN","1","0","false"
"null","","fixation","html-keyboard-response","164","488912","0.0-8.0-0.68","5d9d5debf346240014428500","condB","","<div class=""vertical-center"" style='width:60%;'><p style='font-weight:bold;'>Does the middle word sound more like the first word (A) or the last word (B)?</p> <br> <div class=""container""> <div id=""a-box""> <p class=""title-text"">A</h3></p> </div> <div id=""x-box""> <p class=""title-text"">X<p> </div> <div id=""b-box""> <p class=""title-text"">B</p></div> <br> <div style='float: left;padding-left:30px;'><p>Press '1' for A</p></div><div style='float: right;padding-right:30px;'><p>Press '0' for B</p> </div> </div></div>","null","","","","","","","","","","","","","",""
"3128","","test","audio-keyboard-response","165","492041","0.0-8.0-1.68","5d9d5debf346240014428500","condB","","resources/audio/wordStim/S3_AU_19_bxa_Step-5.wav","49","","","","","AU","resources/audio/wordStim/S3_AU_19_bxa_Step-5.wav","S3","19","bxa","5","MI","1","1","true"
"null","","fixation","html-keyboard-response","166","493069","0.0-8.0-0.69","5d9d5debf346240014428500","condB","","<div class=""vertical-center"" style='width:60%;'><p style='font-weight:bold;'>Does the middle word sound more like the first word (A) or the last word (B)?</p> <br> <div class=""container""> <div id=""a-box""> <p class=""title-text"">A</h3></p> </div> <div id=""x-box""> <p class=""title-text"">X<p> </div> <div id=""b-box""> <p class=""title-text"">B</p></div> <br> <div style='float: left;padding-left:30px;'><p>Press '1' for A</p></div><div style='float: right;padding-right:30px;'><p>Press '0' for B</p> </div> </div></div>","null","","","","","","","","","","","","","",""
"4219","","test","audio-keyboard-response","167","497296","0.0-8.0-1.69","5d9d5debf346240014428500","condB","","resources/audio/wordStim/S9_AU_20_axb_Step-8.wav","49","","","","","AU","resources/audio/wordStim/S9_AU_20_axb_Step-8.wav","S9","20","axb","8","CN","0","1","false"
"null","","fixation","html-keyboard-response","168","498307","0.0-8.0-0.70","5d9d5debf346240014428500","condB","","<div class=""vertical-center"" style='width:60%;'><p style='font-weight:bold;'>Does the middle word sound more like the first word (A) or the last word (B)?</p> <br> <div class=""container""> <div id=""a-box""> <p class=""title-text"">A</h3></p> </div> <div id=""x-box""> <p class=""title-text"">X<p> </div> <div id=""b-box""> <p class=""title-text"">B</p></div> <br> <div style='float: left;padding-left:30px;'><p>Press '1' for A</p></div><div style='float: right;padding-right:30px;'><p>Press '0' for B</p> </div> </div></div>","null","","","","","","","","","","","","","",""
"3520","","test","audio-keyboard-response","169","501839","0.0-8.0-1.70","5d9d5debf346240014428500","condB","","resources/audio/wordStim/S3_AU_14_axb_Step-8.wav","49","","","","","AU","resources/audio/wordStim/S3_AU_14_axb_Step-8.wav","S3","14","axb","8","MI","0","1","false"
"null","","fixation","html-keyboard-response","170","502855","0.0-8.0-0.71","5d9d5debf346240014428500","condB","","<div class=""vertical-center"" style='width:60%;'><p style='font-weight:bold;'>Does the middle word sound more like the first word (A) or the last word (B)?</p> <br> <div class=""container""> <div id=""a-box""> <p class=""title-text"">A</h3></p> </div> <div id=""x-box""> <p class=""title-text"">X<p> </div> <div id=""b-box""> <p class=""title-text"">B</p></div> <br> <div style='float: left;padding-left:30px;'><p>Press '1' for A</p></div><div style='float: right;padding-right:30px;'><p>Press '0' for B</p> </div> </div></div>","null","","","","","","","","","","","","","",""
"4451","","test","audio-keyboard-response","171","507303","0.0-8.0-1.71","5d9d5debf346240014428500","condB","","resources/audio/wordStim/S9_AU_18_bxa_Step-7.wav","48","","","","","AU","resources/audio/wordStim/S9_AU_18_bxa_Step-7.wav","S9","18","bxa","7","CN","1","0","false"
"null","","fixation","html-keyboard-response","172","508323","0.0-8.0-0.72","5d9d5debf346240014428500","condB","","<div class=""vertical-center"" style='width:60%;'><p style='font-weight:bold;'>Does the middle word sound more like the first word (A) or the last word (B)?</p> <br> <div class=""container""> <div id=""a-box""> <p class=""title-text"">A</h3></p> </div> <div id=""x-box""> <p class=""title-text"">X<p> </div> <div id=""b-box""> <p class=""title-text"">B</p></div> <br> <div style='float: left;padding-left:30px;'><p>Press '1' for A</p></div><div style='float: right;padding-right:30px;'><p>Press '0' for B</p> </div> </div></div>","null","","","","","","","","","","","","","",""
"3491","","test","audio-keyboard-response","173","511814","0.0-8.0-1.72","5d9d5debf346240014428500","condB","","resources/audio/wordStim/S9_AI_30_axb_Step-4.wav","48","","","","","AI","resources/audio/wordStim/S9_AI_30_axb_Step-4.wav","S9","30","axb","4","CN","0","0","true"
"null","","fixation","html-keyboard-response","174","512832","0.0-8.0-0.73","5d9d5debf346240014428500","condB","","<div class=""vertical-center"" style='width:60%;'><p style='font-weight:bold;'>Does the middle word sound more like the first word (A) or the last word (B)?</p> <br> <div class=""container""> <div id=""a-box""> <p class=""title-text"">A</h3></p> </div> <div id=""x-box""> <p class=""title-text"">X<p> </div> <div id=""b-box""> <p class=""title-text"">B</p></div> <br> <div style='float: left;padding-left:30px;'><p>Press '1' for A</p></div><div style='float: right;padding-right:30px;'><p>Press '0' for B</p> </div> </div></div>","null","","","","","","","","","","","","","",""
"3019","","test","audio-keyboard-response","175","515854","0.0-8.0-1.73","5d9d5debf346240014428500","condB","","resources/audio/wordStim/S3_AI_29_axb_Step-6.wav","48","","","","","AI","resources/audio/wordStim/S3_AI_29_axb_Step-6.wav","S3","29","axb","6","MI","0","0","true"
"null","","fixation","html-keyboard-response","176","516871","0.0-8.0-0.74","5d9d5debf346240014428500","condB","","<div class=""vertical-center"" style='width:60%;'><p style='font-weight:bold;'>Does the middle word sound more like the first word (A) or the last word (B)?</p> <br> <div class=""container""> <div id=""a-box""> <p class=""title-text"">A</h3></p> </div> <div id=""x-box""> <p class=""title-text"">X<p> </div> <div id=""b-box""> <p class=""title-text"">B</p></div> <br> <div style='float: left;padding-left:30px;'><p>Press '1' for A</p></div><div style='float: right;padding-right:30px;'><p>Press '0' for B</p> </div> </div></div>","null","","","","","","","","","","","","","",""
"2949","","test","audio-keyboard-response","177","519824","0.0-8.0-1.74","5d9d5debf346240014428500","condB","","resources/audio/wordStim/S9_AI_23_bxa_Step-9.wav","49","","","","","AI","resources/audio/wordStim/S9_AI_23_bxa_Step-9.wav","S9","23","bxa","9","CN","1","1","true"
"null","","fixation","html-keyboard-response","178","520834","0.0-8.0-0.75","5d9d5debf346240014428500","condB","","<div class=""vertical-center"" style='width:60%;'><p style='font-weight:bold;'>Does the middle word sound more like the first word (A) or the last word (B)?</p> <br> <div class=""container""> <div id=""a-box""> <p class=""title-text"">A</h3></p> </div> <div id=""x-box""> <p class=""title-text"">X<p> </div> <div id=""b-box""> <p class=""title-text"">B</p></div> <br> <div style='float: left;padding-left:30px;'><p>Press '1' for A</p></div><div style='float: right;padding-right:30px;'><p>Press '0' for B</p> </div> </div></div>","null","","","","","","","","","","","","","",""
"2989","","test","audio-keyboard-response","179","523825","0.0-8.0-1.75","5d9d5debf346240014428500","condB","","resources/audio/wordStim/S9_AU_18_axb_Step-8.wav","48","","","","","AU","resources/audio/wordStim/S9_AU_18_axb_Step-8.wav","S9","18","axb","8","CN","0","0","true"
"null","","fixation","html-keyboard-response","180","524836","0.0-8.0-0.76","5d9d5debf346240014428500","condB","","<div class=""vertical-center"" style='width:60%;'><p style='font-weight:bold;'>Does the middle word sound more like the first word (A) or the last word (B)?</p> <br> <div class=""container""> <div id=""a-box""> <p class=""title-text"">A</h3></p> </div> <div id=""x-box""> <p class=""title-text"">X<p> </div> <div id=""b-box""> <p class=""title-text"">B</p></div> <br> <div style='float: left;padding-left:30px;'><p>Press '1' for A</p></div><div style='float: right;padding-right:30px;'><p>Press '0' for B</p> </div> </div></div>","null","","","","","","","","","","","","","",""
"2672","","test","audio-keyboard-response","181","527509","0.0-8.0-1.76","5d9d5debf346240014428500","condB","","resources/audio/wordStim/S9_AU_16_axb_Step-4.wav","49","","","","","AU","resources/audio/wordStim/S9_AU_16_axb_Step-4.wav","S9","16","axb","4","CN","0","1","false"
"null","","fixation","html-keyboard-response","182","528525","0.0-8.0-0.77","5d9d5debf346240014428500","condB","","<div class=""vertical-center"" style='width:60%;'><p style='font-weight:bold;'>Does the middle word sound more like the first word (A) or the last word (B)?</p> <br> <div class=""container""> <div id=""a-box""> <p class=""title-text"">A</h3></p> </div> <div id=""x-box""> <p class=""title-text"">X<p> </div> <div id=""b-box""> <p class=""title-text"">B</p></div> <br> <div style='float: left;padding-left:30px;'><p>Press '1' for A</p></div><div style='float: right;padding-right:30px;'><p>Press '0' for B</p> </div> </div></div>","null","","","","","","","","","","","","","",""
"2960","","test","audio-keyboard-response","183","531487","0.0-8.0-1.77","5d9d5debf346240014428500","condB","","resources/audio/wordStim/S3_AU_20_bxa_Step-7.wav","48","","","","","AU","resources/audio/wordStim/S3_AU_20_bxa_Step-7.wav","S3","20","bxa","7","MI","1","0","false"
"null","","fixation","html-keyboard-response","184","532502","0.0-8.0-0.78","5d9d5debf346240014428500","condB","","<div class=""vertical-center"" style='width:60%;'><p style='font-weight:bold;'>Does the middle word sound more like the first word (A) or the last word (B)?</p> <br> <div class=""container""> <div id=""a-box""> <p class=""title-text"">A</h3></p> </div> <div id=""x-box""> <p class=""title-text"">X<p> </div> <div id=""b-box""> <p class=""title-text"">B</p></div> <br> <div style='float: left;padding-left:30px;'><p>Press '1' for A</p></div><div style='float: right;padding-right:30px;'><p>Press '0' for B</p> </div> </div></div>","null","","","","","","","","","","","","","",""
"2779","","test","audio-keyboard-response","185","535288","0.0-8.0-1.78","5d9d5debf346240014428500","condB","","resources/audio/wordStim/S9_AU_19_axb_Step-4.wav","49","","","","","AU","resources/audio/wordStim/S9_AU_19_axb_Step-4.wav","S9","19","axb","4","CN","0","1","false"
"null","","fixation","html-keyboard-response","186","536306","0.0-8.0-0.79","5d9d5debf346240014428500","condB","","<div class=""vertical-center"" style='width:60%;'><p style='font-weight:bold;'>Does the middle word sound more like the first word (A) or the last word (B)?</p> <br> <div class=""container""> <div id=""a-box""> <p class=""title-text"">A</h3></p> </div> <div id=""x-box""> <p class=""title-text"">X<p> </div> <div id=""b-box""> <p class=""title-text"">B</p></div> <br> <div style='float: left;padding-left:30px;'><p>Press '1' for A</p></div><div style='float: right;padding-right:30px;'><p>Press '0' for B</p> </div> </div></div>","null","","","","","","","","","","","","","",""
"3328","","test","audio-keyboard-response","187","539646","0.0-8.0-1.79","5d9d5debf346240014428500","condB","","resources/audio/wordStim/S3_AU_17_axb_Step-2.wav","49","","","","","AU","resources/audio/wordStim/S3_AU_17_axb_Step-2.wav","S3","17","axb","2","MI","0","1","false"
"null","","fixation","html-keyboard-response","188","540655","0.0-8.0-0.80","5d9d5debf346240014428500","condB","","<div class=""vertical-center"" style='width:60%;'><p style='font-weight:bold;'>Does the middle word sound more like the first word (A) or the last word (B)?</p> <br> <div class=""container""> <div id=""a-box""> <p class=""title-text"">A</h3></p> </div> <div id=""x-box""> <p class=""title-text"">X<p> </div> <div id=""b-box""> <p class=""title-text"">B</p></div> <br> <div style='float: left;padding-left:30px;'><p>Press '1' for A</p></div><div style='float: right;padding-right:30px;'><p>Press '0' for B</p> </div> </div></div>","null","","","","","","","","","","","","","",""
"3000","","test","audio-keyboard-response","189","543655","0.0-8.0-1.80","5d9d5debf346240014428500","condB","","resources/audio/wordStim/S9_AI_23_bxa_Step-5.wav","48","","","","","AI","resources/audio/wordStim/S9_AI_23_bxa_Step-5.wav","S9","23","bxa","5","CN","1","0","false"
"3591.6100000031292","","break","html-keyboard-response","190","547753","0.0-8.0-2.80-0.80","5d9d5debf346240014428500","condB","","<div class=""vertical-center""><p>Feel free to take a break!</p><i>When you're ready to continue, press SPACE to begin the next trial.</i></p></div>","32","","","","","","","","","","","","","",""
"null","","fixation","html-keyboard-response","191","548267","0.0-8.0-0.81","5d9d5debf346240014428500","condB","","<div class=""vertical-center"" style='width:60%;'><p style='font-weight:bold;'>Does the middle word sound more like the first word (A) or the last word (B)?</p> <br> <div class=""container""> <div id=""a-box""> <p class=""title-text"">A</h3></p> </div> <div id=""x-box""> <p class=""title-text"">X<p> </div> <div id=""b-box""> <p class=""title-text"">B</p></div> <br> <div style='float: left;padding-left:30px;'><p>Press '1' for A</p></div><div style='float: right;padding-right:30px;'><p>Press '0' for B</p> </div> </div></div>","null","","","","","","","","","","","","","",""
"2779","","test","audio-keyboard-response","192","551053","0.0-8.0-1.81","5d9d5debf346240014428500","condB","","resources/audio/wordStim/S3_AI_28_bxa_Step-3.wav","49","","","","","AI","resources/audio/wordStim/S3_AI_28_bxa_Step-3.wav","S3","28","bxa","3","MI","1","1","true"
"null","","fixation","html-keyboard-response","193","552075","0.0-8.0-0.82","5d9d5debf346240014428500","condB","","<div class=""vertical-center"" style='width:60%;'><p style='font-weight:bold;'>Does the middle word sound more like the first word (A) or the last word (B)?</p> <br> <div class=""container""> <div id=""a-box""> <p class=""title-text"">A</h3></p> </div> <div id=""x-box""> <p class=""title-text"">X<p> </div> <div id=""b-box""> <p class=""title-text"">B</p></div> <br> <div style='float: left;padding-left:30px;'><p>Press '1' for A</p></div><div style='float: right;padding-right:30px;'><p>Press '0' for B</p> </div> </div></div>","null","","","","","","","","","","","","","",""
"2808","","test","audio-keyboard-response","194","554887","0.0-8.0-1.82","5d9d5debf346240014428500","condB","","resources/audio/wordStim/S9_AU_16_axb_Step-6.wav","49","","","","","AU","resources/audio/wordStim/S9_AU_16_axb_Step-6.wav","S9","16","axb","6","CN","0","1","false"
"null","","fixation","html-keyboard-response","195","555909","0.0-8.0-0.83","5d9d5debf346240014428500","condB","","<div class=""vertical-center"" style='width:60%;'><p style='font-weight:bold;'>Does the middle word sound more like the first word (A) or the last word (B)?</p> <br> <div class=""container""> <div id=""a-box""> <p class=""title-text"">A</h3></p> </div> <div id=""x-box""> <p class=""title-text"">X<p> </div> <div id=""b-box""> <p class=""title-text"">B</p></div> <br> <div style='float: left;padding-left:30px;'><p>Press '1' for A</p></div><div style='float: right;padding-right:30px;'><p>Press '0' for B</p> </div> </div></div>","null","","","","","","","","","","","","","",""
"2808","","test","audio-keyboard-response","196","558721","0.0-8.0-1.83","5d9d5debf346240014428500","condB","","resources/audio/wordStim/S3_AU_11_axb_Step-2.wav","48","","","","","AU","resources/audio/wordStim/S3_AU_11_axb_Step-2.wav","S3","11","axb","2","MI","0","0","true"
"null","","fixation","html-keyboard-response","197","559752","0.0-8.0-0.84","5d9d5debf346240014428500","condB","","<div class=""vertical-center"" style='width:60%;'><p style='font-weight:bold;'>Does the middle word sound more like the first word (A) or the last word (B)?</p> <br> <div class=""container""> <div id=""a-box""> <p class=""title-text"">A</h3></p> </div> <div id=""x-box""> <p class=""title-text"">X<p> </div> <div id=""b-box""> <p class=""title-text"">B</p></div> <br> <div style='float: left;padding-left:30px;'><p>Press '1' for A</p></div><div style='float: right;padding-right:30px;'><p>Press '0' for B</p> </div> </div></div>","null","","","","","","","","","","","","","",""
"3059","","test","audio-keyboard-response","198","562813","0.0-8.0-1.84","5d9d5debf346240014428500","condB","","resources/audio/wordStim/S3_AU_11_axb_Step-4.wav","48","","","","","AU","resources/audio/wordStim/S3_AU_11_axb_Step-4.wav","S3","11","axb","4","MI","0","0","true"
"null","","fixation","html-keyboard-response","199","563845","0.0-8.0-0.85","5d9d5debf346240014428500","condB","","<div class=""vertical-center"" style='width:60%;'><p style='font-weight:bold;'>Does the middle word sound more like the first word (A) or the last word (B)?</p> <br> <div class=""container""> <div id=""a-box""> <p class=""title-text"">A</h3></p> </div> <div id=""x-box""> <p class=""title-text"">X<p> </div> <div id=""b-box""> <p class=""title-text"">B</p></div> <br> <div style='float: left;padding-left:30px;'><p>Press '1' for A</p></div><div style='float: right;padding-right:30px;'><p>Press '0' for B</p> </div> </div></div>","null","","","","","","","","","","","","","",""
"2531","","test","audio-keyboard-response","200","566377","0.0-8.0-1.85","5d9d5debf346240014428500","condB","","resources/audio/wordStim/S9_AU_20_axb_Step-2.wav","49","","","","","AU","resources/audio/wordStim/S9_AU_20_axb_Step-2.wav","S9","20","axb","2","CN","0","1","false"
"null","","fixation","html-keyboard-response","201","567398","0.0-8.0-0.86","5d9d5debf346240014428500","condB","","<div class=""vertical-center"" style='width:60%;'><p style='font-weight:bold;'>Does the middle word sound more like the first word (A) or the last word (B)?</p> <br> <div class=""container""> <div id=""a-box""> <p class=""title-text"">A</h3></p> </div> <div id=""x-box""> <p class=""title-text"">X<p> </div> <div id=""b-box""> <p class=""title-text"">B</p></div> <br> <div style='float: left;padding-left:30px;'><p>Press '1' for A</p></div><div style='float: right;padding-right:30px;'><p>Press '0' for B</p> </div> </div></div>","null","","","","","","","","","","","","","",""
"3480","","test","audio-keyboard-response","202","570885","0.0-8.0-1.86","5d9d5debf346240014428500","condB","","resources/audio/wordStim/S9_AU_18_axb_Step-2.wav","49","","","","","AU","resources/audio/wordStim/S9_AU_18_axb_Step-2.wav","S9","18","axb","2","CN","0","1","false"
"null","","fixation","html-keyboard-response","203","571909","0.0-8.0-0.87","5d9d5debf346240014428500","condB","","<div class=""vertical-center"" style='width:60%;'><p style='font-weight:bold;'>Does the middle word sound more like the first word (A) or the last word (B)?</p> <br> <div class=""container""> <div id=""a-box""> <p class=""title-text"">A</h3></p> </div> <div id=""x-box""> <p class=""title-text"">X<p> </div> <div id=""b-box""> <p class=""title-text"">B</p></div> <br> <div style='float: left;padding-left:30px;'><p>Press '1' for A</p></div><div style='float: right;padding-right:30px;'><p>Press '0' for B</p> </div> </div></div>","null","","","","","","","","","","","","","",""
"2680","","test","audio-keyboard-response","204","574596","0.0-8.0-1.87","5d9d5debf346240014428500","condB","","resources/audio/wordStim/S9_AU_16_axb_Step-2.wav","49","","","","","AU","resources/audio/wordStim/S9_AU_16_axb_Step-2.wav","S9","16","axb","2","CN","0","1","false"
"null","","fixation","html-keyboard-response","205","575620","0.0-8.0-0.88","5d9d5debf346240014428500","condB","","<div class=""vertical-center"" style='width:60%;'><p style='font-weight:bold;'>Does the middle word sound more like the first word (A) or the last word (B)?</p> <br> <div class=""container""> <div id=""a-box""> <p class=""title-text"">A</h3></p> </div> <div id=""x-box""> <p class=""title-text"">X<p> </div> <div id=""b-box""> <p class=""title-text"">B</p></div> <br> <div style='float: left;padding-left:30px;'><p>Press '1' for A</p></div><div style='float: right;padding-right:30px;'><p>Press '0' for B</p> </div> </div></div>","null","","","","","","","","","","","","","",""
"2869","","test","audio-keyboard-response","206","578496","0.0-8.0-1.88","5d9d5debf346240014428500","condB","","resources/audio/wordStim/S3_AI_22_axb_Step-4.wav","49","","","","","AI","resources/audio/wordStim/S3_AI_22_axb_Step-4.wav","S3","22","axb","4","MI","0","1","false"
"null","","fixation","html-keyboard-response","207","579504","0.0-8.0-0.89","5d9d5debf346240014428500","condB","","<div class=""vertical-center"" style='width:60%;'><p style='font-weight:bold;'>Does the middle word sound more like the first word (A) or the last word (B)?</p> <br> <div class=""container""> <div id=""a-box""> <p class=""title-text"">A</h3></p> </div> <div id=""x-box""> <p class=""title-text"">X<p> </div> <div id=""b-box""> <p class=""title-text"">B</p></div> <br> <div style='float: left;padding-left:30px;'><p>Press '1' for A</p></div><div style='float: right;padding-right:30px;'><p>Press '0' for B</p> </div> </div></div>","null","","","","","","","","","","","","","",""
"2920","","test","audio-keyboard-response","208","582422","0.0-8.0-1.89","5d9d5debf346240014428500","condB","","resources/audio/wordStim/S3_AI_25_bxa_Step-10.wav","48","","","","","AI","resources/audio/wordStim/S3_AI_25_bxa_Step-10.wav","S3","25","bxa","10","MI","1","0","false"
"null","","fixation","html-keyboard-response","209","583444","0.0-8.0-0.90","5d9d5debf346240014428500","condB","","<div class=""vertical-center"" style='width:60%;'><p style='font-weight:bold;'>Does the middle word sound more like the first word (A) or the last word (B)?</p> <br> <div class=""container""> <div id=""a-box""> <p class=""title-text"">A</h3></p> </div> <div id=""x-box""> <p class=""title-text"">X<p> </div> <div id=""b-box""> <p class=""title-text"">B</p></div> <br> <div style='float: left;padding-left:30px;'><p>Press '1' for A</p></div><div style='float: right;padding-right:30px;'><p>Press '0' for B</p> </div> </div></div>","null","","","","","","","","","","","","","",""
"3352","","test","audio-keyboard-response","210","586797","0.0-8.0-1.90","5d9d5debf346240014428500","condB","","resources/audio/wordStim/S9_AI_22_bxa_Step-10.wav","48","","","","","AI","resources/audio/wordStim/S9_AI_22_bxa_Step-10.wav","S9","22","bxa","10","CN","1","0","false"
"null","","fixation","html-keyboard-response","211","587818","0.0-8.0-0.91","5d9d5debf346240014428500","condB","","<div class=""vertical-center"" style='width:60%;'><p style='font-weight:bold;'>Does the middle word sound more like the first word (A) or the last word (B)?</p> <br> <div class=""container""> <div id=""a-box""> <p class=""title-text"">A</h3></p> </div> <div id=""x-box""> <p class=""title-text"">X<p> </div> <div id=""b-box""> <p class=""title-text"">B</p></div> <br> <div style='float: left;padding-left:30px;'><p>Press '1' for A</p></div><div style='float: right;padding-right:30px;'><p>Press '0' for B</p> </div> </div></div>","null","","","","","","","","","","","","","",""
"3019","","test","audio-keyboard-response","212","590839","0.0-8.0-1.91","5d9d5debf346240014428500","condB","","resources/audio/wordStim/S3_AI_28_axb_Step-4.wav","48","","","","","AI","resources/audio/wordStim/S3_AI_28_axb_Step-4.wav","S3","28","axb","4","MI","0","0","true"
"null","","fixation","html-keyboard-response","213","591868","0.0-8.0-0.92","5d9d5debf346240014428500","condB","","<div class=""vertical-center"" style='width:60%;'><p style='font-weight:bold;'>Does the middle word sound more like the first word (A) or the last word (B)?</p> <br> <div class=""container""> <div id=""a-box""> <p class=""title-text"">A</h3></p> </div> <div id=""x-box""> <p class=""title-text"">X<p> </div> <div id=""b-box""> <p class=""title-text"">B</p></div> <br> <div style='float: left;padding-left:30px;'><p>Press '1' for A</p></div><div style='float: right;padding-right:30px;'><p>Press '0' for B</p> </div> </div></div>","null","","","","","","","","","","","","","",""
"3109","","test","audio-keyboard-response","214","594982","0.0-8.0-1.92","5d9d5debf346240014428500","condB","","resources/audio/wordStim/S9_AU_11_axb_Step-6.wav","48","","","","","AU","resources/audio/wordStim/S9_AU_11_axb_Step-6.wav","S9","11","axb","6","CN","0","0","true"
