"rt","url","trial_role","trial_type","trial_index","time_elapsed","internal_node_id","participantId","condition","view_history","stimulus","key_press","button_pressed","correct_answer","correct_response","success","vowel","wordStim","speaker","sentNum","order","step","speakerIdentity","raised_answer","key_response","raised_response"
"8702.67999987118","micr.con.consent.html","consent","external-html","0","8773","0.0-0.0","5e9902c3a64f740009842923","condB","","","","","","","","","","","","","","","","",""
"27808.799999998882","","instructions","instructions","1","36585","0.0-1.0","5e9902c3a64f740009842923","condB","[{""page_index"":0,""viewing_time"":14395.169999916106},{""page_index"":1,""viewing_time"":5813.904999988154},{""page_index"":2,""viewing_time"":7598.945000208914}]","","","","","","","","","","","","","","","",""
"null","","fixation","html-keyboard-response","2","37086","0.0-2.0-0.0","5e9902c3a64f740009842923","condB","","<div class=""vertical-center"" style=""font-size:60px;"">+</div>","null","","","","","","","","","","","","","",""
"4372.540000127628","","tonetest","audio-button-response","3","41461","0.0-2.0-1.0","5e9902c3a64f740009842923","condB","","../../src/audio/toneTest_2.wav","","1","1","true","","","","","","","","","","",""
"null","","fixation","html-keyboard-response","4","41962","0.0-2.0-0.1","5e9902c3a64f740009842923","condB","","<div class=""vertical-center"" style=""font-size:60px;"">+</div>","null","","","","","","","","","","","","","",""
"4123.020000057295","","tonetest","audio-button-response","5","46086","0.0-2.0-1.1","5e9902c3a64f740009842923","condB","","../../src/audio/toneTest_5.wav","","0","0","true","","","","","","","","","","",""
"null","","fixation","html-keyboard-response","6","46588","0.0-2.0-0.2","5e9902c3a64f740009842923","condB","","<div class=""vertical-center"" style=""font-size:60px;"">+</div>","null","","","","","","","","","","","","","",""
"4179.714999860153","","tonetest","audio-button-response","7","50769","0.0-2.0-1.2","5e9902c3a64f740009842923","condB","","../../src/audio/toneTest_6.wav","","0","0","true","","","","","","","","","","",""
"null","","fixation","html-keyboard-response","8","51272","0.0-2.0-0.3","5e9902c3a64f740009842923","condB","","<div class=""vertical-center"" style=""font-size:60px;"">+</div>","null","","","","","","","","","","","","","",""
"4569.269999861717","","tonetest","audio-button-response","9","55842","0.0-2.0-1.3","5e9902c3a64f740009842923","condB","","../../src/audio/toneTest_1.wav","","2","2","true","","","","","","","","","","",""
"null","","fixation","html-keyboard-response","10","56348","0.0-2.0-0.4","5e9902c3a64f740009842923","condB","","<div class=""vertical-center"" style=""font-size:60px;"">+</div>","null","","","","","","","","","","","","","",""
"3973.5449999570847","","tonetest","audio-button-response","11","60322","0.0-2.0-1.4","5e9902c3a64f740009842923","condB","","../../src/audio/toneTest_3.wav","","2","2","true","","","","","","","","","","",""
"null","","fixation","html-keyboard-response","12","60823","0.0-2.0-0.5","5e9902c3a64f740009842923","condB","","<div class=""vertical-center"" style=""font-size:60px;"">+</div>","null","","","","","","","","","","","","","",""
"3525.455000111833","","tonetest","audio-button-response","13","64349","0.0-2.0-1.5","5e9902c3a64f740009842923","condB","","../../src/audio/toneTest_2.wav","","1","1","true","","","","","","","","","","",""
"6263.355000177398","","instructions","html-keyboard-response","14","70614","0.0-3.0","5e9902c3a64f740009842923","condB","","<div class=""vertical-center""><p><b>Your score was 6/6.</b></p><p>If you scored below 6, please ensure that you are wearing properly functioning headphones and in a quiet location free of distractions.</p><p><i>To continue to the main experiment, press SPACE.</i></p></div>","32","","","","","","","","","","","","","",""
"","","","fullscreen","15","73608","0.0-4.0","5e9902c3a64f740009842923","condB","","","","","","","true","","","","","","","","","",""
"28604.109999956563","","instructions","instructions","16","102213","0.0-5.0","5e9902c3a64f740009842923","condB","[{""page_index"":0,""viewing_time"":28603.854999877512}]","","","","","","","","","","","","","","","",""
"null","","fixation","html-keyboard-response","17","102715","0.0-6.0-0.0","5e9902c3a64f740009842923","condB","","<div class=""vertical-center"" style='width:60%;'><p style='font-weight:bold;'>Does the middle word sound more like the first word (A) or the last word (B)?</p> <br> <div class=""container""> <div id=""a-box""> <p class=""title-text"">A</h3></p> </div> <div id=""x-box""> <p class=""title-text"">X<p> </div> <div id=""b-box""> <p class=""title-text"">B</p></div> <br> <div style='float: left;padding-left:30px;'><p>Press '1' for A</p></div><div style='float: right;padding-right:30px;'><p>Press '0' for B</p> </div> </div></div>","null","","","","","","","","","","","","","",""
"2496","","practice","audio-keyboard-response","18","105273","0.0-6.0-1.0","5e9902c3a64f740009842923","condB","","resources/audio/practiceStim/S1_AI_21_axb_Step-6.wav","49","","","","","","","","","","","","","",""
"null","","fixation","html-keyboard-response","19","106275","0.0-6.0-0.1","5e9902c3a64f740009842923","condB","","<div class=""vertical-center"" style='width:60%;'><p style='font-weight:bold;'>Does the middle word sound more like the first word (A) or the last word (B)?</p> <br> <div class=""container""> <div id=""a-box""> <p class=""title-text"">A</h3></p> </div> <div id=""x-box""> <p class=""title-text"">X<p> </div> <div id=""b-box""> <p class=""title-text"">B</p></div> <br> <div style='float: left;padding-left:30px;'><p>Press '1' for A</p></div><div style='float: right;padding-right:30px;'><p>Press '0' for B</p> </div> </div></div>","null","","","","","","","","","","","","","",""
"2821","","practice","audio-keyboard-response","20","109097","0.0-6.0-1.1","5e9902c3a64f740009842923","condB","","resources/audio/practiceStim/S1_AI_21_bxa_Step-6.wav","49","","","","","","","","","","","","","",""
"null","","fixation","html-keyboard-response","21","110103","0.0-6.0-0.2","5e9902c3a64f740009842923","condB","","<div class=""vertical-center"" style='width:60%;'><p style='font-weight:bold;'>Does the middle word sound more like the first word (A) or the last word (B)?</p> <br> <div class=""container""> <div id=""a-box""> <p class=""title-text"">A</h3></p> </div> <div id=""x-box""> <p class=""title-text"">X<p> </div> <div id=""b-box""> <p class=""title-text"">B</p></div> <br> <div style='float: left;padding-left:30px;'><p>Press '1' for A</p></div><div style='float: right;padding-right:30px;'><p>Press '0' for B</p> </div> </div></div>","null","","","","","","","","","","","","","",""
"2581","","practice","audio-keyboard-response","22","112686","0.0-6.0-1.2","5e9902c3a64f740009842923","condB","","resources/audio/practiceStim/S1_AU_14_bxa_Step-6.wav","48","","","","","","","","","","","","","",""
"null","","fixation","html-keyboard-response","23","113691","0.0-6.0-0.3","5e9902c3a64f740009842923","condB","","<div class=""vertical-center"" style='width:60%;'><p style='font-weight:bold;'>Does the middle word sound more like the first word (A) or the last word (B)?</p> <br> <div class=""container""> <div id=""a-box""> <p class=""title-text"">A</h3></p> </div> <div id=""x-box""> <p class=""title-text"">X<p> </div> <div id=""b-box""> <p class=""title-text"">B</p></div> <br> <div style='float: left;padding-left:30px;'><p>Press '1' for A</p></div><div style='float: right;padding-right:30px;'><p>Press '0' for B</p> </div> </div></div>","null","","","","","","","","","","","","","",""
"2576","","practice","audio-keyboard-response","24","116268","0.0-6.0-1.3","5e9902c3a64f740009842923","condB","","resources/audio/practiceStim/S1_AU_14_axb_Step-6.wav","49","","","","","","","","","","","","","",""
"1600.3950000740588","","instructions","instructions","25","118369","0.0-7.0","5e9902c3a64f740009842923","condB","[{""page_index"":0,""viewing_time"":1600.2600002102554}]","","","","","","","","","","","","","","","",""
"null","","fixation","html-keyboard-response","26","118873","0.0-8.0-0.0","5e9902c3a64f740009842923","condB","","<div class=""vertical-center"" style='width:60%;'><p style='font-weight:bold;'>Does the middle word sound more like the first word (A) or the last word (B)?</p> <br> <div class=""container""> <div id=""a-box""> <p class=""title-text"">A</h3></p> </div> <div id=""x-box""> <p class=""title-text"">X<p> </div> <div id=""b-box""> <p class=""title-text"">B</p></div> <br> <div style='float: left;padding-left:30px;'><p>Press '1' for A</p></div><div style='float: right;padding-right:30px;'><p>Press '0' for B</p> </div> </div></div>","null","","","","","","","","","","","","","",""
"2320","","test","audio-keyboard-response","27","121193","0.0-8.0-1.0","5e9902c3a64f740009842923","condB","","resources/audio/wordStim/S9_AU_16_bxa_Step-3.wav","49","","","","","AU","resources/audio/wordStim/S9_AU_16_bxa_Step-3.wav","S9","16","bxa","3","CN","1","1","true"
"null","","fixation","html-keyboard-response","28","122199","0.0-8.0-0.1","5e9902c3a64f740009842923","condB","","<div class=""vertical-center"" style='width:60%;'><p style='font-weight:bold;'>Does the middle word sound more like the first word (A) or the last word (B)?</p> <br> <div class=""container""> <div id=""a-box""> <p class=""title-text"">A</h3></p> </div> <div id=""x-box""> <p class=""title-text"">X<p> </div> <div id=""b-box""> <p class=""title-text"">B</p></div> <br> <div style='float: left;padding-left:30px;'><p>Press '1' for A</p></div><div style='float: right;padding-right:30px;'><p>Press '0' for B</p> </div> </div></div>","null","","","","","","","","","","","","","",""
"3216","","test","audio-keyboard-response","29","125419","0.0-8.0-1.1","5e9902c3a64f740009842923","condB","","resources/audio/wordStim/S3_AU_18_axb_Step-2.wav","49","","","","","AU","resources/audio/wordStim/S3_AU_18_axb_Step-2.wav","S3","18","axb","2","MI","0","1","false"
"null","","fixation","html-keyboard-response","30","126421","0.0-8.0-0.2","5e9902c3a64f740009842923","condB","","<div class=""vertical-center"" style='width:60%;'><p style='font-weight:bold;'>Does the middle word sound more like the first word (A) or the last word (B)?</p> <br> <div class=""container""> <div id=""a-box""> <p class=""title-text"">A</h3></p> </div> <div id=""x-box""> <p class=""title-text"">X<p> </div> <div id=""b-box""> <p class=""title-text"">B</p></div> <br> <div style='float: left;padding-left:30px;'><p>Press '1' for A</p></div><div style='float: right;padding-right:30px;'><p>Press '0' for B</p> </div> </div></div>","null","","","","","","","","","","","","","",""
"2533","","test","audio-keyboard-response","31","128957","0.0-8.0-1.2","5e9902c3a64f740009842923","condB","","resources/audio/wordStim/S9_AI_23_bxa_Step-5.wav","49","","","","","AI","resources/audio/wordStim/S9_AI_23_bxa_Step-5.wav","S9","23","bxa","5","CN","1","1","true"
"null","","fixation","html-keyboard-response","32","129962","0.0-8.0-0.3","5e9902c3a64f740009842923","condB","","<div class=""vertical-center"" style='width:60%;'><p style='font-weight:bold;'>Does the middle word sound more like the first word (A) or the last word (B)?</p> <br> <div class=""container""> <div id=""a-box""> <p class=""title-text"">A</h3></p> </div> <div id=""x-box""> <p class=""title-text"">X<p> </div> <div id=""b-box""> <p class=""title-text"">B</p></div> <br> <div style='float: left;padding-left:30px;'><p>Press '1' for A</p></div><div style='float: right;padding-right:30px;'><p>Press '0' for B</p> </div> </div></div>","null","","","","","","","","","","","","","",""
"2891","","test","audio-keyboard-response","33","132856","0.0-8.0-1.3","5e9902c3a64f740009842923","condB","","resources/audio/wordStim/S9_AI_27_axb_Step-4.wav","48","","","","","AI","resources/audio/wordStim/S9_AI_27_axb_Step-4.wav","S9","27","axb","4","CN","0","0","true"
"null","","fixation","html-keyboard-response","34","133860","0.0-8.0-0.4","5e9902c3a64f740009842923","condB","","<div class=""vertical-center"" style='width:60%;'><p style='font-weight:bold;'>Does the middle word sound more like the first word (A) or the last word (B)?</p> <br> <div class=""container""> <div id=""a-box""> <p class=""title-text"">A</h3></p> </div> <div id=""x-box""> <p class=""title-text"">X<p> </div> <div id=""b-box""> <p class=""title-text"">B</p></div> <br> <div style='float: left;padding-left:30px;'><p>Press '1' for A</p></div><div style='float: right;padding-right:30px;'><p>Press '0' for B</p> </div> </div></div>","null","","","","","","","","","","","","","",""
"2283","","test","audio-keyboard-response","35","136141","0.0-8.0-1.4","5e9902c3a64f740009842923","condB","","resources/audio/wordStim/S3_AU_19_bxa_Step-9.wav","49","","","","","AU","resources/audio/wordStim/S3_AU_19_bxa_Step-9.wav","S3","19","bxa","9","MI","1","1","true"
"null","","fixation","html-keyboard-response","36","137147","0.0-8.0-0.5","5e9902c3a64f740009842923","condB","","<div class=""vertical-center"" style='width:60%;'><p style='font-weight:bold;'>Does the middle word sound more like the first word (A) or the last word (B)?</p> <br> <div class=""container""> <div id=""a-box""> <p class=""title-text"">A</h3></p> </div> <div id=""x-box""> <p class=""title-text"">X<p> </div> <div id=""b-box""> <p class=""title-text"">B</p></div> <br> <div style='float: left;padding-left:30px;'><p>Press '1' for A</p></div><div style='float: right;padding-right:30px;'><p>Press '0' for B</p> </div> </div></div>","null","","","","","","","","","","","","","",""
"2784","","test","audio-keyboard-response","37","139933","0.0-8.0-1.5","5e9902c3a64f740009842923","condB","","resources/audio/wordStim/S3_AU_19_bxa_Step-3.wav","48","","","","","AU","resources/audio/wordStim/S3_AU_19_bxa_Step-3.wav","S3","19","bxa","3","MI","1","0","false"
"null","","fixation","html-keyboard-response","38","140938","0.0-8.0-0.6","5e9902c3a64f740009842923","condB","","<div class=""vertical-center"" style='width:60%;'><p style='font-weight:bold;'>Does the middle word sound more like the first word (A) or the last word (B)?</p> <br> <div class=""container""> <div id=""a-box""> <p class=""title-text"">A</h3></p> </div> <div id=""x-box""> <p class=""title-text"">X<p> </div> <div id=""b-box""> <p class=""title-text"">B</p></div> <br> <div style='float: left;padding-left:30px;'><p>Press '1' for A</p></div><div style='float: right;padding-right:30px;'><p>Press '0' for B</p> </div> </div></div>","null","","","","","","","","","","","","","",""
"3024","","test","audio-keyboard-response","39","143968","0.0-8.0-1.6","5e9902c3a64f740009842923","condB","","resources/audio/wordStim/S9_AI_24_axb_Step-6.wav","48","","","","","AI","resources/audio/wordStim/S9_AI_24_axb_Step-6.wav","S9","24","axb","6","CN","0","0","true"
"null","","fixation","html-keyboard-response","40","144969","0.0-8.0-0.7","5e9902c3a64f740009842923","condB","","<div class=""vertical-center"" style='width:60%;'><p style='font-weight:bold;'>Does the middle word sound more like the first word (A) or the last word (B)?</p> <br> <div class=""container""> <div id=""a-box""> <p class=""title-text"">A</h3></p> </div> <div id=""x-box""> <p class=""title-text"">X<p> </div> <div id=""b-box""> <p class=""title-text"">B</p></div> <br> <div style='float: left;padding-left:30px;'><p>Press '1' for A</p></div><div style='float: right;padding-right:30px;'><p>Press '0' for B</p> </div> </div></div>","null","","","","","","","","","","","","","",""
"2677","","test","audio-keyboard-response","41","147648","0.0-8.0-1.7","5e9902c3a64f740009842923","condB","","resources/audio/wordStim/S9_AI_30_bxa_Step-3.wav","49","","","","","AI","resources/audio/wordStim/S9_AI_30_bxa_Step-3.wav","S9","30","bxa","3","CN","1","1","true"
"null","","fixation","html-keyboard-response","42","148652","0.0-8.0-0.8","5e9902c3a64f740009842923","condB","","<div class=""vertical-center"" style='width:60%;'><p style='font-weight:bold;'>Does the middle word sound more like the first word (A) or the last word (B)?</p> <br> <div class=""container""> <div id=""a-box""> <p class=""title-text"">A</h3></p> </div> <div id=""x-box""> <p class=""title-text"">X<p> </div> <div id=""b-box""> <p class=""title-text"">B</p></div> <br> <div style='float: left;padding-left:30px;'><p>Press '1' for A</p></div><div style='float: right;padding-right:30px;'><p>Press '0' for B</p> </div> </div></div>","null","","","","","","","","","","","","","",""
"2645","","test","audio-keyboard-response","43","151297","0.0-8.0-1.8","5e9902c3a64f740009842923","condB","","resources/audio/wordStim/S9_AI_25_bxa_Step-3.wav","49","","","","","AI","resources/audio/wordStim/S9_AI_25_bxa_Step-3.wav","S9","25","bxa","3","CN","1","1","true"
"null","","fixation","html-keyboard-response","44","152302","0.0-8.0-0.9","5e9902c3a64f740009842923","condB","","<div class=""vertical-center"" style='width:60%;'><p style='font-weight:bold;'>Does the middle word sound more like the first word (A) or the last word (B)?</p> <br> <div class=""container""> <div id=""a-box""> <p class=""title-text"">A</h3></p> </div> <div id=""x-box""> <p class=""title-text"">X<p> </div> <div id=""b-box""> <p class=""title-text"">B</p></div> <br> <div style='float: left;padding-left:30px;'><p>Press '1' for A</p></div><div style='float: right;padding-right:30px;'><p>Press '0' for B</p> </div> </div></div>","null","","","","","","","","","","","","","",""
"2576","","test","audio-keyboard-response","45","154877","0.0-8.0-1.9","5e9902c3a64f740009842923","condB","","resources/audio/wordStim/S9_AI_29_bxa_Step-7.wav","48","","","","","AI","resources/audio/wordStim/S9_AI_29_bxa_Step-7.wav","S9","29","bxa","7","CN","1","0","false"
"null","","fixation","html-keyboard-response","46","155882","0.0-8.0-0.10","5e9902c3a64f740009842923","condB","","<div class=""vertical-center"" style='width:60%;'><p style='font-weight:bold;'>Does the middle word sound more like the first word (A) or the last word (B)?</p> <br> <div class=""container""> <div id=""a-box""> <p class=""title-text"">A</h3></p> </div> <div id=""x-box""> <p class=""title-text"">X<p> </div> <div id=""b-box""> <p class=""title-text"">B</p></div> <br> <div style='float: left;padding-left:30px;'><p>Press '1' for A</p></div><div style='float: right;padding-right:30px;'><p>Press '0' for B</p> </div> </div></div>","null","","","","","","","","","","","","","",""
"2645","","test","audio-keyboard-response","47","158530","0.0-8.0-1.10","5e9902c3a64f740009842923","condB","","resources/audio/wordStim/S3_AI_30_bxa_Step-7.wav","48","","","","","AI","resources/audio/wordStim/S3_AI_30_bxa_Step-7.wav","S3","30","bxa","7","MI","1","0","false"
"null","","fixation","html-keyboard-response","48","159535","0.0-8.0-0.11","5e9902c3a64f740009842923","condB","","<div class=""vertical-center"" style='width:60%;'><p style='font-weight:bold;'>Does the middle word sound more like the first word (A) or the last word (B)?</p> <br> <div class=""container""> <div id=""a-box""> <p class=""title-text"">A</h3></p> </div> <div id=""x-box""> <p class=""title-text"">X<p> </div> <div id=""b-box""> <p class=""title-text"">B</p></div> <br> <div style='float: left;padding-left:30px;'><p>Press '1' for A</p></div><div style='float: right;padding-right:30px;'><p>Press '0' for B</p> </div> </div></div>","null","","","","","","","","","","","","","",""
"2197","","test","audio-keyboard-response","49","161734","0.0-8.0-1.11","5e9902c3a64f740009842923","condB","","resources/audio/wordStim/S3_AI_25_bxa_Step-7.wav","49","","","","","AI","resources/audio/wordStim/S3_AI_25_bxa_Step-7.wav","S3","25","bxa","7","MI","1","1","true"
"null","","fixation","html-keyboard-response","50","162736","0.0-8.0-0.12","5e9902c3a64f740009842923","condB","","<div class=""vertical-center"" style='width:60%;'><p style='font-weight:bold;'>Does the middle word sound more like the first word (A) or the last word (B)?</p> <br> <div class=""container""> <div id=""a-box""> <p class=""title-text"">A</h3></p> </div> <div id=""x-box""> <p class=""title-text"">X<p> </div> <div id=""b-box""> <p class=""title-text"">B</p></div> <br> <div style='float: left;padding-left:30px;'><p>Press '1' for A</p></div><div style='float: right;padding-right:30px;'><p>Press '0' for B</p> </div> </div></div>","null","","","","","","","","","","","","","",""
"2784","","test","audio-keyboard-response","51","165521","0.0-8.0-1.12","5e9902c3a64f740009842923","condB","","resources/audio/wordStim/S9_AU_13_axb_Step-8.wav","49","","","","","AU","resources/audio/wordStim/S9_AU_13_axb_Step-8.wav","S9","13","axb","8","CN","0","1","false"
"null","","fixation","html-keyboard-response","52","166536","0.0-8.0-0.13","5e9902c3a64f740009842923","condB","","<div class=""vertical-center"" style='width:60%;'><p style='font-weight:bold;'>Does the middle word sound more like the first word (A) or the last word (B)?</p> <br> <div class=""container""> <div id=""a-box""> <p class=""title-text"">A</h3></p> </div> <div id=""x-box""> <p class=""title-text"">X<p> </div> <div id=""b-box""> <p class=""title-text"">B</p></div> <br> <div style='float: left;padding-left:30px;'><p>Press '1' for A</p></div><div style='float: right;padding-right:30px;'><p>Press '0' for B</p> </div> </div></div>","null","","","","","","","","","","","","","",""
"2560","","test","audio-keyboard-response","53","169097","0.0-8.0-1.13","5e9902c3a64f740009842923","condB","","resources/audio/wordStim/S9_AU_17_axb_Step-2.wav","49","","","","","AU","resources/audio/wordStim/S9_AU_17_axb_Step-2.wav","S9","17","axb","2","CN","0","1","false"
"null","","fixation","html-keyboard-response","54","170098","0.0-8.0-0.14","5e9902c3a64f740009842923","condB","","<div class=""vertical-center"" style='width:60%;'><p style='font-weight:bold;'>Does the middle word sound more like the first word (A) or the last word (B)?</p> <br> <div class=""container""> <div id=""a-box""> <p class=""title-text"">A</h3></p> </div> <div id=""x-box""> <p class=""title-text"">X<p> </div> <div id=""b-box""> <p class=""title-text"">B</p></div> <br> <div style='float: left;padding-left:30px;'><p>Press '1' for A</p></div><div style='float: right;padding-right:30px;'><p>Press '0' for B</p> </div> </div></div>","null","","","","","","","","","","","","","",""
"2757","","test","audio-keyboard-response","55","172854","0.0-8.0-1.14","5e9902c3a64f740009842923","condB","","resources/audio/wordStim/S9_AU_14_bxa_Step-5.wav","48","","","","","AU","resources/audio/wordStim/S9_AU_14_bxa_Step-5.wav","S9","14","bxa","5","CN","1","0","false"
"null","","fixation","html-keyboard-response","56","173858","0.0-8.0-0.15","5e9902c3a64f740009842923","condB","","<div class=""vertical-center"" style='width:60%;'><p style='font-weight:bold;'>Does the middle word sound more like the first word (A) or the last word (B)?</p> <br> <div class=""container""> <div id=""a-box""> <p class=""title-text"">A</h3></p> </div> <div id=""x-box""> <p class=""title-text"">X<p> </div> <div id=""b-box""> <p class=""title-text"">B</p></div> <br> <div style='float: left;padding-left:30px;'><p>Press '1' for A</p></div><div style='float: right;padding-right:30px;'><p>Press '0' for B</p> </div> </div></div>","null","","","","","","","","","","","","","",""
"2709","","test","audio-keyboard-response","57","176566","0.0-8.0-1.15","5e9902c3a64f740009842923","condB","","resources/audio/wordStim/S3_AI_29_bxa_Step-9.wav","48","","","","","AI","resources/audio/wordStim/S3_AI_29_bxa_Step-9.wav","S3","29","bxa","9","MI","1","0","false"
"null","","fixation","html-keyboard-response","58","177567","0.0-8.0-0.16","5e9902c3a64f740009842923","condB","","<div class=""vertical-center"" style='width:60%;'><p style='font-weight:bold;'>Does the middle word sound more like the first word (A) or the last word (B)?</p> <br> <div class=""container""> <div id=""a-box""> <p class=""title-text"">A</h3></p> </div> <div id=""x-box""> <p class=""title-text"">X<p> </div> <div id=""b-box""> <p class=""title-text"">B</p></div> <br> <div style='float: left;padding-left:30px;'><p>Press '1' for A</p></div><div style='float: right;padding-right:30px;'><p>Press '0' for B</p> </div> </div></div>","null","","","","","","","","","","","","","",""
"2917","","test","audio-keyboard-response","59","180487","0.0-8.0-1.16","5e9902c3a64f740009842923","condB","","resources/audio/wordStim/S9_AU_18_axb_Step-2.wav","49","","","","","AU","resources/audio/wordStim/S9_AU_18_axb_Step-2.wav","S9","18","axb","2","CN","0","1","false"
"null","","fixation","html-keyboard-response","60","181492","0.0-8.0-0.17","5e9902c3a64f740009842923","condB","","<div class=""vertical-center"" style='width:60%;'><p style='font-weight:bold;'>Does the middle word sound more like the first word (A) or the last word (B)?</p> <br> <div class=""container""> <div id=""a-box""> <p class=""title-text"">A</h3></p> </div> <div id=""x-box""> <p class=""title-text"">X<p> </div> <div id=""b-box""> <p class=""title-text"">B</p></div> <br> <div style='float: left;padding-left:30px;'><p>Press '1' for A</p></div><div style='float: right;padding-right:30px;'><p>Press '0' for B</p> </div> </div></div>","null","","","","","","","","","","","","","",""
"2752","","test","audio-keyboard-response","61","184246","0.0-8.0-1.17","5e9902c3a64f740009842923","condB","","resources/audio/wordStim/S9_AU_11_axb_Step-8.wav","48","","","","","AU","resources/audio/wordStim/S9_AU_11_axb_Step-8.wav","S9","11","axb","8","CN","0","0","true"
"null","","fixation","html-keyboard-response","62","185251","0.0-8.0-0.18","5e9902c3a64f740009842923","condB","","<div class=""vertical-center"" style='width:60%;'><p style='font-weight:bold;'>Does the middle word sound more like the first word (A) or the last word (B)?</p> <br> <div class=""container""> <div id=""a-box""> <p class=""title-text"">A</h3></p> </div> <div id=""x-box""> <p class=""title-text"">X<p> </div> <div id=""b-box""> <p class=""title-text"">B</p></div> <br> <div style='float: left;padding-left:30px;'><p>Press '1' for A</p></div><div style='float: right;padding-right:30px;'><p>Press '0' for B</p> </div> </div></div>","null","","","","","","","","","","","","","",""
"2789","","test","audio-keyboard-response","63","188038","0.0-8.0-1.18","5e9902c3a64f740009842923","condB","","resources/audio/wordStim/S9_AI_30_axb_Step-8.wav","49","","","","","AI","resources/audio/wordStim/S9_AI_30_axb_Step-8.wav","S9","30","axb","8","CN","0","1","false"
"null","","fixation","html-keyboard-response","64","189043","0.0-8.0-0.19","5e9902c3a64f740009842923","condB","","<div class=""vertical-center"" style='width:60%;'><p style='font-weight:bold;'>Does the middle word sound more like the first word (A) or the last word (B)?</p> <br> <div class=""container""> <div id=""a-box""> <p class=""title-text"">A</h3></p> </div> <div id=""x-box""> <p class=""title-text"">X<p> </div> <div id=""b-box""> <p class=""title-text"">B</p></div> <br> <div style='float: left;padding-left:30px;'><p>Press '1' for A</p></div><div style='float: right;padding-right:30px;'><p>Press '0' for B</p> </div> </div></div>","null","","","","","","","","","","","","","",""
"3141","","test","audio-keyboard-response","65","192185","0.0-8.0-1.19","5e9902c3a64f740009842923","condB","","resources/audio/wordStim/S3_AI_29_axb_Step-8.wav","48","","","","","AI","resources/audio/wordStim/S3_AI_29_axb_Step-8.wav","S3","29","axb","8","MI","0","0","true"
"null","","fixation","html-keyboard-response","66","193189","0.0-8.0-0.20","5e9902c3a64f740009842923","condB","","<div class=""vertical-center"" style='width:60%;'><p style='font-weight:bold;'>Does the middle word sound more like the first word (A) or the last word (B)?</p> <br> <div class=""container""> <div id=""a-box""> <p class=""title-text"">A</h3></p> </div> <div id=""x-box""> <p class=""title-text"">X<p> </div> <div id=""b-box""> <p class=""title-text"">B</p></div> <br> <div style='float: left;padding-left:30px;'><p>Press '1' for A</p></div><div style='float: right;padding-right:30px;'><p>Press '0' for B</p> </div> </div></div>","null","","","","","","","","","","","","","",""
"2683","","test","audio-keyboard-response","67","195876","0.0-8.0-1.20","5e9902c3a64f740009842923","condB","","resources/audio/wordStim/S9_AI_29_bxa_Step-9.wav","49","","","","","AI","resources/audio/wordStim/S9_AI_29_bxa_Step-9.wav","S9","29","bxa","9","CN","1","1","true"
"null","","fixation","html-keyboard-response","68","196881","0.0-8.0-0.21","5e9902c3a64f740009842923","condB","","<div class=""vertical-center"" style='width:60%;'><p style='font-weight:bold;'>Does the middle word sound more like the first word (A) or the last word (B)?</p> <br> <div class=""container""> <div id=""a-box""> <p class=""title-text"">A</h3></p> </div> <div id=""x-box""> <p class=""title-text"">X<p> </div> <div id=""b-box""> <p class=""title-text"">B</p></div> <br> <div style='float: left;padding-left:30px;'><p>Press '1' for A</p></div><div style='float: right;padding-right:30px;'><p>Press '0' for B</p> </div> </div></div>","null","","","","","","","","","","","","","",""
"2261","","test","audio-keyboard-response","69","199144","0.0-8.0-1.21","5e9902c3a64f740009842923","condB","","resources/audio/wordStim/S3_AI_23_axb_Step-8.wav","49","","","","","AI","resources/audio/wordStim/S3_AI_23_axb_Step-8.wav","S3","23","axb","8","MI","0","1","false"
"null","","fixation","html-keyboard-response","70","200149","0.0-8.0-0.22","5e9902c3a64f740009842923","condB","","<div class=""vertical-center"" style='width:60%;'><p style='font-weight:bold;'>Does the middle word sound more like the first word (A) or the last word (B)?</p> <br> <div class=""container""> <div id=""a-box""> <p class=""title-text"">A</h3></p> </div> <div id=""x-box""> <p class=""title-text"">X<p> </div> <div id=""b-box""> <p class=""title-text"">B</p></div> <br> <div style='float: left;padding-left:30px;'><p>Press '1' for A</p></div><div style='float: right;padding-right:30px;'><p>Press '0' for B</p> </div> </div></div>","null","","","","","","","","","","","","","",""
"2144","","test","audio-keyboard-response","71","202296","0.0-8.0-1.22","5e9902c3a64f740009842923","condB","","resources/audio/wordStim/S3_AI_25_axb_Step-6.wav","49","","","","","AI","resources/audio/wordStim/S3_AI_25_axb_Step-6.wav","S3","25","axb","6","MI","0","1","false"
"null","","fixation","html-keyboard-response","72","203301","0.0-8.0-0.23","5e9902c3a64f740009842923","condB","","<div class=""vertical-center"" style='width:60%;'><p style='font-weight:bold;'>Does the middle word sound more like the first word (A) or the last word (B)?</p> <br> <div class=""container""> <div id=""a-box""> <p class=""title-text"">A</h3></p> </div> <div id=""x-box""> <p class=""title-text"">X<p> </div> <div id=""b-box""> <p class=""title-text"">B</p></div> <br> <div style='float: left;padding-left:30px;'><p>Press '1' for A</p></div><div style='float: right;padding-right:30px;'><p>Press '0' for B</p> </div> </div></div>","null","","","","","","","","","","","","","",""
"2512","","test","audio-keyboard-response","73","205813","0.0-8.0-1.23","5e9902c3a64f740009842923","condB","","resources/audio/wordStim/S3_AU_11_bxa_Step-3.wav","49","","","","","AU","resources/audio/wordStim/S3_AU_11_bxa_Step-3.wav","S3","11","bxa","3","MI","1","1","true"
"null","","fixation","html-keyboard-response","74","206818","0.0-8.0-0.24","5e9902c3a64f740009842923","condB","","<div class=""vertical-center"" style='width:60%;'><p style='font-weight:bold;'>Does the middle word sound more like the first word (A) or the last word (B)?</p> <br> <div class=""container""> <div id=""a-box""> <p class=""title-text"">A</h3></p> </div> <div id=""x-box""> <p class=""title-text"">X<p> </div> <div id=""b-box""> <p class=""title-text"">B</p></div> <br> <div style='float: left;padding-left:30px;'><p>Press '1' for A</p></div><div style='float: right;padding-right:30px;'><p>Press '0' for B</p> </div> </div></div>","null","","","","","","","","","","","","","",""
"2757","","test","audio-keyboard-response","75","209574","0.0-8.0-1.24","5e9902c3a64f740009842923","condB","","resources/audio/wordStim/S9_AI_29_bxa_Step-10.wav","49","","","","","AI","resources/audio/wordStim/S9_AI_29_bxa_Step-10.wav","S9","29","bxa","10","CN","1","1","true"
"null","","fixation","html-keyboard-response","76","210580","0.0-8.0-0.25","5e9902c3a64f740009842923","condB","","<div class=""vertical-center"" style='width:60%;'><p style='font-weight:bold;'>Does the middle word sound more like the first word (A) or the last word (B)?</p> <br> <div class=""container""> <div id=""a-box""> <p class=""title-text"">A</h3></p> </div> <div id=""x-box""> <p class=""title-text"">X<p> </div> <div id=""b-box""> <p class=""title-text"">B</p></div> <br> <div style='float: left;padding-left:30px;'><p>Press '1' for A</p></div><div style='float: right;padding-right:30px;'><p>Press '0' for B</p> </div> </div></div>","null","","","","","","","","","","","","","",""
"3275","","test","audio-keyboard-response","77","213857","0.0-8.0-1.25","5e9902c3a64f740009842923","condB","","resources/audio/wordStim/S3_AU_17_axb_Step-4.wav","49","","","","","AU","resources/audio/wordStim/S3_AU_17_axb_Step-4.wav","S3","17","axb","4","MI","0","1","false"
"null","","fixation","html-keyboard-response","78","214861","0.0-8.0-0.26","5e9902c3a64f740009842923","condB","","<div class=""vertical-center"" style='width:60%;'><p style='font-weight:bold;'>Does the middle word sound more like the first word (A) or the last word (B)?</p> <br> <div class=""container""> <div id=""a-box""> <p class=""title-text"">A</h3></p> </div> <div id=""x-box""> <p class=""title-text"">X<p> </div> <div id=""b-box""> <p class=""title-text"">B</p></div> <br> <div style='float: left;padding-left:30px;'><p>Press '1' for A</p></div><div style='float: right;padding-right:30px;'><p>Press '0' for B</p> </div> </div></div>","null","","","","","","","","","","","","","",""
"2789","","test","audio-keyboard-response","79","217650","0.0-8.0-1.26","5e9902c3a64f740009842923","condB","","resources/audio/wordStim/S9_AI_29_axb_Step-6.wav","49","","","","","AI","resources/audio/wordStim/S9_AI_29_axb_Step-6.wav","S9","29","axb","6","CN","0","1","false"
"1656.7999999970198","","break","html-keyboard-response","80","219811","0.0-8.0-2.26-0.26","5e9902c3a64f740009842923","condB","","<div class=""vertical-center""><p>Feel free to take a break!</p><i>When you're ready to continue, press SPACE to begin the next trial.</i></p></div>","32","","","","","","","","","","","","","",""
"null","","fixation","html-keyboard-response","81","220311","0.0-8.0-0.27","5e9902c3a64f740009842923","condB","","<div class=""vertical-center"" style='width:60%;'><p style='font-weight:bold;'>Does the middle word sound more like the first word (A) or the last word (B)?</p> <br> <div class=""container""> <div id=""a-box""> <p class=""title-text"">A</h3></p> </div> <div id=""x-box""> <p class=""title-text"">X<p> </div> <div id=""b-box""> <p class=""title-text"">B</p></div> <br> <div style='float: left;padding-left:30px;'><p>Press '1' for A</p></div><div style='float: right;padding-right:30px;'><p>Press '0' for B</p> </div> </div></div>","null","","","","","","","","","","","","","",""
"2539","","test","audio-keyboard-response","82","222851","0.0-8.0-1.27","5e9902c3a64f740009842923","condB","","resources/audio/wordStim/S9_AU_14_axb_Step-4.wav","49","","","","","AU","resources/audio/wordStim/S9_AU_14_axb_Step-4.wav","S9","14","axb","4","CN","0","1","false"
"null","","fixation","html-keyboard-response","83","223854","0.0-8.0-0.28","5e9902c3a64f740009842923","condB","","<div class=""vertical-center"" style='width:60%;'><p style='font-weight:bold;'>Does the middle word sound more like the first word (A) or the last word (B)?</p> <br> <div class=""container""> <div id=""a-box""> <p class=""title-text"">A</h3></p> </div> <div id=""x-box""> <p class=""title-text"">X<p> </div> <div id=""b-box""> <p class=""title-text"">B</p></div> <br> <div style='float: left;padding-left:30px;'><p>Press '1' for A</p></div><div style='float: right;padding-right:30px;'><p>Press '0' for B</p> </div> </div></div>","null","","","","","","","","","","","","","",""
"2517","","test","audio-keyboard-response","84","226374","0.0-8.0-1.28","5e9902c3a64f740009842923","condB","","resources/audio/wordStim/S9_AI_27_axb_Step-6.wav","48","","","","","AI","resources/audio/wordStim/S9_AI_27_axb_Step-6.wav","S9","27","axb","6","CN","0","0","true"
"null","","fixation","html-keyboard-response","85","227380","0.0-8.0-0.29","5e9902c3a64f740009842923","condB","","<div class=""vertical-center"" style='width:60%;'><p style='font-weight:bold;'>Does the middle word sound more like the first word (A) or the last word (B)?</p> <br> <div class=""container""> <div id=""a-box""> <p class=""title-text"">A</h3></p> </div> <div id=""x-box""> <p class=""title-text"">X<p> </div> <div id=""b-box""> <p class=""title-text"">B</p></div> <br> <div style='float: left;padding-left:30px;'><p>Press '1' for A</p></div><div style='float: right;padding-right:30px;'><p>Press '0' for B</p> </div> </div></div>","null","","","","","","","","","","","","","",""
"2427","","test","audio-keyboard-response","86","229811","0.0-8.0-1.29","5e9902c3a64f740009842923","condB","","resources/audio/wordStim/S3_AI_30_axb_Step-2.wav","49","","","","","AI","resources/audio/wordStim/S3_AI_30_axb_Step-2.wav","S3","30","axb","2","MI","0","1","false"
"null","","fixation","html-keyboard-response","87","230815","0.0-8.0-0.30","5e9902c3a64f740009842923","condB","","<div class=""vertical-center"" style='width:60%;'><p style='font-weight:bold;'>Does the middle word sound more like the first word (A) or the last word (B)?</p> <br> <div class=""container""> <div id=""a-box""> <p class=""title-text"">A</h3></p> </div> <div id=""x-box""> <p class=""title-text"">X<p> </div> <div id=""b-box""> <p class=""title-text"">B</p></div> <br> <div style='float: left;padding-left:30px;'><p>Press '1' for A</p></div><div style='float: right;padding-right:30px;'><p>Press '0' for B</p> </div> </div></div>","null","","","","","","","","","","","","","",""
"2325","","test","audio-keyboard-response","88","233144","0.0-8.0-1.30","5e9902c3a64f740009842923","condB","","resources/audio/wordStim/S3_AU_15_axb_Step-8.wav","49","","","","","AU","resources/audio/wordStim/S3_AU_15_axb_Step-8.wav","S3","15","axb","8","MI","0","1","false"
"null","","fixation","html-keyboard-response","89","234149","0.0-8.0-0.31","5e9902c3a64f740009842923","condB","","<div class=""vertical-center"" style='width:60%;'><p style='font-weight:bold;'>Does the middle word sound more like the first word (A) or the last word (B)?</p> <br> <div class=""container""> <div id=""a-box""> <p class=""title-text"">A</h3></p> </div> <div id=""x-box""> <p class=""title-text"">X<p> </div> <div id=""b-box""> <p class=""title-text"">B</p></div> <br> <div style='float: left;padding-left:30px;'><p>Press '1' for A</p></div><div style='float: right;padding-right:30px;'><p>Press '0' for B</p> </div> </div></div>","null","","","","","","","","","","","","","",""
"3211","","test","audio-keyboard-response","90","237361","0.0-8.0-1.31","5e9902c3a64f740009842923","condB","","resources/audio/wordStim/S3_AU_16_axb_Step-6.wav","48","","","","","AU","resources/audio/wordStim/S3_AU_16_axb_Step-6.wav","S3","16","axb","6","MI","0","0","true"
"null","","fixation","html-keyboard-response","91","238362","0.0-8.0-0.32","5e9902c3a64f740009842923","condB","","<div class=""vertical-center"" style='width:60%;'><p style='font-weight:bold;'>Does the middle word sound more like the first word (A) or the last word (B)?</p> <br> <div class=""container""> <div id=""a-box""> <p class=""title-text"">A</h3></p> </div> <div id=""x-box""> <p class=""title-text"">X<p> </div> <div id=""b-box""> <p class=""title-text"">B</p></div> <br> <div style='float: left;padding-left:30px;'><p>Press '1' for A</p></div><div style='float: right;padding-right:30px;'><p>Press '0' for B</p> </div> </div></div>","null","","","","","","","","","","","","","",""
"2693","","test","audio-keyboard-response","92","241054","0.0-8.0-1.32","5e9902c3a64f740009842923","condB","","resources/audio/wordStim/S9_AU_19_axb_Step-4.wav","49","","","","","AU","resources/audio/wordStim/S9_AU_19_axb_Step-4.wav","S9","19","axb","4","CN","0","1","false"
"null","","fixation","html-keyboard-response","93","242058","0.0-8.0-0.33","5e9902c3a64f740009842923","condB","","<div class=""vertical-center"" style='width:60%;'><p style='font-weight:bold;'>Does the middle word sound more like the first word (A) or the last word (B)?</p> <br> <div class=""container""> <div id=""a-box""> <p class=""title-text"">A</h3></p> </div> <div id=""x-box""> <p class=""title-text"">X<p> </div> <div id=""b-box""> <p class=""title-text"">B</p></div> <br> <div style='float: left;padding-left:30px;'><p>Press '1' for A</p></div><div style='float: right;padding-right:30px;'><p>Press '0' for B</p> </div> </div></div>","null","","","","","","","","","","","","","",""
"2608","","test","audio-keyboard-response","94","244670","0.0-8.0-1.33","5e9902c3a64f740009842923","condB","","resources/audio/wordStim/S9_AU_17_bxa_Step-5.wav","49","","","","","AU","resources/audio/wordStim/S9_AU_17_bxa_Step-5.wav","S9","17","bxa","5","CN","1","1","true"
"null","","fixation","html-keyboard-response","95","245673","0.0-8.0-0.34","5e9902c3a64f740009842923","condB","","<div class=""vertical-center"" style='width:60%;'><p style='font-weight:bold;'>Does the middle word sound more like the first word (A) or the last word (B)?</p> <br> <div class=""container""> <div id=""a-box""> <p class=""title-text"">A</h3></p> </div> <div id=""x-box""> <p class=""title-text"">X<p> </div> <div id=""b-box""> <p class=""title-text"">B</p></div> <br> <div style='float: left;padding-left:30px;'><p>Press '1' for A</p></div><div style='float: right;padding-right:30px;'><p>Press '0' for B</p> </div> </div></div>","null","","","","","","","","","","","","","",""
"2693","","test","audio-keyboard-response","96","248371","0.0-8.0-1.34","5e9902c3a64f740009842923","condB","","resources/audio/wordStim/S9_AU_14_bxa_Step-7.wav","48","","","","","AU","resources/audio/wordStim/S9_AU_14_bxa_Step-7.wav","S9","14","bxa","7","CN","1","0","false"
"null","","fixation","html-keyboard-response","97","249374","0.0-8.0-0.35","5e9902c3a64f740009842923","condB","","<div class=""vertical-center"" style='width:60%;'><p style='font-weight:bold;'>Does the middle word sound more like the first word (A) or the last word (B)?</p> <br> <div class=""container""> <div id=""a-box""> <p class=""title-text"">A</h3></p> </div> <div id=""x-box""> <p class=""title-text"">X<p> </div> <div id=""b-box""> <p class=""title-text"">B</p></div> <br> <div style='float: left;padding-left:30px;'><p>Press '1' for A</p></div><div style='float: right;padding-right:30px;'><p>Press '0' for B</p> </div> </div></div>","null","","","","","","","","","","","","","",""
"2656","","test","audio-keyboard-response","98","252035","0.0-8.0-1.35","5e9902c3a64f740009842923","condB","","resources/audio/wordStim/S3_AI_22_bxa_Step-9.wav","49","","","","","AI","resources/audio/wordStim/S3_AI_22_bxa_Step-9.wav","S3","22","bxa","9","MI","1","1","true"
"null","","fixation","html-keyboard-response","99","253038","0.0-8.0-0.36","5e9902c3a64f740009842923","condB","","<div class=""vertical-center"" style='width:60%;'><p style='font-weight:bold;'>Does the middle word sound more like the first word (A) or the last word (B)?</p> <br> <div class=""container""> <div id=""a-box""> <p class=""title-text"">A</h3></p> </div> <div id=""x-box""> <p class=""title-text"">X<p> </div> <div id=""b-box""> <p class=""title-text"">B</p></div> <br> <div style='float: left;padding-left:30px;'><p>Press '1' for A</p></div><div style='float: right;padding-right:30px;'><p>Press '0' for B</p> </div> </div></div>","null","","","","","","","","","","","","","",""
"2587","","test","audio-keyboard-response","100","255628","0.0-8.0-1.36","5e9902c3a64f740009842923","condB","","resources/audio/wordStim/S9_AU_13_axb_Step-6.wav","49","","","","","AU","resources/audio/wordStim/S9_AU_13_axb_Step-6.wav","S9","13","axb","6","CN","0","1","false"
"null","","fixation","html-keyboard-response","101","256633","0.0-8.0-0.37","5e9902c3a64f740009842923","condB","","<div class=""vertical-center"" style='width:60%;'><p style='font-weight:bold;'>Does the middle word sound more like the first word (A) or the last word (B)?</p> <br> <div class=""container""> <div id=""a-box""> <p class=""title-text"">A</h3></p> </div> <div id=""x-box""> <p class=""title-text"">X<p> </div> <div id=""b-box""> <p class=""title-text"">B</p></div> <br> <div style='float: left;padding-left:30px;'><p>Press '1' for A</p></div><div style='float: right;padding-right:30px;'><p>Press '0' for B</p> </div> </div></div>","null","","","","","","","","","","","","","",""
"2453","","test","audio-keyboard-response","102","259086","0.0-8.0-1.37","5e9902c3a64f740009842923","condB","","resources/audio/wordStim/S3_AI_29_axb_Step-2.wav","49","","","","","AI","resources/audio/wordStim/S3_AI_29_axb_Step-2.wav","S3","29","axb","2","MI","0","1","false"
"null","","fixation","html-keyboard-response","103","260091","0.0-8.0-0.38","5e9902c3a64f740009842923","condB","","<div class=""vertical-center"" style='width:60%;'><p style='font-weight:bold;'>Does the middle word sound more like the first word (A) or the last word (B)?</p> <br> <div class=""container""> <div id=""a-box""> <p class=""title-text"">A</h3></p> </div> <div id=""x-box""> <p class=""title-text"">X<p> </div> <div id=""b-box""> <p class=""title-text"">B</p></div> <br> <div style='float: left;padding-left:30px;'><p>Press '1' for A</p></div><div style='float: right;padding-right:30px;'><p>Press '0' for B</p> </div> </div></div>","null","","","","","","","","","","","","","",""
"2528","","test","audio-keyboard-response","104","262621","0.0-8.0-1.38","5e9902c3a64f740009842923","condB","","resources/audio/wordStim/S9_AU_13_bxa_Step-9.wav","49","","","","","AU","resources/audio/wordStim/S9_AU_13_bxa_Step-9.wav","S9","13","bxa","9","CN","1","1","true"
"null","","fixation","html-keyboard-response","105","263624","0.0-8.0-0.39","5e9902c3a64f740009842923","condB","","<div class=""vertical-center"" style='width:60%;'><p style='font-weight:bold;'>Does the middle word sound more like the first word (A) or the last word (B)?</p> <br> <div class=""container""> <div id=""a-box""> <p class=""title-text"">A</h3></p> </div> <div id=""x-box""> <p class=""title-text"">X<p> </div> <div id=""b-box""> <p class=""title-text"">B</p></div> <br> <div style='float: left;padding-left:30px;'><p>Press '1' for A</p></div><div style='float: right;padding-right:30px;'><p>Press '0' for B</p> </div> </div></div>","null","","","","","","","","","","","","","",""
"3285","","test","audio-keyboard-response","106","266910","0.0-8.0-1.39","5e9902c3a64f740009842923","condB","","resources/audio/wordStim/S3_AU_17_bxa_Step-3.wav","49","","","","","AU","resources/audio/wordStim/S3_AU_17_bxa_Step-3.wav","S3","17","bxa","3","MI","1","1","true"
"null","","fixation","html-keyboard-response","107","267912","0.0-8.0-0.40","5e9902c3a64f740009842923","condB","","<div class=""vertical-center"" style='width:60%;'><p style='font-weight:bold;'>Does the middle word sound more like the first word (A) or the last word (B)?</p> <br> <div class=""container""> <div id=""a-box""> <p class=""title-text"">A</h3></p> </div> <div id=""x-box""> <p class=""title-text"">X<p> </div> <div id=""b-box""> <p class=""title-text"">B</p></div> <br> <div style='float: left;padding-left:30px;'><p>Press '1' for A</p></div><div style='float: right;padding-right:30px;'><p>Press '0' for B</p> </div> </div></div>","null","","","","","","","","","","","","","",""
"2795","","test","audio-keyboard-response","108","270709","0.0-8.0-1.40","5e9902c3a64f740009842923","condB","","resources/audio/wordStim/S3_AI_21_bxa_Step-9.wav","48","","","","","AI","resources/audio/wordStim/S3_AI_21_bxa_Step-9.wav","S3","21","bxa","9","MI","1","0","false"
"null","","fixation","html-keyboard-response","109","271714","0.0-8.0-0.41","5e9902c3a64f740009842923","condB","","<div class=""vertical-center"" style='width:60%;'><p style='font-weight:bold;'>Does the middle word sound more like the first word (A) or the last word (B)?</p> <br> <div class=""container""> <div id=""a-box""> <p class=""title-text"">A</h3></p> </div> <div id=""x-box""> <p class=""title-text"">X<p> </div> <div id=""b-box""> <p class=""title-text"">B</p></div> <br> <div style='float: left;padding-left:30px;'><p>Press '1' for A</p></div><div style='float: right;padding-right:30px;'><p>Press '0' for B</p> </div> </div></div>","null","","","","","","","","","","","","","",""
"2437","","test","audio-keyboard-response","110","274156","0.0-8.0-1.41","5e9902c3a64f740009842923","condB","","resources/audio/wordStim/S9_AU_20_bxa_Step-10.wav","49","","","","","AU","resources/audio/wordStim/S9_AU_20_bxa_Step-10.wav","S9","20","bxa","10","CN","1","1","true"
"null","","fixation","html-keyboard-response","111","275162","0.0-8.0-0.42","5e9902c3a64f740009842923","condB","","<div class=""vertical-center"" style='width:60%;'><p style='font-weight:bold;'>Does the middle word sound more like the first word (A) or the last word (B)?</p> <br> <div class=""container""> <div id=""a-box""> <p class=""title-text"">A</h3></p> </div> <div id=""x-box""> <p class=""title-text"">X<p> </div> <div id=""b-box""> <p class=""title-text"">B</p></div> <br> <div style='float: left;padding-left:30px;'><p>Press '1' for A</p></div><div style='float: right;padding-right:30px;'><p>Press '0' for B</p> </div> </div></div>","null","","","","","","","","","","","","","",""
"2571","","test","audio-keyboard-response","112","277733","0.0-8.0-1.42","5e9902c3a64f740009842923","condB","","resources/audio/wordStim/S3_AU_11_bxa_Step-10.wav","49","","","","","AU","resources/audio/wordStim/S3_AU_11_bxa_Step-10.wav","S3","11","bxa","10","MI","1","1","true"
"null","","fixation","html-keyboard-response","113","278738","0.0-8.0-0.43","5e9902c3a64f740009842923","condB","","<div class=""vertical-center"" style='width:60%;'><p style='font-weight:bold;'>Does the middle word sound more like the first word (A) or the last word (B)?</p> <br> <div class=""container""> <div id=""a-box""> <p class=""title-text"">A</h3></p> </div> <div id=""x-box""> <p class=""title-text"">X<p> </div> <div id=""b-box""> <p class=""title-text"">B</p></div> <br> <div style='float: left;padding-left:30px;'><p>Press '1' for A</p></div><div style='float: right;padding-right:30px;'><p>Press '0' for B</p> </div> </div></div>","null","","","","","","","","","","","","","",""
"2464","","test","audio-keyboard-response","114","281203","0.0-8.0-1.43","5e9902c3a64f740009842923","condB","","resources/audio/wordStim/S9_AI_27_bxa_Step-3.wav","49","","","","","AI","resources/audio/wordStim/S9_AI_27_bxa_Step-3.wav","S9","27","bxa","3","CN","1","1","true"
"null","","fixation","html-keyboard-response","115","282209","0.0-8.0-0.44","5e9902c3a64f740009842923","condB","","<div class=""vertical-center"" style='width:60%;'><p style='font-weight:bold;'>Does the middle word sound more like the first word (A) or the last word (B)?</p> <br> <div class=""container""> <div id=""a-box""> <p class=""title-text"">A</h3></p> </div> <div id=""x-box""> <p class=""title-text"">X<p> </div> <div id=""b-box""> <p class=""title-text"">B</p></div> <br> <div style='float: left;padding-left:30px;'><p>Press '1' for A</p></div><div style='float: right;padding-right:30px;'><p>Press '0' for B</p> </div> </div></div>","null","","","","","","","","","","","","","",""
"3195","","test","audio-keyboard-response","116","285403","0.0-8.0-1.44","5e9902c3a64f740009842923","condB","","resources/audio/wordStim/S3_AU_16_bxa_Step-7.wav","48","","","","","AU","resources/audio/wordStim/S3_AU_16_bxa_Step-7.wav","S3","16","bxa","7","MI","1","0","false"
"null","","fixation","html-keyboard-response","117","286408","0.0-8.0-0.45","5e9902c3a64f740009842923","condB","","<div class=""vertical-center"" style='width:60%;'><p style='font-weight:bold;'>Does the middle word sound more like the first word (A) or the last word (B)?</p> <br> <div class=""container""> <div id=""a-box""> <p class=""title-text"">A</h3></p> </div> <div id=""x-box""> <p class=""title-text"">X<p> </div> <div id=""b-box""> <p class=""title-text"">B</p></div> <br> <div style='float: left;padding-left:30px;'><p>Press '1' for A</p></div><div style='float: right;padding-right:30px;'><p>Press '0' for B</p> </div> </div></div>","null","","","","","","","","","","","","","",""
"2469","","test","audio-keyboard-response","118","288879","0.0-8.0-1.45","5e9902c3a64f740009842923","condB","","resources/audio/wordStim/S9_AI_27_bxa_Step-10.wav","49","","","","","AI","resources/audio/wordStim/S9_AI_27_bxa_Step-10.wav","S9","27","bxa","10","CN","1","1","true"
"null","","fixation","html-keyboard-response","119","289882","0.0-8.0-0.46","5e9902c3a64f740009842923","condB","","<div class=""vertical-center"" style='width:60%;'><p style='font-weight:bold;'>Does the middle word sound more like the first word (A) or the last word (B)?</p> <br> <div class=""container""> <div id=""a-box""> <p class=""title-text"">A</h3></p> </div> <div id=""x-box""> <p class=""title-text"">X<p> </div> <div id=""b-box""> <p class=""title-text"">B</p></div> <br> <div style='float: left;padding-left:30px;'><p>Press '1' for A</p></div><div style='float: right;padding-right:30px;'><p>Press '0' for B</p> </div> </div></div>","null","","","","","","","","","","","","","",""
"2448","","test","audio-keyboard-response","120","292331","0.0-8.0-1.46","5e9902c3a64f740009842923","condB","","resources/audio/wordStim/S9_AU_19_axb_Step-8.wav","48","","","","","AU","resources/audio/wordStim/S9_AU_19_axb_Step-8.wav","S9","19","axb","8","CN","0","0","true"
"null","","fixation","html-keyboard-response","121","293336","0.0-8.0-0.47","5e9902c3a64f740009842923","condB","","<div class=""vertical-center"" style='width:60%;'><p style='font-weight:bold;'>Does the middle word sound more like the first word (A) or the last word (B)?</p> <br> <div class=""container""> <div id=""a-box""> <p class=""title-text"">A</h3></p> </div> <div id=""x-box""> <p class=""title-text"">X<p> </div> <div id=""b-box""> <p class=""title-text"">B</p></div> <br> <div style='float: left;padding-left:30px;'><p>Press '1' for A</p></div><div style='float: right;padding-right:30px;'><p>Press '0' for B</p> </div> </div></div>","null","","","","","","","","","","","","","",""
"2315","","test","audio-keyboard-response","122","295654","0.0-8.0-1.47","5e9902c3a64f740009842923","condB","","resources/audio/wordStim/S3_AU_19_axb_Step-2.wav","49","","","","","AU","resources/audio/wordStim/S3_AU_19_axb_Step-2.wav","S3","19","axb","2","MI","0","1","false"
"null","","fixation","html-keyboard-response","123","296658","0.0-8.0-0.48","5e9902c3a64f740009842923","condB","","<div class=""vertical-center"" style='width:60%;'><p style='font-weight:bold;'>Does the middle word sound more like the first word (A) or the last word (B)?</p> <br> <div class=""container""> <div id=""a-box""> <p class=""title-text"">A</h3></p> </div> <div id=""x-box""> <p class=""title-text"">X<p> </div> <div id=""b-box""> <p class=""title-text"">B</p></div> <br> <div style='float: left;padding-left:30px;'><p>Press '1' for A</p></div><div style='float: right;padding-right:30px;'><p>Press '0' for B</p> </div> </div></div>","null","","","","","","","","","","","","","",""
"2581","","test","audio-keyboard-response","124","299244","0.0-8.0-1.48","5e9902c3a64f740009842923","condB","","resources/audio/wordStim/S9_AU_19_bxa_Step-10.wav","49","","","","","AU","resources/audio/wordStim/S9_AU_19_bxa_Step-10.wav","S9","19","bxa","10","CN","1","1","true"
"null","","fixation","html-keyboard-response","125","300248","0.0-8.0-0.49","5e9902c3a64f740009842923","condB","","<div class=""vertical-center"" style='width:60%;'><p style='font-weight:bold;'>Does the middle word sound more like the first word (A) or the last word (B)?</p> <br> <div class=""container""> <div id=""a-box""> <p class=""title-text"">A</h3></p> </div> <div id=""x-box""> <p class=""title-text"">X<p> </div> <div id=""b-box""> <p class=""title-text"">B</p></div> <br> <div style='float: left;padding-left:30px;'><p>Press '1' for A</p></div><div style='float: right;padding-right:30px;'><p>Press '0' for B</p> </div> </div></div>","null","","","","","","","","","","","","","",""
"2544","","test","audio-keyboard-response","126","302793","0.0-8.0-1.49","5e9902c3a64f740009842923","condB","","resources/audio/wordStim/S3_AI_30_axb_Step-8.wav","49","","","","","AI","resources/audio/wordStim/S3_AI_30_axb_Step-8.wav","S3","30","axb","8","MI","0","1","false"
"null","","fixation","html-keyboard-response","127","303798","0.0-8.0-0.50","5e9902c3a64f740009842923","condB","","<div class=""vertical-center"" style='width:60%;'><p style='font-weight:bold;'>Does the middle word sound more like the first word (A) or the last word (B)?</p> <br> <div class=""container""> <div id=""a-box""> <p class=""title-text"">A</h3></p> </div> <div id=""x-box""> <p class=""title-text"">X<p> </div> <div id=""b-box""> <p class=""title-text"">B</p></div> <br> <div style='float: left;padding-left:30px;'><p>Press '1' for A</p></div><div style='float: right;padding-right:30px;'><p>Press '0' for B</p> </div> </div></div>","null","","","","","","","","","","","","","",""
"3387","","test","audio-keyboard-response","128","307182","0.0-8.0-1.50","5e9902c3a64f740009842923","condB","","resources/audio/wordStim/S9_AI_22_bxa_Step-10.wav","49","","","","","AI","resources/audio/wordStim/S9_AI_22_bxa_Step-10.wav","S9","22","bxa","10","CN","1","1","true"
"null","","fixation","html-keyboard-response","129","308187","0.0-8.0-0.51","5e9902c3a64f740009842923","condB","","<div class=""vertical-center"" style='width:60%;'><p style='font-weight:bold;'>Does the middle word sound more like the first word (A) or the last word (B)?</p> <br> <div class=""container""> <div id=""a-box""> <p class=""title-text"">A</h3></p> </div> <div id=""x-box""> <p class=""title-text"">X<p> </div> <div id=""b-box""> <p class=""title-text"">B</p></div> <br> <div style='float: left;padding-left:30px;'><p>Press '1' for A</p></div><div style='float: right;padding-right:30px;'><p>Press '0' for B</p> </div> </div></div>","null","","","","","","","","","","","","","",""
"2555","","test","audio-keyboard-response","130","310740","0.0-8.0-1.51","5e9902c3a64f740009842923","condB","","resources/audio/wordStim/S9_AI_25_axb_Step-8.wav","49","","","","","AI","resources/audio/wordStim/S9_AI_25_axb_Step-8.wav","S9","25","axb","8","CN","0","1","false"
"null","","fixation","html-keyboard-response","131","311745","0.0-8.0-0.52","5e9902c3a64f740009842923","condB","","<div class=""vertical-center"" style='width:60%;'><p style='font-weight:bold;'>Does the middle word sound more like the first word (A) or the last word (B)?</p> <br> <div class=""container""> <div id=""a-box""> <p class=""title-text"">A</h3></p> </div> <div id=""x-box""> <p class=""title-text"">X<p> </div> <div id=""b-box""> <p class=""title-text"">B</p></div> <br> <div style='float: left;padding-left:30px;'><p>Press '1' for A</p></div><div style='float: right;padding-right:30px;'><p>Press '0' for B</p> </div> </div></div>","null","","","","","","","","","","","","","",""
"2528","","test","audio-keyboard-response","132","314279","0.0-8.0-1.52","5e9902c3a64f740009842923","condB","","resources/audio/wordStim/S9_AU_13_bxa_Step-3.wav","48","","","","","AU","resources/audio/wordStim/S9_AU_13_bxa_Step-3.wav","S9","13","bxa","3","CN","1","0","false"
"null","","fixation","html-keyboard-response","133","315281","0.0-8.0-0.53","5e9902c3a64f740009842923","condB","","<div class=""vertical-center"" style='width:60%;'><p style='font-weight:bold;'>Does the middle word sound more like the first word (A) or the last word (B)?</p> <br> <div class=""container""> <div id=""a-box""> <p class=""title-text"">A</h3></p> </div> <div id=""x-box""> <p class=""title-text"">X<p> </div> <div id=""b-box""> <p class=""title-text"">B</p></div> <br> <div style='float: left;padding-left:30px;'><p>Press '1' for A</p></div><div style='float: right;padding-right:30px;'><p>Press '0' for B</p> </div> </div></div>","null","","","","","","","","","","","","","",""
"2501","","test","audio-keyboard-response","134","317786","0.0-8.0-1.53","5e9902c3a64f740009842923","condB","","resources/audio/wordStim/S9_AU_14_bxa_Step-9.wav","49","","","","","AU","resources/audio/wordStim/S9_AU_14_bxa_Step-9.wav","S9","14","bxa","9","CN","1","1","true"
"2975.224999943748","","break","html-keyboard-response","135","321265","0.0-8.0-2.53-0.53","5e9902c3a64f740009842923","condB","","<div class=""vertical-center""><p>Feel free to take a break!</p><i>When you're ready to continue, press SPACE to begin the next trial.</i></p></div>","32","","","","","","","","","","","","","",""
"null","","fixation","html-keyboard-response","136","321767","0.0-8.0-0.54","5e9902c3a64f740009842923","condB","","<div class=""vertical-center"" style='width:60%;'><p style='font-weight:bold;'>Does the middle word sound more like the first word (A) or the last word (B)?</p> <br> <div class=""container""> <div id=""a-box""> <p class=""title-text"">A</h3></p> </div> <div id=""x-box""> <p class=""title-text"">X<p> </div> <div id=""b-box""> <p class=""title-text"">B</p></div> <br> <div style='float: left;padding-left:30px;'><p>Press '1' for A</p></div><div style='float: right;padding-right:30px;'><p>Press '0' for B</p> </div> </div></div>","null","","","","","","","","","","","","","",""
"2112","","test","audio-keyboard-response","137","323879","0.0-8.0-1.54","5e9902c3a64f740009842923","condB","","resources/audio/wordStim/S3_AU_15_bxa_Step-3.wav","49","","","","","AU","resources/audio/wordStim/S3_AU_15_bxa_Step-3.wav","S3","15","bxa","3","MI","1","1","true"
"null","","fixation","html-keyboard-response","138","324882","0.0-8.0-0.55","5e9902c3a64f740009842923","condB","","<div class=""vertical-center"" style='width:60%;'><p style='font-weight:bold;'>Does the middle word sound more like the first word (A) or the last word (B)?</p> <br> <div class=""container""> <div id=""a-box""> <p class=""title-text"">A</h3></p> </div> <div id=""x-box""> <p class=""title-text"">X<p> </div> <div id=""b-box""> <p class=""title-text"">B</p></div> <br> <div style='float: left;padding-left:30px;'><p>Press '1' for A</p></div><div style='float: right;padding-right:30px;'><p>Press '0' for B</p> </div> </div></div>","null","","","","","","","","","","","","","",""
"2507","","test","audio-keyboard-response","139","327392","0.0-8.0-1.55","5e9902c3a64f740009842923","condB","","resources/audio/wordStim/S9_AI_29_axb_Step-8.wav","48","","","","","AI","resources/audio/wordStim/S9_AI_29_axb_Step-8.wav","S9","29","axb","8","CN","0","0","true"
"null","","fixation","html-keyboard-response","140","328396","0.0-8.0-0.56","5e9902c3a64f740009842923","condB","","<div class=""vertical-center"" style='width:60%;'><p style='font-weight:bold;'>Does the middle word sound more like the first word (A) or the last word (B)?</p> <br> <div class=""container""> <div id=""a-box""> <p class=""title-text"">A</h3></p> </div> <div id=""x-box""> <p class=""title-text"">X<p> </div> <div id=""b-box""> <p class=""title-text"">B</p></div> <br> <div style='float: left;padding-left:30px;'><p>Press '1' for A</p></div><div style='float: right;padding-right:30px;'><p>Press '0' for B</p> </div> </div></div>","null","","","","","","","","","","","","","",""
"2853","","test","audio-keyboard-response","141","331250","0.0-8.0-1.56","5e9902c3a64f740009842923","condB","","resources/audio/wordStim/S3_AI_22_axb_Step-6.wav","49","","","","","AI","resources/audio/wordStim/S3_AI_22_axb_Step-6.wav","S3","22","axb","6","MI","0","1","false"
"null","","fixation","html-keyboard-response","142","332252","0.0-8.0-0.57","5e9902c3a64f740009842923","condB","","<div class=""vertical-center"" style='width:60%;'><p style='font-weight:bold;'>Does the middle word sound more like the first word (A) or the last word (B)?</p> <br> <div class=""container""> <div id=""a-box""> <p class=""title-text"">A</h3></p> </div> <div id=""x-box""> <p class=""title-text"">X<p> </div> <div id=""b-box""> <p class=""title-text"">B</p></div> <br> <div style='float: left;padding-left:30px;'><p>Press '1' for A</p></div><div style='float: right;padding-right:30px;'><p>Press '0' for B</p> </div> </div></div>","null","","","","","","","","","","","","","",""
"2603","","test","audio-keyboard-response","143","334860","0.0-8.0-1.57","5e9902c3a64f740009842923","condB","","resources/audio/wordStim/S9_AI_24_axb_Step-4.wav","48","","","","","AI","resources/audio/wordStim/S9_AI_24_axb_Step-4.wav","S9","24","axb","4","CN","0","0","true"
"null","","fixation","html-keyboard-response","144","335861","0.0-8.0-0.58","5e9902c3a64f740009842923","condB","","<div class=""vertical-center"" style='width:60%;'><p style='font-weight:bold;'>Does the middle word sound more like the first word (A) or the last word (B)?</p> <br> <div class=""container""> <div id=""a-box""> <p class=""title-text"">A</h3></p> </div> <div id=""x-box""> <p class=""title-text"">X<p> </div> <div id=""b-box""> <p class=""title-text"">B</p></div> <br> <div style='float: left;padding-left:30px;'><p>Press '1' for A</p></div><div style='float: right;padding-right:30px;'><p>Press '0' for B</p> </div> </div></div>","null","","","","","","","","","","","","","",""
"3168","","test","audio-keyboard-response","145","339027","0.0-8.0-1.58","5e9902c3a64f740009842923","condB","","resources/audio/wordStim/S3_AU_18_axb_Step-8.wav","49","","","","","AU","resources/audio/wordStim/S3_AU_18_axb_Step-8.wav","S3","18","axb","8","MI","0","1","false"
"null","","fixation","html-keyboard-response","146","340030","0.0-8.0-0.59","5e9902c3a64f740009842923","condB","","<div class=""vertical-center"" style='width:60%;'><p style='font-weight:bold;'>Does the middle word sound more like the first word (A) or the last word (B)?</p> <br> <div class=""container""> <div id=""a-box""> <p class=""title-text"">A</h3></p> </div> <div id=""x-box""> <p class=""title-text"">X<p> </div> <div id=""b-box""> <p class=""title-text"">B</p></div> <br> <div style='float: left;padding-left:30px;'><p>Press '1' for A</p></div><div style='float: right;padding-right:30px;'><p>Press '0' for B</p> </div> </div></div>","null","","","","","","","","","","","","","",""
"3019","","test","audio-keyboard-response","147","343048","0.0-8.0-1.59","5e9902c3a64f740009842923","condB","","resources/audio/wordStim/S9_AI_22_axb_Step-6.wav","48","","","","","AI","resources/audio/wordStim/S9_AI_22_axb_Step-6.wav","S9","22","axb","6","CN","0","0","true"
"null","","fixation","html-keyboard-response","148","344055","0.0-8.0-0.60","5e9902c3a64f740009842923","condB","","<div class=""vertical-center"" style='width:60%;'><p style='font-weight:bold;'>Does the middle word sound more like the first word (A) or the last word (B)?</p> <br> <div class=""container""> <div id=""a-box""> <p class=""title-text"">A</h3></p> </div> <div id=""x-box""> <p class=""title-text"">X<p> </div> <div id=""b-box""> <p class=""title-text"">B</p></div> <br> <div style='float: left;padding-left:30px;'><p>Press '1' for A</p></div><div style='float: right;padding-right:30px;'><p>Press '0' for B</p> </div> </div></div>","null","","","","","","","","","","","","","",""
"2651","","test","audio-keyboard-response","149","346707","0.0-8.0-1.60","5e9902c3a64f740009842923","condB","","resources/audio/wordStim/S9_AI_23_axb_Step-6.wav","49","","","","","AI","resources/audio/wordStim/S9_AI_23_axb_Step-6.wav","S9","23","axb","6","CN","0","1","false"
"null","","fixation","html-keyboard-response","150","347711","0.0-8.0-0.61","5e9902c3a64f740009842923","condB","","<div class=""vertical-center"" style='width:60%;'><p style='font-weight:bold;'>Does the middle word sound more like the first word (A) or the last word (B)?</p> <br> <div class=""container""> <div id=""a-box""> <p class=""title-text"">A</h3></p> </div> <div id=""x-box""> <p class=""title-text"">X<p> </div> <div id=""b-box""> <p class=""title-text"">B</p></div> <br> <div style='float: left;padding-left:30px;'><p>Press '1' for A</p></div><div style='float: right;padding-right:30px;'><p>Press '0' for B</p> </div> </div></div>","null","","","","","","","","","","","","","",""
"2539","","test","audio-keyboard-response","151","350253","0.0-8.0-1.61","5e9902c3a64f740009842923","condB","","resources/audio/wordStim/S9_AU_19_bxa_Step-3.wav","48","","","","","AU","resources/audio/wordStim/S9_AU_19_bxa_Step-3.wav","S9","19","bxa","3","CN","1","0","false"
"null","","fixation","html-keyboard-response","152","351260","0.0-8.0-0.62","5e9902c3a64f740009842923","condB","","<div class=""vertical-center"" style='width:60%;'><p style='font-weight:bold;'>Does the middle word sound more like the first word (A) or the last word (B)?</p> <br> <div class=""container""> <div id=""a-box""> <p class=""title-text"">A</h3></p> </div> <div id=""x-box""> <p class=""title-text"">X<p> </div> <div id=""b-box""> <p class=""title-text"">B</p></div> <br> <div style='float: left;padding-left:30px;'><p>Press '1' for A</p></div><div style='float: right;padding-right:30px;'><p>Press '0' for B</p> </div> </div></div>","null","","","","","","","","","","","","","",""
"2453","","test","audio-keyboard-response","153","353715","0.0-8.0-1.62","5e9902c3a64f740009842923","condB","","resources/audio/wordStim/S3_AI_30_axb_Step-6.wav","49","","","","","AI","resources/audio/wordStim/S3_AI_30_axb_Step-6.wav","S3","30","axb","6","MI","0","1","false"
"null","","fixation","html-keyboard-response","154","354721","0.0-8.0-0.63","5e9902c3a64f740009842923","condB","","<div class=""vertical-center"" style='width:60%;'><p style='font-weight:bold;'>Does the middle word sound more like the first word (A) or the last word (B)?</p> <br> <div class=""container""> <div id=""a-box""> <p class=""title-text"">A</h3></p> </div> <div id=""x-box""> <p class=""title-text"">X<p> </div> <div id=""b-box""> <p class=""title-text"">B</p></div> <br> <div style='float: left;padding-left:30px;'><p>Press '1' for A</p></div><div style='float: right;padding-right:30px;'><p>Press '0' for B</p> </div> </div></div>","null","","","","","","","","","","","","","",""
"2597","","test","audio-keyboard-response","155","357321","0.0-8.0-1.63","5e9902c3a64f740009842923","condB","","resources/audio/wordStim/S9_AI_29_bxa_Step-5.wav","49","","","","","AI","resources/audio/wordStim/S9_AI_29_bxa_Step-5.wav","S9","29","bxa","5","CN","1","1","true"
"null","","fixation","html-keyboard-response","156","358326","0.0-8.0-0.64","5e9902c3a64f740009842923","condB","","<div class=""vertical-center"" style='width:60%;'><p style='font-weight:bold;'>Does the middle word sound more like the first word (A) or the last word (B)?</p> <br> <div class=""container""> <div id=""a-box""> <p class=""title-text"">A</h3></p> </div> <div id=""x-box""> <p class=""title-text"">X<p> </div> <div id=""b-box""> <p class=""title-text"">B</p></div> <br> <div style='float: left;padding-left:30px;'><p>Press '1' for A</p></div><div style='float: right;padding-right:30px;'><p>Press '0' for B</p> </div> </div></div>","null","","","","","","","","","","","","","",""
"2101","","test","audio-keyboard-response","157","360431","0.0-8.0-1.64","5e9902c3a64f740009842923","condB","","resources/audio/wordStim/S3_AI_21_axb_Step-6.wav","49","","","","","AI","resources/audio/wordStim/S3_AI_21_axb_Step-6.wav","S3","21","axb","6","MI","0","1","false"
"null","","fixation","html-keyboard-response","158","361435","0.0-8.0-0.65","5e9902c3a64f740009842923","condB","","<div class=""vertical-center"" style='width:60%;'><p style='font-weight:bold;'>Does the middle word sound more like the first word (A) or the last word (B)?</p> <br> <div class=""container""> <div id=""a-box""> <p class=""title-text"">A</h3></p> </div> <div id=""x-box""> <p class=""title-text"">X<p> </div> <div id=""b-box""> <p class=""title-text"">B</p></div> <br> <div style='float: left;padding-left:30px;'><p>Press '1' for A</p></div><div style='float: right;padding-right:30px;'><p>Press '0' for B</p> </div> </div></div>","null","","","","","","","","","","","","","",""
"3285","","test","audio-keyboard-response","159","364722","0.0-8.0-1.65","5e9902c3a64f740009842923","condB","","resources/audio/wordStim/S9_AU_11_axb_Step-6.wav","48","","","","","AU","resources/audio/wordStim/S9_AU_11_axb_Step-6.wav","S9","11","axb","6","CN","0","0","true"
"null","","fixation","html-keyboard-response","160","365726","0.0-8.0-0.66","5e9902c3a64f740009842923","condB","","<div class=""vertical-center"" style='width:60%;'><p style='font-weight:bold;'>Does the middle word sound more like the first word (A) or the last word (B)?</p> <br> <div class=""container""> <div id=""a-box""> <p class=""title-text"">A</h3></p> </div> <div id=""x-box""> <p class=""title-text"">X<p> </div> <div id=""b-box""> <p class=""title-text"">B</p></div> <br> <div style='float: left;padding-left:30px;'><p>Press '1' for A</p></div><div style='float: right;padding-right:30px;'><p>Press '0' for B</p> </div> </div></div>","null","","","","","","","","","","","","","",""
"2272","","test","audio-keyboard-response","161","367997","0.0-8.0-1.66","5e9902c3a64f740009842923","condB","","resources/audio/wordStim/S3_AU_20_bxa_Step-7.wav","49","","","","","AU","resources/audio/wordStim/S3_AU_20_bxa_Step-7.wav","S3","20","bxa","7","MI","1","1","true"
"null","","fixation","html-keyboard-response","162","368998","0.0-8.0-0.67","5e9902c3a64f740009842923","condB","","<div class=""vertical-center"" style='width:60%;'><p style='font-weight:bold;'>Does the middle word sound more like the first word (A) or the last word (B)?</p> <br> <div class=""container""> <div id=""a-box""> <p class=""title-text"">A</h3></p> </div> <div id=""x-box""> <p class=""title-text"">X<p> </div> <div id=""b-box""> <p class=""title-text"">B</p></div> <br> <div style='float: left;padding-left:30px;'><p>Press '1' for A</p></div><div style='float: right;padding-right:30px;'><p>Press '0' for B</p> </div> </div></div>","null","","","","","","","","","","","","","",""
"2981","","test","audio-keyboard-response","163","371980","0.0-8.0-1.67","5e9902c3a64f740009842923","condB","","resources/audio/wordStim/S3_AU_18_bxa_Step-9.wav","49","","","","","AU","resources/audio/wordStim/S3_AU_18_bxa_Step-9.wav","S3","18","bxa","9","MI","1","1","true"
"null","","fixation","html-keyboard-response","164","372982","0.0-8.0-0.68","5e9902c3a64f740009842923","condB","","<div class=""vertical-center"" style='width:60%;'><p style='font-weight:bold;'>Does the middle word sound more like the first word (A) or the last word (B)?</p> <br> <div class=""container""> <div id=""a-box""> <p class=""title-text"">A</h3></p> </div> <div id=""x-box""> <p class=""title-text"">X<p> </div> <div id=""b-box""> <p class=""title-text"">B</p></div> <br> <div style='float: left;padding-left:30px;'><p>Press '1' for A</p></div><div style='float: right;padding-right:30px;'><p>Press '0' for B</p> </div> </div></div>","null","","","","","","","","","","","","","",""
"2224","","test","audio-keyboard-response","165","375208","0.0-8.0-1.68","5e9902c3a64f740009842923","condB","","resources/audio/wordStim/S3_AI_25_axb_Step-8.wav","49","","","","","AI","resources/audio/wordStim/S3_AI_25_axb_Step-8.wav","S3","25","axb","8","MI","0","1","false"
"null","","fixation","html-keyboard-response","166","376209","0.0-8.0-0.69","5e9902c3a64f740009842923","condB","","<div class=""vertical-center"" style='width:60%;'><p style='font-weight:bold;'>Does the middle word sound more like the first word (A) or the last word (B)?</p> <br> <div class=""container""> <div id=""a-box""> <p class=""title-text"">A</h3></p> </div> <div id=""x-box""> <p class=""title-text"">X<p> </div> <div id=""b-box""> <p class=""title-text"">B</p></div> <br> <div style='float: left;padding-left:30px;'><p>Press '1' for A</p></div><div style='float: right;padding-right:30px;'><p>Press '0' for B</p> </div> </div></div>","null","","","","","","","","","","","","","",""
"2619","","test","audio-keyboard-response","167","378831","0.0-8.0-1.69","5e9902c3a64f740009842923","condB","","resources/audio/wordStim/S9_AU_13_bxa_Step-7.wav","49","","","","","AU","resources/audio/wordStim/S9_AU_13_bxa_Step-7.wav","S9","13","bxa","7","CN","1","1","true"
"null","","fixation","html-keyboard-response","168","379834","0.0-8.0-0.70","5e9902c3a64f740009842923","condB","","<div class=""vertical-center"" style='width:60%;'><p style='font-weight:bold;'>Does the middle word sound more like the first word (A) or the last word (B)?</p> <br> <div class=""container""> <div id=""a-box""> <p class=""title-text"">A</h3></p> </div> <div id=""x-box""> <p class=""title-text"">X<p> </div> <div id=""b-box""> <p class=""title-text"">B</p></div> <br> <div style='float: left;padding-left:30px;'><p>Press '1' for A</p></div><div style='float: right;padding-right:30px;'><p>Press '0' for B</p> </div> </div></div>","null","","","","","","","","","","","","","",""
"2805","","test","audio-keyboard-response","169","382643","0.0-8.0-1.70","5e9902c3a64f740009842923","condB","","resources/audio/wordStim/S9_AI_23_bxa_Step-3.wav","48","","","","","AI","resources/audio/wordStim/S9_AI_23_bxa_Step-3.wav","S9","23","bxa","3","CN","1","0","false"
"null","","fixation","html-keyboard-response","170","383648","0.0-8.0-0.71","5e9902c3a64f740009842923","condB","","<div class=""vertical-center"" style='width:60%;'><p style='font-weight:bold;'>Does the middle word sound more like the first word (A) or the last word (B)?</p> <br> <div class=""container""> <div id=""a-box""> <p class=""title-text"">A</h3></p> </div> <div id=""x-box""> <p class=""title-text"">X<p> </div> <div id=""b-box""> <p class=""title-text"">B</p></div> <br> <div style='float: left;padding-left:30px;'><p>Press '1' for A</p></div><div style='float: right;padding-right:30px;'><p>Press '0' for B</p> </div> </div></div>","null","","","","","","","","","","","","","",""
"2784","","test","audio-keyboard-response","171","386434","0.0-8.0-1.71","5e9902c3a64f740009842923","condB","","resources/audio/wordStim/S9_AI_30_bxa_Step-7.wav","49","","","","","AI","resources/audio/wordStim/S9_AI_30_bxa_Step-7.wav","S9","30","bxa","7","CN","1","1","true"
"null","","fixation","html-keyboard-response","172","387435","0.0-8.0-0.72","5e9902c3a64f740009842923","condB","","<div class=""vertical-center"" style='width:60%;'><p style='font-weight:bold;'>Does the middle word sound more like the first word (A) or the last word (B)?</p> <br> <div class=""container""> <div id=""a-box""> <p class=""title-text"">A</h3></p> </div> <div id=""x-box""> <p class=""title-text"">X<p> </div> <div id=""b-box""> <p class=""title-text"">B</p></div> <br> <div style='float: left;padding-left:30px;'><p>Press '1' for A</p></div><div style='float: right;padding-right:30px;'><p>Press '0' for B</p> </div> </div></div>","null","","","","","","","","","","","","","",""
"2256","","test","audio-keyboard-response","173","389695","0.0-8.0-1.72","5e9902c3a64f740009842923","condB","","resources/audio/wordStim/S3_AU_15_axb_Step-6.wav","49","","","","","AU","resources/audio/wordStim/S3_AU_15_axb_Step-6.wav","S3","15","axb","6","MI","0","1","false"
"null","","fixation","html-keyboard-response","174","390699","0.0-8.0-0.73","5e9902c3a64f740009842923","condB","","<div class=""vertical-center"" style='width:60%;'><p style='font-weight:bold;'>Does the middle word sound more like the first word (A) or the last word (B)?</p> <br> <div class=""container""> <div id=""a-box""> <p class=""title-text"">A</h3></p> </div> <div id=""x-box""> <p class=""title-text"">X<p> </div> <div id=""b-box""> <p class=""title-text"">B</p></div> <br> <div style='float: left;padding-left:30px;'><p>Press '1' for A</p></div><div style='float: right;padding-right:30px;'><p>Press '0' for B</p> </div> </div></div>","null","","","","","","","","","","","","","",""
"2571","","test","audio-keyboard-response","175","393273","0.0-8.0-1.73","5e9902c3a64f740009842923","condB","","resources/audio/wordStim/S9_AI_23_bxa_Step-10.wav","49","","","","","AI","resources/audio/wordStim/S9_AI_23_bxa_Step-10.wav","S9","23","bxa","10","CN","1","1","true"
"null","","fixation","html-keyboard-response","176","394274","0.0-8.0-0.74","5e9902c3a64f740009842923","condB","","<div class=""vertical-center"" style='width:60%;'><p style='font-weight:bold;'>Does the middle word sound more like the first word (A) or the last word (B)?</p> <br> <div class=""container""> <div id=""a-box""> <p class=""title-text"">A</h3></p> </div> <div id=""x-box""> <p class=""title-text"">X<p> </div> <div id=""b-box""> <p class=""title-text"">B</p></div> <br> <div style='float: left;padding-left:30px;'><p>Press '1' for A</p></div><div style='float: right;padding-right:30px;'><p>Press '0' for B</p> </div> </div></div>","null","","","","","","","","","","","","","",""
"2512","","test","audio-keyboard-response","177","396787","0.0-8.0-1.74","5e9902c3a64f740009842923","condB","","resources/audio/wordStim/S9_AI_27_bxa_Step-5.wav","48","","","","","AI","resources/audio/wordStim/S9_AI_27_bxa_Step-5.wav","S9","27","bxa","5","CN","1","0","false"
"null","","fixation","html-keyboard-response","178","397791","0.0-8.0-0.75","5e9902c3a64f740009842923","condB","","<div class=""vertical-center"" style='width:60%;'><p style='font-weight:bold;'>Does the middle word sound more like the first word (A) or the last word (B)?</p> <br> <div class=""container""> <div id=""a-box""> <p class=""title-text"">A</h3></p> </div> <div id=""x-box""> <p class=""title-text"">X<p> </div> <div id=""b-box""> <p class=""title-text"">B</p></div> <br> <div style='float: left;padding-left:30px;'><p>Press '1' for A</p></div><div style='float: right;padding-right:30px;'><p>Press '0' for B</p> </div> </div></div>","null","","","","","","","","","","","","","",""
"2501","","test","audio-keyboard-response","179","400295","0.0-8.0-1.75","5e9902c3a64f740009842923","condB","","resources/audio/wordStim/S9_AI_27_bxa_Step-7.wav","49","","","","","AI","resources/audio/wordStim/S9_AI_27_bxa_Step-7.wav","S9","27","bxa","7","CN","1","1","true"
"null","","fixation","html-keyboard-response","180","401301","0.0-8.0-0.76","5e9902c3a64f740009842923","condB","","<div class=""vertical-center"" style='width:60%;'><p style='font-weight:bold;'>Does the middle word sound more like the first word (A) or the last word (B)?</p> <br> <div class=""container""> <div id=""a-box""> <p class=""title-text"">A</h3></p> </div> <div id=""x-box""> <p class=""title-text"">X<p> </div> <div id=""b-box""> <p class=""title-text"">B</p></div> <br> <div style='float: left;padding-left:30px;'><p>Press '1' for A</p></div><div style='float: right;padding-right:30px;'><p>Press '0' for B</p> </div> </div></div>","null","","","","","","","","","","","","","",""
"2587","","test","audio-keyboard-response","181","403890","0.0-8.0-1.76","5e9902c3a64f740009842923","condB","","resources/audio/wordStim/S9_AU_13_bxa_Step-10.wav","49","","","","","AU","resources/audio/wordStim/S9_AU_13_bxa_Step-10.wav","S9","13","bxa","10","CN","1","1","true"
"null","","fixation","html-keyboard-response","182","404895","0.0-8.0-0.77","5e9902c3a64f740009842923","condB","","<div class=""vertical-center"" style='width:60%;'><p style='font-weight:bold;'>Does the middle word sound more like the first word (A) or the last word (B)?</p> <br> <div class=""container""> <div id=""a-box""> <p class=""title-text"">A</h3></p> </div> <div id=""x-box""> <p class=""title-text"">X<p> </div> <div id=""b-box""> <p class=""title-text"">B</p></div> <br> <div style='float: left;padding-left:30px;'><p>Press '1' for A</p></div><div style='float: right;padding-right:30px;'><p>Press '0' for B</p> </div> </div></div>","null","","","","","","","","","","","","","",""
"2997","","test","audio-keyboard-response","183","407895","0.0-8.0-1.77","5e9902c3a64f740009842923","condB","","resources/audio/wordStim/S3_AI_28_bxa_Step-10.wav","49","","","","","AI","resources/audio/wordStim/S3_AI_28_bxa_Step-10.wav","S3","28","bxa","10","MI","1","1","true"
"null","","fixation","html-keyboard-response","184","408901","0.0-8.0-0.78","5e9902c3a64f740009842923","condB","","<div class=""vertical-center"" style='width:60%;'><p style='font-weight:bold;'>Does the middle word sound more like the first word (A) or the last word (B)?</p> <br> <div class=""container""> <div id=""a-box""> <p class=""title-text"">A</h3></p> </div> <div id=""x-box""> <p class=""title-text"">X<p> </div> <div id=""b-box""> <p class=""title-text"">B</p></div> <br> <div style='float: left;padding-left:30px;'><p>Press '1' for A</p></div><div style='float: right;padding-right:30px;'><p>Press '0' for B</p> </div> </div></div>","null","","","","","","","","","","","","","",""
"2288","","test","audio-keyboard-response","185","411193","0.0-8.0-1.78","5e9902c3a64f740009842923","condB","","resources/audio/wordStim/S3_AI_21_bxa_Step-5.wav","49","","","","","AI","resources/audio/wordStim/S3_AI_21_bxa_Step-5.wav","S3","21","bxa","5","MI","1","1","true"
"null","","fixation","html-keyboard-response","186","412197","0.0-8.0-0.79","5e9902c3a64f740009842923","condB","","<div class=""vertical-center"" style='width:60%;'><p style='font-weight:bold;'>Does the middle word sound more like the first word (A) or the last word (B)?</p> <br> <div class=""container""> <div id=""a-box""> <p class=""title-text"">A</h3></p> </div> <div id=""x-box""> <p class=""title-text"">X<p> </div> <div id=""b-box""> <p class=""title-text"">B</p></div> <br> <div style='float: left;padding-left:30px;'><p>Press '1' for A</p></div><div style='float: right;padding-right:30px;'><p>Press '0' for B</p> </div> </div></div>","null","","","","","","","","","","","","","",""
"2816","","test","audio-keyboard-response","187","415016","0.0-8.0-1.79","5e9902c3a64f740009842923","condB","","resources/audio/wordStim/S3_AI_30_bxa_Step-10.wav","49","","","","","AI","resources/audio/wordStim/S3_AI_30_bxa_Step-10.wav","S3","30","bxa","10","MI","1","1","true"
"null","","fixation","html-keyboard-response","188","416021","0.0-8.0-0.80","5e9902c3a64f740009842923","condB","","<div class=""vertical-center"" style='width:60%;'><p style='font-weight:bold;'>Does the middle word sound more like the first word (A) or the last word (B)?</p> <br> <div class=""container""> <div id=""a-box""> <p class=""title-text"">A</h3></p> </div> <div id=""x-box""> <p class=""title-text"">X<p> </div> <div id=""b-box""> <p class=""title-text"">B</p></div> <br> <div style='float: left;padding-left:30px;'><p>Press '1' for A</p></div><div style='float: right;padding-right:30px;'><p>Press '0' for B</p> </div> </div></div>","null","","","","","","","","","","","","","",""
"3445","","test","audio-keyboard-response","189","419469","0.0-8.0-1.80","5e9902c3a64f740009842923","condB","","resources/audio/wordStim/S3_AU_16_axb_Step-2.wav","49","","","","","AU","resources/audio/wordStim/S3_AU_16_axb_Step-2.wav","S3","16","axb","2","MI","0","1","false"
"1421.7599998228252","","break","html-keyboard-response","190","421392","0.0-8.0-2.80-0.80","5e9902c3a64f740009842923","condB","","<div class=""vertical-center""><p>Feel free to take a break!</p><i>When you're ready to continue, press SPACE to begin the next trial.</i></p></div>","32","","","","","","","","","","","","","",""
"null","","fixation","html-keyboard-response","191","421896","0.0-8.0-0.81","5e9902c3a64f740009842923","condB","","<div class=""vertical-center"" style='width:60%;'><p style='font-weight:bold;'>Does the middle word sound more like the first word (A) or the last word (B)?</p> <br> <div class=""container""> <div id=""a-box""> <p class=""title-text"">A</h3></p> </div> <div id=""x-box""> <p class=""title-text"">X<p> </div> <div id=""b-box""> <p class=""title-text"">B</p></div> <br> <div style='float: left;padding-left:30px;'><p>Press '1' for A</p></div><div style='float: right;padding-right:30px;'><p>Press '0' for B</p> </div> </div></div>","null","","","","","","","","","","","","","",""
"2485","","test","audio-keyboard-response","192","424380","0.0-8.0-1.81","5e9902c3a64f740009842923","condB","","resources/audio/wordStim/S3_AI_23_bxa_Step-5.wav","49","","","","","AI","resources/audio/wordStim/S3_AI_23_bxa_Step-5.wav","S3","23","bxa","5","MI","1","1","true"
"null","","fixation","html-keyboard-response","193","425386","0.0-8.0-0.82","5e9902c3a64f740009842923","condB","","<div class=""vertical-center"" style='width:60%;'><p style='font-weight:bold;'>Does the middle word sound more like the first word (A) or the last word (B)?</p> <br> <div class=""container""> <div id=""a-box""> <p class=""title-text"">A</h3></p> </div> <div id=""x-box""> <p class=""title-text"">X<p> </div> <div id=""b-box""> <p class=""title-text"">B</p></div> <br> <div style='float: left;padding-left:30px;'><p>Press '1' for A</p></div><div style='float: right;padding-right:30px;'><p>Press '0' for B</p> </div> </div></div>","null","","","","","","","","","","","","","",""
"2613","","test","audio-keyboard-response","194","428004","0.0-8.0-1.82","5e9902c3a64f740009842923","condB","","resources/audio/wordStim/S9_AU_14_axb_Step-2.wav","49","","","","","AU","resources/audio/wordStim/S9_AU_14_axb_Step-2.wav","S9","14","axb","2","CN","0","1","false"
"null","","fixation","html-keyboard-response","195","429007","0.0-8.0-0.83","5e9902c3a64f740009842923","condB","","<div class=""vertical-center"" style='width:60%;'><p style='font-weight:bold;'>Does the middle word sound more like the first word (A) or the last word (B)?</p> <br> <div class=""container""> <div id=""a-box""> <p class=""title-text"">A</h3></p> </div> <div id=""x-box""> <p class=""title-text"">X<p> </div> <div id=""b-box""> <p class=""title-text"">B</p></div> <br> <div style='float: left;padding-left:30px;'><p>Press '1' for A</p></div><div style='float: right;padding-right:30px;'><p>Press '0' for B</p> </div> </div></div>","null","","","","","","","","","","","","","",""
"2421","","test","audio-keyboard-response","196","431430","0.0-8.0-1.83","5e9902c3a64f740009842923","condB","","resources/audio/wordStim/S9_AU_17_bxa_Step-9.wav","49","","","","","AU","resources/audio/wordStim/S9_AU_17_bxa_Step-9.wav","S9","17","bxa","9","CN","1","1","true"
"null","","fixation","html-keyboard-response","197","432436","0.0-8.0-0.84","5e9902c3a64f740009842923","condB","","<div class=""vertical-center"" style='width:60%;'><p style='font-weight:bold;'>Does the middle word sound more like the first word (A) or the last word (B)?</p> <br> <div class=""container""> <div id=""a-box""> <p class=""title-text"">A</h3></p> </div> <div id=""x-box""> <p class=""title-text"">X<p> </div> <div id=""b-box""> <p class=""title-text"">B</p></div> <br> <div style='float: left;padding-left:30px;'><p>Press '1' for A</p></div><div style='float: right;padding-right:30px;'><p>Press '0' for B</p> </div> </div></div>","null","","","","","","","","","","","","","",""
"2736","","test","audio-keyboard-response","198","435176","0.0-8.0-1.84","5e9902c3a64f740009842923","condB","","resources/audio/wordStim/S9_AU_18_axb_Step-4.wav","49","","","","","AU","resources/audio/wordStim/S9_AU_18_axb_Step-4.wav","S9","18","axb","4","CN","0","1","false"
"null","","fixation","html-keyboard-response","199","436180","0.0-8.0-0.85","5e9902c3a64f740009842923","condB","","<div class=""vertical-center"" style='width:60%;'><p style='font-weight:bold;'>Does the middle word sound more like the first word (A) or the last word (B)?</p> <br> <div class=""container""> <div id=""a-box""> <p class=""title-text"">A</h3></p> </div> <div id=""x-box""> <p class=""title-text"">X<p> </div> <div id=""b-box""> <p class=""title-text"">B</p></div> <br> <div style='float: left;padding-left:30px;'><p>Press '1' for A</p></div><div style='float: right;padding-right:30px;'><p>Press '0' for B</p> </div> </div></div>","null","","","","","","","","","","","","","",""
"2917","","test","audio-keyboard-response","200","439099","0.0-8.0-1.85","5e9902c3a64f740009842923","condB","","resources/audio/wordStim/S9_AI_24_bxa_Step-10.wav","49","","","","","AI","resources/audio/wordStim/S9_AI_24_bxa_Step-10.wav","S9","24","bxa","10","CN","1","1","true"
"null","","fixation","html-keyboard-response","201","440104","0.0-8.0-0.86","5e9902c3a64f740009842923","condB","","<div class=""vertical-center"" style='width:60%;'><p style='font-weight:bold;'>Does the middle word sound more like the first word (A) or the last word (B)?</p> <br> <div class=""container""> <div id=""a-box""> <p class=""title-text"">A</h3></p> </div> <div id=""x-box""> <p class=""title-text"">X<p> </div> <div id=""b-box""> <p class=""title-text"">B</p></div> <br> <div style='float: left;padding-left:30px;'><p>Press '1' for A</p></div><div style='float: right;padding-right:30px;'><p>Press '0' for B</p> </div> </div></div>","null","","","","","","","","","","","","","",""
"2523","","test","audio-keyboard-response","202","442630","0.0-8.0-1.86","5e9902c3a64f740009842923","condB","","resources/audio/wordStim/S3_AU_20_bxa_Step-10.wav","49","","","","","AU","resources/audio/wordStim/S3_AU_20_bxa_Step-10.wav","S3","20","bxa","10","MI","1","1","true"
"null","","fixation","html-keyboard-response","203","443631","0.0-8.0-0.87","5e9902c3a64f740009842923","condB","","<div class=""vertical-center"" style='width:60%;'><p style='font-weight:bold;'>Does the middle word sound more like the first word (A) or the last word (B)?</p> <br> <div class=""container""> <div id=""a-box""> <p class=""title-text"">A</h3></p> </div> <div id=""x-box""> <p class=""title-text"">X<p> </div> <div id=""b-box""> <p class=""title-text"">B</p></div> <br> <div style='float: left;padding-left:30px;'><p>Press '1' for A</p></div><div style='float: right;padding-right:30px;'><p>Press '0' for B</p> </div> </div></div>","null","","","","","","","","","","","","","",""
"2800","","test","audio-keyboard-response","204","446434","0.0-8.0-1.87","5e9902c3a64f740009842923","condB","","resources/audio/wordStim/S3_AI_22_axb_Step-2.wav","49","","","","","AI","resources/audio/wordStim/S3_AI_22_axb_Step-2.wav","S3","22","axb","2","MI","0","1","false"
"null","","fixation","html-keyboard-response","205","447439","0.0-8.0-0.88","5e9902c3a64f740009842923","condB","","<div class=""vertical-center"" style='width:60%;'><p style='font-weight:bold;'>Does the middle word sound more like the first word (A) or the last word (B)?</p> <br> <div class=""container""> <div id=""a-box""> <p class=""title-text"">A</h3></p> </div> <div id=""x-box""> <p class=""title-text"">X<p> </div> <div id=""b-box""> <p class=""title-text"">B</p></div> <br> <div style='float: left;padding-left:30px;'><p>Press '1' for A</p></div><div style='float: right;padding-right:30px;'><p>Press '0' for B</p> </div> </div></div>","null","","","","","","","","","","","","","",""
"2437","","test","audio-keyboard-response","206","449878","0.0-8.0-1.88","5e9902c3a64f740009842923","condB","","resources/audio/wordStim/S3_AU_14_bxa_Step-3.wav","48","","","","","AU","resources/audio/wordStim/S3_AU_14_bxa_Step-3.wav","S3","14","bxa","3","MI","1","0","false"
"null","","fixation","html-keyboard-response","207","450884","0.0-8.0-0.89","5e9902c3a64f740009842923","condB","","<div class=""vertical-center"" style='width:60%;'><p style='font-weight:bold;'>Does the middle word sound more like the first word (A) or the last word (B)?</p> <br> <div class=""container""> <div id=""a-box""> <p class=""title-text"">A</h3></p> </div> <div id=""x-box""> <p class=""title-text"">X<p> </div> <div id=""b-box""> <p class=""title-text"">B</p></div> <br> <div style='float: left;padding-left:30px;'><p>Press '1' for A</p></div><div style='float: right;padding-right:30px;'><p>Press '0' for B</p> </div> </div></div>","null","","","","","","","","","","","","","",""
"2645","","test","audio-keyboard-response","208","453533","0.0-8.0-1.89","5e9902c3a64f740009842923","condB","","resources/audio/wordStim/S3_AU_11_axb_Step-4.wav","48","","","","","AU","resources/audio/wordStim/S3_AU_11_axb_Step-4.wav","S3","11","axb","4","MI","0","0","true"
"null","","fixation","html-keyboard-response","209","454537","0.0-8.0-0.90","5e9902c3a64f740009842923","condB","","<div class=""vertical-center"" style='width:60%;'><p style='font-weight:bold;'>Does the middle word sound more like the first word (A) or the last word (B)?</p> <br> <div class=""container""> <div id=""a-box""> <p class=""title-text"">A</h3></p> </div> <div id=""x-box""> <p class=""title-text"">X<p> </div> <div id=""b-box""> <p class=""title-text"">B</p></div> <br> <div style='float: left;padding-left:30px;'><p>Press '1' for A</p></div><div style='float: right;padding-right:30px;'><p>Press '0' for B</p> </div> </div></div>","null","","","","","","","","","","","","","",""
"2597","","test","audio-keyboard-response","210","457139","0.0-8.0-1.90","5e9902c3a64f740009842923","condB","","resources/audio/wordStim/S9_AU_19_bxa_Step-7.wav","49","","","","","AU","resources/audio/wordStim/S9_AU_19_bxa_Step-7.wav","S9","19","bxa","7","CN","1","1","true"
"null","","fixation","html-keyboard-response","211","458142","0.0-8.0-0.91","5e9902c3a64f740009842923","condB","","<div class=""vertical-center"" style='width:60%;'><p style='font-weight:bold;'>Does the middle word sound more like the first word (A) or the last word (B)?</p> <br> <div class=""container""> <div id=""a-box""> <p class=""title-text"">A</h3></p> </div> <div id=""x-box""> <p class=""title-text"">X<p> </div> <div id=""b-box""> <p class=""title-text"">B</p></div> <br> <div style='float: left;padding-left:30px;'><p>Press '1' for A</p></div><div style='float: right;padding-right:30px;'><p>Press '0' for B</p> </div> </div></div>","null","","","","","","","","","","","","","",""
"2576","","test","audio-keyboard-response","212","460721","0.0-8.0-1.91","5e9902c3a64f740009842923","condB","","resources/audio/wordStim/S9_AI_27_axb_Step-8.wav","49","","","","","AI","resources/audio/wordStim/S9_AI_27_axb_Step-8.wav","S9","27","axb","8","CN","0","1","false"
"null","","fixation","html-keyboard-response","213","461726","0.0-8.0-0.92","5e9902c3a64f740009842923","condB","","<div class=""vertical-center"" style='width:60%;'><p style='font-weight:bold;'>Does the middle word sound more like the first word (A) or the last word (B)?</p> <br> <div class=""container""> <div id=""a-box""> <p class=""title-text"">A</h3></p> </div> <div id=""x-box""> <p class=""title-text"">X<p> </div> <div id=""b-box""> <p class=""title-text"">B</p></div> <br> <div style='float: left;padding-left:30px;'><p>Press '1' for A</p></div><div style='float: right;padding-right:30px;'><p>Press '0' for B</p> </div> </div></div>","null","","","","","","","","","","","","","",""
"2555","","test","audio-keyboard-response","214","464284","0.0-8.0-1.92","5e9902c3a64f740009842923","condB","","resources/audio/wordStim/S3_AI_25_axb_Step-4.wav","48","","","","","AI","resources/audio/wordStim/S3_AI_25_axb_Step-4.wav","S3","25","axb","4","MI","0","0","true"
