"rt","url","trial_role","trial_type","trial_index","time_elapsed","internal_node_id","participantId","condition","view_history","stimulus","key_press","button_pressed","correct_answer","correct_response","success","vowel","wordStim","speaker","sentNum","order","step","speakerIdentity","raised_answer","key_response","raised_response"
"12555","micr.con.consent.html","consent","external-html","0","12648","0.0-0.0","5ec896da2fdab637ae54bda4","condB","","","","","","","","","","","","","","","","",""
"38038","","instructions","instructions","1","50693","0.0-1.0","5ec896da2fdab637ae54bda4","condB","[{""page_index"":0,""viewing_time"":16057.999999999996},{""page_index"":1,""viewing_time"":7059},{""page_index"":2,""viewing_time"":14920}]","","","","","","","","","","","","","","","",""
"null","","fixation","html-keyboard-response","2","51197","0.0-2.0-0.0","5ec896da2fdab637ae54bda4","condB","","<div class=""vertical-center"" style=""font-size:60px;"">+</div>","null","","","","","","","","","","","","","",""
"5714","","tonetest","audio-button-response","3","56945","0.0-2.0-1.0","5ec896da2fdab637ae54bda4","condB","","../../src/audio/toneTest_1.wav","","2","2","true","","","","","","","","","","",""
"null","","fixation","html-keyboard-response","4","57447","0.0-2.0-0.1","5ec896da2fdab637ae54bda4","condB","","<div class=""vertical-center"" style=""font-size:60px;"">+</div>","null","","","","","","","","","","","","","",""
"4626","","tonetest","audio-button-response","5","62075","0.0-2.0-1.1","5ec896da2fdab637ae54bda4","condB","","../../src/audio/toneTest_5.wav","","0","0","true","","","","","","","","","","",""
"null","","fixation","html-keyboard-response","6","62577","0.0-2.0-0.2","5ec896da2fdab637ae54bda4","condB","","<div class=""vertical-center"" style=""font-size:60px;"">+</div>","null","","","","","","","","","","","","","",""
"6161.000000000015","","tonetest","audio-button-response","7","68741","0.0-2.0-1.2","5ec896da2fdab637ae54bda4","condB","","../../src/audio/toneTest_5.wav","","0","0","true","","","","","","","","","","",""
"null","","fixation","html-keyboard-response","8","69244","0.0-2.0-0.3","5ec896da2fdab637ae54bda4","condB","","<div class=""vertical-center"" style=""font-size:60px;"">+</div>","null","","","","","","","","","","","","","",""
"4982","","tonetest","audio-button-response","9","74228","0.0-2.0-1.3","5ec896da2fdab637ae54bda4","condB","","../../src/audio/toneTest_5.wav","","0","0","true","","","","","","","","","","",""
"null","","fixation","html-keyboard-response","10","74734","0.0-2.0-0.4","5ec896da2fdab637ae54bda4","condB","","<div class=""vertical-center"" style=""font-size:60px;"">+</div>","null","","","","","","","","","","","","","",""
"6259","","tonetest","audio-button-response","11","81013","0.0-2.0-1.4","5ec896da2fdab637ae54bda4","condB","","../../src/audio/toneTest_5.wav","","1","0","false","","","","","","","","","","",""
"null","","fixation","html-keyboard-response","12","81521","0.0-2.0-0.5","5ec896da2fdab637ae54bda4","condB","","<div class=""vertical-center"" style=""font-size:60px;"">+</div>","null","","","","","","","","","","","","","",""
"4506","","tonetest","audio-button-response","13","86029","0.0-2.0-1.5","5ec896da2fdab637ae54bda4","condB","","../../src/audio/toneTest_1.wav","","2","2","true","","","","","","","","","","",""
"7495","","instructions","html-keyboard-response","14","93526","0.0-3.0","5ec896da2fdab637ae54bda4","condB","","<div class=""vertical-center""><p><b>Your score was 5/6.</b></p><p>If you scored below 6, please ensure that you are wearing properly functioning headphones and in a quiet location free of distractions.</p><p><i>To continue to the main experiment, press SPACE.</i></p></div>","32","","","","","","","","","","","","","",""
"","","","fullscreen","15","99084","0.0-4.0","5ec896da2fdab637ae54bda4","condB","","","","","","","true","","","","","","","","","",""
"41627.00000000003","","instructions","instructions","16","140713","0.0-5.0","5ec896da2fdab637ae54bda4","condB","[{""page_index"":0,""viewing_time"":41627.00000000003}]","","","","","","","","","","","","","","","",""
"null","","fixation","html-keyboard-response","17","141215","0.0-6.0-0.0","5ec896da2fdab637ae54bda4","condB","","<div class=""vertical-center"" style='width:60%;'><p style='font-weight:bold;'>Does the middle word sound more like the first word (A) or the last word (B)?</p> <br> <div class=""container""> <div id=""a-box""> <p class=""title-text"">A</h3></p> </div> <div id=""x-box""> <p class=""title-text"">X<p> </div> <div id=""b-box""> <p class=""title-text"">B</p></div> <br> <div style='float: left;padding-left:30px;'><p>Press '1' for A</p></div><div style='float: right;padding-right:30px;'><p>Press '0' for B</p> </div> </div></div>","null","","","","","","","","","","","","","",""
"6269","","practice","audio-keyboard-response","18","147490","0.0-6.0-1.0","5ec896da2fdab637ae54bda4","condB","","resources/audio/practiceStim/S1_AI_21_axb_Step-6.wav","49","","","","","","","","","","","","","",""
"null","","fixation","html-keyboard-response","19","148493","0.0-6.0-0.1","5ec896da2fdab637ae54bda4","condB","","<div class=""vertical-center"" style='width:60%;'><p style='font-weight:bold;'>Does the middle word sound more like the first word (A) or the last word (B)?</p> <br> <div class=""container""> <div id=""a-box""> <p class=""title-text"">A</h3></p> </div> <div id=""x-box""> <p class=""title-text"">X<p> </div> <div id=""b-box""> <p class=""title-text"">B</p></div> <br> <div style='float: left;padding-left:30px;'><p>Press '1' for A</p></div><div style='float: right;padding-right:30px;'><p>Press '0' for B</p> </div> </div></div>","null","","","","","","","","","","","","","",""
"4124","","practice","audio-keyboard-response","20","152617","0.0-6.0-1.1","5ec896da2fdab637ae54bda4","condB","","resources/audio/practiceStim/S1_AI_21_bxa_Step-6.wav","48","","","","","","","","","","","","","",""
"null","","fixation","html-keyboard-response","21","153619","0.0-6.0-0.2","5ec896da2fdab637ae54bda4","condB","","<div class=""vertical-center"" style='width:60%;'><p style='font-weight:bold;'>Does the middle word sound more like the first word (A) or the last word (B)?</p> <br> <div class=""container""> <div id=""a-box""> <p class=""title-text"">A</h3></p> </div> <div id=""x-box""> <p class=""title-text"">X<p> </div> <div id=""b-box""> <p class=""title-text"">B</p></div> <br> <div style='float: left;padding-left:30px;'><p>Press '1' for A</p></div><div style='float: right;padding-right:30px;'><p>Press '0' for B</p> </div> </div></div>","null","","","","","","","","","","","","","",""
"3408","","practice","audio-keyboard-response","22","157037","0.0-6.0-1.2","5ec896da2fdab637ae54bda4","condB","","resources/audio/practiceStim/S1_AU_14_axb_Step-6.wav","49","","","","","","","","","","","","","",""
"null","","fixation","html-keyboard-response","23","158039","0.0-6.0-0.3","5ec896da2fdab637ae54bda4","condB","","<div class=""vertical-center"" style='width:60%;'><p style='font-weight:bold;'>Does the middle word sound more like the first word (A) or the last word (B)?</p> <br> <div class=""container""> <div id=""a-box""> <p class=""title-text"">A</h3></p> </div> <div id=""x-box""> <p class=""title-text"">X<p> </div> <div id=""b-box""> <p class=""title-text"">B</p></div> <br> <div style='float: left;padding-left:30px;'><p>Press '1' for A</p></div><div style='float: right;padding-right:30px;'><p>Press '0' for B</p> </div> </div></div>","null","","","","","","","","","","","","","",""
"2676","","practice","audio-keyboard-response","24","160718","0.0-6.0-1.3","5ec896da2fdab637ae54bda4","condB","","resources/audio/practiceStim/S1_AU_14_bxa_Step-6.wav","48","","","","","","","","","","","","","",""
"9936.99999999997","","instructions","instructions","25","171156","0.0-7.0","5ec896da2fdab637ae54bda4","condB","[{""page_index"":0,""viewing_time"":9936.99999999997}]","","","","","","","","","","","","","","","",""
"null","","fixation","html-keyboard-response","26","171658","0.0-8.0-0.0","5ec896da2fdab637ae54bda4","condB","","<div class=""vertical-center"" style='width:60%;'><p style='font-weight:bold;'>Does the middle word sound more like the first word (A) or the last word (B)?</p> <br> <div class=""container""> <div id=""a-box""> <p class=""title-text"">A</h3></p> </div> <div id=""x-box""> <p class=""title-text"">X<p> </div> <div id=""b-box""> <p class=""title-text"">B</p></div> <br> <div style='float: left;padding-left:30px;'><p>Press '1' for A</p></div><div style='float: right;padding-right:30px;'><p>Press '0' for B</p> </div> </div></div>","null","","","","","","","","","","","","","",""
"4130","","test","audio-keyboard-response","27","175791","0.0-8.0-1.0","5ec896da2fdab637ae54bda4","condB","","resources/audio/wordStim/S3_AI_22_axb_Step-2.wav","49","","","","","AI","resources/audio/wordStim/S3_AI_22_axb_Step-2.wav","S3","22","axb","2","MI","0","1","false"
"null","","fixation","html-keyboard-response","28","176794","0.0-8.0-0.1","5ec896da2fdab637ae54bda4","condB","","<div class=""vertical-center"" style='width:60%;'><p style='font-weight:bold;'>Does the middle word sound more like the first word (A) or the last word (B)?</p> <br> <div class=""container""> <div id=""a-box""> <p class=""title-text"">A</h3></p> </div> <div id=""x-box""> <p class=""title-text"">X<p> </div> <div id=""b-box""> <p class=""title-text"">B</p></div> <br> <div style='float: left;padding-left:30px;'><p>Press '1' for A</p></div><div style='float: right;padding-right:30px;'><p>Press '0' for B</p> </div> </div></div>","null","","","","","","","","","","","","","",""
"3979","","test","audio-keyboard-response","29","180775","0.0-8.0-1.1","5ec896da2fdab637ae54bda4","condB","","resources/audio/wordStim/S9_AU_19_bxa_Step-9.wav","49","","","","","AU","resources/audio/wordStim/S9_AU_19_bxa_Step-9.wav","S9","19","bxa","9","CN","1","1","true"
"null","","fixation","html-keyboard-response","30","181777","0.0-8.0-0.2","5ec896da2fdab637ae54bda4","condB","","<div class=""vertical-center"" style='width:60%;'><p style='font-weight:bold;'>Does the middle word sound more like the first word (A) or the last word (B)?</p> <br> <div class=""container""> <div id=""a-box""> <p class=""title-text"">A</h3></p> </div> <div id=""x-box""> <p class=""title-text"">X<p> </div> <div id=""b-box""> <p class=""title-text"">B</p></div> <br> <div style='float: left;padding-left:30px;'><p>Press '1' for A</p></div><div style='float: right;padding-right:30px;'><p>Press '0' for B</p> </div> </div></div>","null","","","","","","","","","","","","","",""
"4879","","test","audio-keyboard-response","31","186661","0.0-8.0-1.2","5ec896da2fdab637ae54bda4","condB","","resources/audio/wordStim/S3_AU_14_axb_Step-8.wav","48","","","","","AU","resources/audio/wordStim/S3_AU_14_axb_Step-8.wav","S3","14","axb","8","MI","0","0","true"
"null","","fixation","html-keyboard-response","32","187666","0.0-8.0-0.3","5ec896da2fdab637ae54bda4","condB","","<div class=""vertical-center"" style='width:60%;'><p style='font-weight:bold;'>Does the middle word sound more like the first word (A) or the last word (B)?</p> <br> <div class=""container""> <div id=""a-box""> <p class=""title-text"">A</h3></p> </div> <div id=""x-box""> <p class=""title-text"">X<p> </div> <div id=""b-box""> <p class=""title-text"">B</p></div> <br> <div style='float: left;padding-left:30px;'><p>Press '1' for A</p></div><div style='float: right;padding-right:30px;'><p>Press '0' for B</p> </div> </div></div>","null","","","","","","","","","","","","","",""
"11523","","test","audio-keyboard-response","33","199192","0.0-8.0-1.3","5ec896da2fdab637ae54bda4","condB","","resources/audio/wordStim/S3_AI_23_axb_Step-6.wav","48","","","","","AI","resources/audio/wordStim/S3_AI_23_axb_Step-6.wav","S3","23","axb","6","MI","0","0","true"
"null","","fixation","html-keyboard-response","34","200195","0.0-8.0-0.4","5ec896da2fdab637ae54bda4","condB","","<div class=""vertical-center"" style='width:60%;'><p style='font-weight:bold;'>Does the middle word sound more like the first word (A) or the last word (B)?</p> <br> <div class=""container""> <div id=""a-box""> <p class=""title-text"">A</h3></p> </div> <div id=""x-box""> <p class=""title-text"">X<p> </div> <div id=""b-box""> <p class=""title-text"">B</p></div> <br> <div style='float: left;padding-left:30px;'><p>Press '1' for A</p></div><div style='float: right;padding-right:30px;'><p>Press '0' for B</p> </div> </div></div>","null","","","","","","","","","","","","","",""
"3361","","test","audio-keyboard-response","35","203559","0.0-8.0-1.4","5ec896da2fdab637ae54bda4","condB","","resources/audio/wordStim/S9_AU_11_axb_Step-2.wav","49","","","","","AU","resources/audio/wordStim/S9_AU_11_axb_Step-2.wav","S9","11","axb","2","CN","0","1","false"
"null","","fixation","html-keyboard-response","36","204561","0.0-8.0-0.5","5ec896da2fdab637ae54bda4","condB","","<div class=""vertical-center"" style='width:60%;'><p style='font-weight:bold;'>Does the middle word sound more like the first word (A) or the last word (B)?</p> <br> <div class=""container""> <div id=""a-box""> <p class=""title-text"">A</h3></p> </div> <div id=""x-box""> <p class=""title-text"">X<p> </div> <div id=""b-box""> <p class=""title-text"">B</p></div> <br> <div style='float: left;padding-left:30px;'><p>Press '1' for A</p></div><div style='float: right;padding-right:30px;'><p>Press '0' for B</p> </div> </div></div>","null","","","","","","","","","","","","","",""
"2334","","test","audio-keyboard-response","37","206897","0.0-8.0-1.5","5ec896da2fdab637ae54bda4","condB","","resources/audio/wordStim/S3_AI_21_bxa_Step-10.wav","49","","","","","AI","resources/audio/wordStim/S3_AI_21_bxa_Step-10.wav","S3","21","bxa","10","MI","1","1","true"
"null","","fixation","html-keyboard-response","38","207899","0.0-8.0-0.6","5ec896da2fdab637ae54bda4","condB","","<div class=""vertical-center"" style='width:60%;'><p style='font-weight:bold;'>Does the middle word sound more like the first word (A) or the last word (B)?</p> <br> <div class=""container""> <div id=""a-box""> <p class=""title-text"">A</h3></p> </div> <div id=""x-box""> <p class=""title-text"">X<p> </div> <div id=""b-box""> <p class=""title-text"">B</p></div> <br> <div style='float: left;padding-left:30px;'><p>Press '1' for A</p></div><div style='float: right;padding-right:30px;'><p>Press '0' for B</p> </div> </div></div>","null","","","","","","","","","","","","","",""
"4499","","test","audio-keyboard-response","39","212398","0.0-8.0-1.6","5ec896da2fdab637ae54bda4","condB","","resources/audio/wordStim/S3_AU_15_axb_Step-2.wav","48","","","","","AU","resources/audio/wordStim/S3_AU_15_axb_Step-2.wav","S3","15","axb","2","MI","0","0","true"
"null","","fixation","html-keyboard-response","40","213401","0.0-8.0-0.7","5ec896da2fdab637ae54bda4","condB","","<div class=""vertical-center"" style='width:60%;'><p style='font-weight:bold;'>Does the middle word sound more like the first word (A) or the last word (B)?</p> <br> <div class=""container""> <div id=""a-box""> <p class=""title-text"">A</h3></p> </div> <div id=""x-box""> <p class=""title-text"">X<p> </div> <div id=""b-box""> <p class=""title-text"">B</p></div> <br> <div style='float: left;padding-left:30px;'><p>Press '1' for A</p></div><div style='float: right;padding-right:30px;'><p>Press '0' for B</p> </div> </div></div>","null","","","","","","","","","","","","","",""
"2888","","test","audio-keyboard-response","41","216292","0.0-8.0-1.7","5ec896da2fdab637ae54bda4","condB","","resources/audio/wordStim/S3_AI_25_bxa_Step-9.wav","49","","","","","AI","resources/audio/wordStim/S3_AI_25_bxa_Step-9.wav","S3","25","bxa","9","MI","1","1","true"
"null","","fixation","html-keyboard-response","42","217294","0.0-8.0-0.8","5ec896da2fdab637ae54bda4","condB","","<div class=""vertical-center"" style='width:60%;'><p style='font-weight:bold;'>Does the middle word sound more like the first word (A) or the last word (B)?</p> <br> <div class=""container""> <div id=""a-box""> <p class=""title-text"">A</h3></p> </div> <div id=""x-box""> <p class=""title-text"">X<p> </div> <div id=""b-box""> <p class=""title-text"">B</p></div> <br> <div style='float: left;padding-left:30px;'><p>Press '1' for A</p></div><div style='float: right;padding-right:30px;'><p>Press '0' for B</p> </div> </div></div>","null","","","","","","","","","","","","","",""
"5387","","test","audio-keyboard-response","43","222682","0.0-8.0-1.8","5ec896da2fdab637ae54bda4","condB","","resources/audio/wordStim/S9_AI_27_bxa_Step-5.wav","48","","","","","AI","resources/audio/wordStim/S9_AI_27_bxa_Step-5.wav","S9","27","bxa","5","CN","1","0","false"
"null","","fixation","html-keyboard-response","44","223685","0.0-8.0-0.9","5ec896da2fdab637ae54bda4","condB","","<div class=""vertical-center"" style='width:60%;'><p style='font-weight:bold;'>Does the middle word sound more like the first word (A) or the last word (B)?</p> <br> <div class=""container""> <div id=""a-box""> <p class=""title-text"">A</h3></p> </div> <div id=""x-box""> <p class=""title-text"">X<p> </div> <div id=""b-box""> <p class=""title-text"">B</p></div> <br> <div style='float: left;padding-left:30px;'><p>Press '1' for A</p></div><div style='float: right;padding-right:30px;'><p>Press '0' for B</p> </div> </div></div>","null","","","","","","","","","","","","","",""
"3933","","test","audio-keyboard-response","45","227621","0.0-8.0-1.9","5ec896da2fdab637ae54bda4","condB","","resources/audio/wordStim/S3_AI_30_bxa_Step-7.wav","49","","","","","AI","resources/audio/wordStim/S3_AI_30_bxa_Step-7.wav","S3","30","bxa","7","MI","1","1","true"
"null","","fixation","html-keyboard-response","46","228623","0.0-8.0-0.10","5ec896da2fdab637ae54bda4","condB","","<div class=""vertical-center"" style='width:60%;'><p style='font-weight:bold;'>Does the middle word sound more like the first word (A) or the last word (B)?</p> <br> <div class=""container""> <div id=""a-box""> <p class=""title-text"">A</h3></p> </div> <div id=""x-box""> <p class=""title-text"">X<p> </div> <div id=""b-box""> <p class=""title-text"">B</p></div> <br> <div style='float: left;padding-left:30px;'><p>Press '1' for A</p></div><div style='float: right;padding-right:30px;'><p>Press '0' for B</p> </div> </div></div>","null","","","","","","","","","","","","","",""
"4284","","test","audio-keyboard-response","47","232908","0.0-8.0-1.10","5ec896da2fdab637ae54bda4","condB","","resources/audio/wordStim/S3_AI_29_axb_Step-6.wav","49","","","","","AI","resources/audio/wordStim/S3_AI_29_axb_Step-6.wav","S3","29","axb","6","MI","0","1","false"
"null","","fixation","html-keyboard-response","48","233911","0.0-8.0-0.11","5ec896da2fdab637ae54bda4","condB","","<div class=""vertical-center"" style='width:60%;'><p style='font-weight:bold;'>Does the middle word sound more like the first word (A) or the last word (B)?</p> <br> <div class=""container""> <div id=""a-box""> <p class=""title-text"">A</h3></p> </div> <div id=""x-box""> <p class=""title-text"">X<p> </div> <div id=""b-box""> <p class=""title-text"">B</p></div> <br> <div style='float: left;padding-left:30px;'><p>Press '1' for A</p></div><div style='float: right;padding-right:30px;'><p>Press '0' for B</p> </div> </div></div>","null","","","","","","","","","","","","","",""
"3033","","test","audio-keyboard-response","49","236950","0.0-8.0-1.11","5ec896da2fdab637ae54bda4","condB","","resources/audio/wordStim/S9_AU_19_bxa_Step-3.wav","48","","","","","AU","resources/audio/wordStim/S9_AU_19_bxa_Step-3.wav","S9","19","bxa","3","CN","1","0","false"
"null","","fixation","html-keyboard-response","50","237955","0.0-8.0-0.12","5ec896da2fdab637ae54bda4","condB","","<div class=""vertical-center"" style='width:60%;'><p style='font-weight:bold;'>Does the middle word sound more like the first word (A) or the last word (B)?</p> <br> <div class=""container""> <div id=""a-box""> <p class=""title-text"">A</h3></p> </div> <div id=""x-box""> <p class=""title-text"">X<p> </div> <div id=""b-box""> <p class=""title-text"">B</p></div> <br> <div style='float: left;padding-left:30px;'><p>Press '1' for A</p></div><div style='float: right;padding-right:30px;'><p>Press '0' for B</p> </div> </div></div>","null","","","","","","","","","","","","","",""
"3222","","test","audio-keyboard-response","51","241181","0.0-8.0-1.12","5ec896da2fdab637ae54bda4","condB","","resources/audio/wordStim/S3_AI_22_axb_Step-8.wav","48","","","","","AI","resources/audio/wordStim/S3_AI_22_axb_Step-8.wav","S3","22","axb","8","MI","0","0","true"
"null","","fixation","html-keyboard-response","52","242183","0.0-8.0-0.13","5ec896da2fdab637ae54bda4","condB","","<div class=""vertical-center"" style='width:60%;'><p style='font-weight:bold;'>Does the middle word sound more like the first word (A) or the last word (B)?</p> <br> <div class=""container""> <div id=""a-box""> <p class=""title-text"">A</h3></p> </div> <div id=""x-box""> <p class=""title-text"">X<p> </div> <div id=""b-box""> <p class=""title-text"">B</p></div> <br> <div style='float: left;padding-left:30px;'><p>Press '1' for A</p></div><div style='float: right;padding-right:30px;'><p>Press '0' for B</p> </div> </div></div>","null","","","","","","","","","","","","","",""
"3080","","test","audio-keyboard-response","53","245264","0.0-8.0-1.13","5ec896da2fdab637ae54bda4","condB","","resources/audio/wordStim/S3_AI_23_bxa_Step-7.wav","49","","","","","AI","resources/audio/wordStim/S3_AI_23_bxa_Step-7.wav","S3","23","bxa","7","MI","1","1","true"
"null","","fixation","html-keyboard-response","54","246267","0.0-8.0-0.14","5ec896da2fdab637ae54bda4","condB","","<div class=""vertical-center"" style='width:60%;'><p style='font-weight:bold;'>Does the middle word sound more like the first word (A) or the last word (B)?</p> <br> <div class=""container""> <div id=""a-box""> <p class=""title-text"">A</h3></p> </div> <div id=""x-box""> <p class=""title-text"">X<p> </div> <div id=""b-box""> <p class=""title-text"">B</p></div> <br> <div style='float: left;padding-left:30px;'><p>Press '1' for A</p></div><div style='float: right;padding-right:30px;'><p>Press '0' for B</p> </div> </div></div>","null","","","","","","","","","","","","","",""
"3796","","test","audio-keyboard-response","55","250065","0.0-8.0-1.14","5ec896da2fdab637ae54bda4","condB","","resources/audio/wordStim/S9_AU_13_axb_Step-6.wav","48","","","","","AU","resources/audio/wordStim/S9_AU_13_axb_Step-6.wav","S9","13","axb","6","CN","0","0","true"
"null","","fixation","html-keyboard-response","56","251066","0.0-8.0-0.15","5ec896da2fdab637ae54bda4","condB","","<div class=""vertical-center"" style='width:60%;'><p style='font-weight:bold;'>Does the middle word sound more like the first word (A) or the last word (B)?</p> <br> <div class=""container""> <div id=""a-box""> <p class=""title-text"">A</h3></p> </div> <div id=""x-box""> <p class=""title-text"">X<p> </div> <div id=""b-box""> <p class=""title-text"">B</p></div> <br> <div style='float: left;padding-left:30px;'><p>Press '1' for A</p></div><div style='float: right;padding-right:30px;'><p>Press '0' for B</p> </div> </div></div>","null","","","","","","","","","","","","","",""
"3445","","test","audio-keyboard-response","57","254510","0.0-8.0-1.15","5ec896da2fdab637ae54bda4","condB","","resources/audio/wordStim/S3_AI_21_axb_Step-4.wav","48","","","","","AI","resources/audio/wordStim/S3_AI_21_axb_Step-4.wav","S3","21","axb","4","MI","0","0","true"
"null","","fixation","html-keyboard-response","58","255512","0.0-8.0-0.16","5ec896da2fdab637ae54bda4","condB","","<div class=""vertical-center"" style='width:60%;'><p style='font-weight:bold;'>Does the middle word sound more like the first word (A) or the last word (B)?</p> <br> <div class=""container""> <div id=""a-box""> <p class=""title-text"">A</h3></p> </div> <div id=""x-box""> <p class=""title-text"">X<p> </div> <div id=""b-box""> <p class=""title-text"">B</p></div> <br> <div style='float: left;padding-left:30px;'><p>Press '1' for A</p></div><div style='float: right;padding-right:30px;'><p>Press '0' for B</p> </div> </div></div>","null","","","","","","","","","","","","","",""
"2992","","test","audio-keyboard-response","59","258504","0.0-8.0-1.16","5ec896da2fdab637ae54bda4","condB","","resources/audio/wordStim/S3_AU_15_bxa_Step-3.wav","48","","","","","AU","resources/audio/wordStim/S3_AU_15_bxa_Step-3.wav","S3","15","bxa","3","MI","1","0","false"
"null","","fixation","html-keyboard-response","60","259506","0.0-8.0-0.17","5ec896da2fdab637ae54bda4","condB","","<div class=""vertical-center"" style='width:60%;'><p style='font-weight:bold;'>Does the middle word sound more like the first word (A) or the last word (B)?</p> <br> <div class=""container""> <div id=""a-box""> <p class=""title-text"">A</h3></p> </div> <div id=""x-box""> <p class=""title-text"">X<p> </div> <div id=""b-box""> <p class=""title-text"">B</p></div> <br> <div style='float: left;padding-left:30px;'><p>Press '1' for A</p></div><div style='float: right;padding-right:30px;'><p>Press '0' for B</p> </div> </div></div>","null","","","","","","","","","","","","","",""
"3878","","test","audio-keyboard-response","61","263385","0.0-8.0-1.17","5ec896da2fdab637ae54bda4","condB","","resources/audio/wordStim/S9_AI_23_bxa_Step-7.wav","49","","","","","AI","resources/audio/wordStim/S9_AI_23_bxa_Step-7.wav","S9","23","bxa","7","CN","1","1","true"
"null","","fixation","html-keyboard-response","62","264387","0.0-8.0-0.18","5ec896da2fdab637ae54bda4","condB","","<div class=""vertical-center"" style='width:60%;'><p style='font-weight:bold;'>Does the middle word sound more like the first word (A) or the last word (B)?</p> <br> <div class=""container""> <div id=""a-box""> <p class=""title-text"">A</h3></p> </div> <div id=""x-box""> <p class=""title-text"">X<p> </div> <div id=""b-box""> <p class=""title-text"">B</p></div> <br> <div style='float: left;padding-left:30px;'><p>Press '1' for A</p></div><div style='float: right;padding-right:30px;'><p>Press '0' for B</p> </div> </div></div>","null","","","","","","","","","","","","","",""
"3024","","test","audio-keyboard-response","63","267412","0.0-8.0-1.18","5ec896da2fdab637ae54bda4","condB","","resources/audio/wordStim/S9_AU_19_axb_Step-4.wav","49","","","","","AU","resources/audio/wordStim/S9_AU_19_axb_Step-4.wav","S9","19","axb","4","CN","0","1","false"
"null","","fixation","html-keyboard-response","64","268414","0.0-8.0-0.19","5ec896da2fdab637ae54bda4","condB","","<div class=""vertical-center"" style='width:60%;'><p style='font-weight:bold;'>Does the middle word sound more like the first word (A) or the last word (B)?</p> <br> <div class=""container""> <div id=""a-box""> <p class=""title-text"">A</h3></p> </div> <div id=""x-box""> <p class=""title-text"">X<p> </div> <div id=""b-box""> <p class=""title-text"">B</p></div> <br> <div style='float: left;padding-left:30px;'><p>Press '1' for A</p></div><div style='float: right;padding-right:30px;'><p>Press '0' for B</p> </div> </div></div>","null","","","","","","","","","","","","","",""
"3138","","test","audio-keyboard-response","65","271552","0.0-8.0-1.19","5ec896da2fdab637ae54bda4","condB","","resources/audio/wordStim/S3_AU_19_bxa_Step-7.wav","49","","","","","AU","resources/audio/wordStim/S3_AU_19_bxa_Step-7.wav","S3","19","bxa","7","MI","1","1","true"
"null","","fixation","html-keyboard-response","66","272553","0.0-8.0-0.20","5ec896da2fdab637ae54bda4","condB","","<div class=""vertical-center"" style='width:60%;'><p style='font-weight:bold;'>Does the middle word sound more like the first word (A) or the last word (B)?</p> <br> <div class=""container""> <div id=""a-box""> <p class=""title-text"">A</h3></p> </div> <div id=""x-box""> <p class=""title-text"">X<p> </div> <div id=""b-box""> <p class=""title-text"">B</p></div> <br> <div style='float: left;padding-left:30px;'><p>Press '1' for A</p></div><div style='float: right;padding-right:30px;'><p>Press '0' for B</p> </div> </div></div>","null","","","","","","","","","","","","","",""
"3146","","test","audio-keyboard-response","67","275703","0.0-8.0-1.20","5ec896da2fdab637ae54bda4","condB","","resources/audio/wordStim/S3_AI_23_bxa_Step-9.wav","48","","","","","AI","resources/audio/wordStim/S3_AI_23_bxa_Step-9.wav","S3","23","bxa","9","MI","1","0","false"
"null","","fixation","html-keyboard-response","68","276705","0.0-8.0-0.21","5ec896da2fdab637ae54bda4","condB","","<div class=""vertical-center"" style='width:60%;'><p style='font-weight:bold;'>Does the middle word sound more like the first word (A) or the last word (B)?</p> <br> <div class=""container""> <div id=""a-box""> <p class=""title-text"">A</h3></p> </div> <div id=""x-box""> <p class=""title-text"">X<p> </div> <div id=""b-box""> <p class=""title-text"">B</p></div> <br> <div style='float: left;padding-left:30px;'><p>Press '1' for A</p></div><div style='float: right;padding-right:30px;'><p>Press '0' for B</p> </div> </div></div>","null","","","","","","","","","","","","","",""
"5021","","test","audio-keyboard-response","69","281729","0.0-8.0-1.21","5ec896da2fdab637ae54bda4","condB","","resources/audio/wordStim/S3_AU_18_bxa_Step-5.wav","49","","","","","AU","resources/audio/wordStim/S3_AU_18_bxa_Step-5.wav","S3","18","bxa","5","MI","1","1","true"
"null","","fixation","html-keyboard-response","70","282731","0.0-8.0-0.22","5ec896da2fdab637ae54bda4","condB","","<div class=""vertical-center"" style='width:60%;'><p style='font-weight:bold;'>Does the middle word sound more like the first word (A) or the last word (B)?</p> <br> <div class=""container""> <div id=""a-box""> <p class=""title-text"">A</h3></p> </div> <div id=""x-box""> <p class=""title-text"">X<p> </div> <div id=""b-box""> <p class=""title-text"">B</p></div> <br> <div style='float: left;padding-left:30px;'><p>Press '1' for A</p></div><div style='float: right;padding-right:30px;'><p>Press '0' for B</p> </div> </div></div>","null","","","","","","","","","","","","","",""
"3071","","test","audio-keyboard-response","71","285804","0.0-8.0-1.22","5ec896da2fdab637ae54bda4","condB","","resources/audio/wordStim/S9_AI_27_axb_Step-2.wav","49","","","","","AI","resources/audio/wordStim/S9_AI_27_axb_Step-2.wav","S9","27","axb","2","CN","0","1","false"
"null","","fixation","html-keyboard-response","72","286806","0.0-8.0-0.23","5ec896da2fdab637ae54bda4","condB","","<div class=""vertical-center"" style='width:60%;'><p style='font-weight:bold;'>Does the middle word sound more like the first word (A) or the last word (B)?</p> <br> <div class=""container""> <div id=""a-box""> <p class=""title-text"">A</h3></p> </div> <div id=""x-box""> <p class=""title-text"">X<p> </div> <div id=""b-box""> <p class=""title-text"">B</p></div> <br> <div style='float: left;padding-left:30px;'><p>Press '1' for A</p></div><div style='float: right;padding-right:30px;'><p>Press '0' for B</p> </div> </div></div>","null","","","","","","","","","","","","","",""
"3323","","test","audio-keyboard-response","73","290132","0.0-8.0-1.23","5ec896da2fdab637ae54bda4","condB","","resources/audio/wordStim/S9_AU_11_bxa_Step-5.wav","49","","","","","AU","resources/audio/wordStim/S9_AU_11_bxa_Step-5.wav","S9","11","bxa","5","CN","1","1","true"
"null","","fixation","html-keyboard-response","74","291134","0.0-8.0-0.24","5ec896da2fdab637ae54bda4","condB","","<div class=""vertical-center"" style='width:60%;'><p style='font-weight:bold;'>Does the middle word sound more like the first word (A) or the last word (B)?</p> <br> <div class=""container""> <div id=""a-box""> <p class=""title-text"">A</h3></p> </div> <div id=""x-box""> <p class=""title-text"">X<p> </div> <div id=""b-box""> <p class=""title-text"">B</p></div> <br> <div style='float: left;padding-left:30px;'><p>Press '1' for A</p></div><div style='float: right;padding-right:30px;'><p>Press '0' for B</p> </div> </div></div>","null","","","","","","","","","","","","","",""
"3216","","test","audio-keyboard-response","75","294352","0.0-8.0-1.24","5ec896da2fdab637ae54bda4","condB","","resources/audio/wordStim/S9_AU_14_axb_Step-2.wav","48","","","","","AU","resources/audio/wordStim/S9_AU_14_axb_Step-2.wav","S9","14","axb","2","CN","0","0","true"
"null","","fixation","html-keyboard-response","76","295355","0.0-8.0-0.25","5ec896da2fdab637ae54bda4","condB","","<div class=""vertical-center"" style='width:60%;'><p style='font-weight:bold;'>Does the middle word sound more like the first word (A) or the last word (B)?</p> <br> <div class=""container""> <div id=""a-box""> <p class=""title-text"">A</h3></p> </div> <div id=""x-box""> <p class=""title-text"">X<p> </div> <div id=""b-box""> <p class=""title-text"">B</p></div> <br> <div style='float: left;padding-left:30px;'><p>Press '1' for A</p></div><div style='float: right;padding-right:30px;'><p>Press '0' for B</p> </div> </div></div>","null","","","","","","","","","","","","","",""
"2873","","test","audio-keyboard-response","77","298231","0.0-8.0-1.25","5ec896da2fdab637ae54bda4","condB","","resources/audio/wordStim/S3_AU_14_axb_Step-2.wav","49","","","","","AU","resources/audio/wordStim/S3_AU_14_axb_Step-2.wav","S3","14","axb","2","MI","0","1","false"
"null","","fixation","html-keyboard-response","78","299234","0.0-8.0-0.26","5ec896da2fdab637ae54bda4","condB","","<div class=""vertical-center"" style='width:60%;'><p style='font-weight:bold;'>Does the middle word sound more like the first word (A) or the last word (B)?</p> <br> <div class=""container""> <div id=""a-box""> <p class=""title-text"">A</h3></p> </div> <div id=""x-box""> <p class=""title-text"">X<p> </div> <div id=""b-box""> <p class=""title-text"">B</p></div> <br> <div style='float: left;padding-left:30px;'><p>Press '1' for A</p></div><div style='float: right;padding-right:30px;'><p>Press '0' for B</p> </div> </div></div>","null","","","","","","","","","","","","","",""
"2694","","test","audio-keyboard-response","79","301928","0.0-8.0-1.26","5ec896da2fdab637ae54bda4","condB","","resources/audio/wordStim/S9_AU_16_axb_Step-2.wav","49","","","","","AU","resources/audio/wordStim/S9_AU_16_axb_Step-2.wav","S9","16","axb","2","CN","0","1","false"
"10815","","break","html-keyboard-response","80","313246","0.0-8.0-2.26-0.26","5ec896da2fdab637ae54bda4","condB","","<div class=""vertical-center""><p>Feel free to take a break!</p><i>When you're ready to continue, press SPACE to begin the next trial.</i></p></div>","32","","","","","","","","","","","","","",""
"null","","fixation","html-keyboard-response","81","313748","0.0-8.0-0.27","5ec896da2fdab637ae54bda4","condB","","<div class=""vertical-center"" style='width:60%;'><p style='font-weight:bold;'>Does the middle word sound more like the first word (A) or the last word (B)?</p> <br> <div class=""container""> <div id=""a-box""> <p class=""title-text"">A</h3></p> </div> <div id=""x-box""> <p class=""title-text"">X<p> </div> <div id=""b-box""> <p class=""title-text"">B</p></div> <br> <div style='float: left;padding-left:30px;'><p>Press '1' for A</p></div><div style='float: right;padding-right:30px;'><p>Press '0' for B</p> </div> </div></div>","null","","","","","","","","","","","","","",""
"3765","","test","audio-keyboard-response","82","317514","0.0-8.0-1.27","5ec896da2fdab637ae54bda4","condB","","resources/audio/wordStim/S9_AU_14_axb_Step-6.wav","48","","","","","AU","resources/audio/wordStim/S9_AU_14_axb_Step-6.wav","S9","14","axb","6","CN","0","0","true"
"null","","fixation","html-keyboard-response","83","318516","0.0-8.0-0.28","5ec896da2fdab637ae54bda4","condB","","<div class=""vertical-center"" style='width:60%;'><p style='font-weight:bold;'>Does the middle word sound more like the first word (A) or the last word (B)?</p> <br> <div class=""container""> <div id=""a-box""> <p class=""title-text"">A</h3></p> </div> <div id=""x-box""> <p class=""title-text"">X<p> </div> <div id=""b-box""> <p class=""title-text"">B</p></div> <br> <div style='float: left;padding-left:30px;'><p>Press '1' for A</p></div><div style='float: right;padding-right:30px;'><p>Press '0' for B</p> </div> </div></div>","null","","","","","","","","","","","","","",""
"3289","","test","audio-keyboard-response","84","321806","0.0-8.0-1.28","5ec896da2fdab637ae54bda4","condB","","resources/audio/wordStim/S3_AI_23_axb_Step-4.wav","49","","","","","AI","resources/audio/wordStim/S3_AI_23_axb_Step-4.wav","S3","23","axb","4","MI","0","1","false"
"null","","fixation","html-keyboard-response","85","322808","0.0-8.0-0.29","5ec896da2fdab637ae54bda4","condB","","<div class=""vertical-center"" style='width:60%;'><p style='font-weight:bold;'>Does the middle word sound more like the first word (A) or the last word (B)?</p> <br> <div class=""container""> <div id=""a-box""> <p class=""title-text"">A</h3></p> </div> <div id=""x-box""> <p class=""title-text"">X<p> </div> <div id=""b-box""> <p class=""title-text"">B</p></div> <br> <div style='float: left;padding-left:30px;'><p>Press '1' for A</p></div><div style='float: right;padding-right:30px;'><p>Press '0' for B</p> </div> </div></div>","null","","","","","","","","","","","","","",""
"4200","","test","audio-keyboard-response","86","327010","0.0-8.0-1.29","5ec896da2fdab637ae54bda4","condB","","resources/audio/wordStim/S9_AI_25_axb_Step-2.wav","48","","","","","AI","resources/audio/wordStim/S9_AI_25_axb_Step-2.wav","S9","25","axb","2","CN","0","0","true"
"null","","fixation","html-keyboard-response","87","328012","0.0-8.0-0.30","5ec896da2fdab637ae54bda4","condB","","<div class=""vertical-center"" style='width:60%;'><p style='font-weight:bold;'>Does the middle word sound more like the first word (A) or the last word (B)?</p> <br> <div class=""container""> <div id=""a-box""> <p class=""title-text"">A</h3></p> </div> <div id=""x-box""> <p class=""title-text"">X<p> </div> <div id=""b-box""> <p class=""title-text"">B</p></div> <br> <div style='float: left;padding-left:30px;'><p>Press '1' for A</p></div><div style='float: right;padding-right:30px;'><p>Press '0' for B</p> </div> </div></div>","null","","","","","","","","","","","","","",""
"2647","","test","audio-keyboard-response","88","330661","0.0-8.0-1.30","5ec896da2fdab637ae54bda4","condB","","resources/audio/wordStim/S3_AU_14_bxa_Step-7.wav","49","","","","","AU","resources/audio/wordStim/S3_AU_14_bxa_Step-7.wav","S3","14","bxa","7","MI","1","1","true"
"null","","fixation","html-keyboard-response","89","331664","0.0-8.0-0.31","5ec896da2fdab637ae54bda4","condB","","<div class=""vertical-center"" style='width:60%;'><p style='font-weight:bold;'>Does the middle word sound more like the first word (A) or the last word (B)?</p> <br> <div class=""container""> <div id=""a-box""> <p class=""title-text"">A</h3></p> </div> <div id=""x-box""> <p class=""title-text"">X<p> </div> <div id=""b-box""> <p class=""title-text"">B</p></div> <br> <div style='float: left;padding-left:30px;'><p>Press '1' for A</p></div><div style='float: right;padding-right:30px;'><p>Press '0' for B</p> </div> </div></div>","null","","","","","","","","","","","","","",""
"4331","","test","audio-keyboard-response","90","335996","0.0-8.0-1.31","5ec896da2fdab637ae54bda4","condB","","resources/audio/wordStim/S3_AI_22_bxa_Step-5.wav","48","","","","","AI","resources/audio/wordStim/S3_AI_22_bxa_Step-5.wav","S3","22","bxa","5","MI","1","0","false"
"null","","fixation","html-keyboard-response","91","336999","0.0-8.0-0.32","5ec896da2fdab637ae54bda4","condB","","<div class=""vertical-center"" style='width:60%;'><p style='font-weight:bold;'>Does the middle word sound more like the first word (A) or the last word (B)?</p> <br> <div class=""container""> <div id=""a-box""> <p class=""title-text"">A</h3></p> </div> <div id=""x-box""> <p class=""title-text"">X<p> </div> <div id=""b-box""> <p class=""title-text"">B</p></div> <br> <div style='float: left;padding-left:30px;'><p>Press '1' for A</p></div><div style='float: right;padding-right:30px;'><p>Press '0' for B</p> </div> </div></div>","null","","","","","","","","","","","","","",""
"3193","","test","audio-keyboard-response","92","340194","0.0-8.0-1.32","5ec896da2fdab637ae54bda4","condB","","resources/audio/wordStim/S9_AU_18_axb_Step-2.wav","49","","","","","AU","resources/audio/wordStim/S9_AU_18_axb_Step-2.wav","S9","18","axb","2","CN","0","1","false"
"null","","fixation","html-keyboard-response","93","341196","0.0-8.0-0.33","5ec896da2fdab637ae54bda4","condB","","<div class=""vertical-center"" style='width:60%;'><p style='font-weight:bold;'>Does the middle word sound more like the first word (A) or the last word (B)?</p> <br> <div class=""container""> <div id=""a-box""> <p class=""title-text"">A</h3></p> </div> <div id=""x-box""> <p class=""title-text"">X<p> </div> <div id=""b-box""> <p class=""title-text"">B</p></div> <br> <div style='float: left;padding-left:30px;'><p>Press '1' for A</p></div><div style='float: right;padding-right:30px;'><p>Press '0' for B</p> </div> </div></div>","null","","","","","","","","","","","","","",""
"2749","","test","audio-keyboard-response","94","343947","0.0-8.0-1.33","5ec896da2fdab637ae54bda4","condB","","resources/audio/wordStim/S3_AU_19_axb_Step-4.wav","49","","","","","AU","resources/audio/wordStim/S3_AU_19_axb_Step-4.wav","S3","19","axb","4","MI","0","1","false"
"null","","fixation","html-keyboard-response","95","344949","0.0-8.0-0.34","5ec896da2fdab637ae54bda4","condB","","<div class=""vertical-center"" style='width:60%;'><p style='font-weight:bold;'>Does the middle word sound more like the first word (A) or the last word (B)?</p> <br> <div class=""container""> <div id=""a-box""> <p class=""title-text"">A</h3></p> </div> <div id=""x-box""> <p class=""title-text"">X<p> </div> <div id=""b-box""> <p class=""title-text"">B</p></div> <br> <div style='float: left;padding-left:30px;'><p>Press '1' for A</p></div><div style='float: right;padding-right:30px;'><p>Press '0' for B</p> </div> </div></div>","null","","","","","","","","","","","","","",""
"2984","","test","audio-keyboard-response","96","347935","0.0-8.0-1.34","5ec896da2fdab637ae54bda4","condB","","resources/audio/wordStim/S3_AI_25_axb_Step-2.wav","48","","","","","AI","resources/audio/wordStim/S3_AI_25_axb_Step-2.wav","S3","25","axb","2","MI","0","0","true"
"null","","fixation","html-keyboard-response","97","348938","0.0-8.0-0.35","5ec896da2fdab637ae54bda4","condB","","<div class=""vertical-center"" style='width:60%;'><p style='font-weight:bold;'>Does the middle word sound more like the first word (A) or the last word (B)?</p> <br> <div class=""container""> <div id=""a-box""> <p class=""title-text"">A</h3></p> </div> <div id=""x-box""> <p class=""title-text"">X<p> </div> <div id=""b-box""> <p class=""title-text"">B</p></div> <br> <div style='float: left;padding-left:30px;'><p>Press '1' for A</p></div><div style='float: right;padding-right:30px;'><p>Press '0' for B</p> </div> </div></div>","null","","","","","","","","","","","","","",""
"3326","","test","audio-keyboard-response","98","352266","0.0-8.0-1.35","5ec896da2fdab637ae54bda4","condB","","resources/audio/wordStim/S9_AI_29_axb_Step-8.wav","48","","","","","AI","resources/audio/wordStim/S9_AI_29_axb_Step-8.wav","S9","29","axb","8","CN","0","0","true"
"null","","fixation","html-keyboard-response","99","353269","0.0-8.0-0.36","5ec896da2fdab637ae54bda4","condB","","<div class=""vertical-center"" style='width:60%;'><p style='font-weight:bold;'>Does the middle word sound more like the first word (A) or the last word (B)?</p> <br> <div class=""container""> <div id=""a-box""> <p class=""title-text"">A</h3></p> </div> <div id=""x-box""> <p class=""title-text"">X<p> </div> <div id=""b-box""> <p class=""title-text"">B</p></div> <br> <div style='float: left;padding-left:30px;'><p>Press '1' for A</p></div><div style='float: right;padding-right:30px;'><p>Press '0' for B</p> </div> </div></div>","null","","","","","","","","","","","","","",""
"2966","","test","audio-keyboard-response","100","356235","0.0-8.0-1.36","5ec896da2fdab637ae54bda4","condB","","resources/audio/wordStim/S3_AI_21_axb_Step-8.wav","48","","","","","AI","resources/audio/wordStim/S3_AI_21_axb_Step-8.wav","S3","21","axb","8","MI","0","0","true"
"null","","fixation","html-keyboard-response","101","357237","0.0-8.0-0.37","5ec896da2fdab637ae54bda4","condB","","<div class=""vertical-center"" style='width:60%;'><p style='font-weight:bold;'>Does the middle word sound more like the first word (A) or the last word (B)?</p> <br> <div class=""container""> <div id=""a-box""> <p class=""title-text"">A</h3></p> </div> <div id=""x-box""> <p class=""title-text"">X<p> </div> <div id=""b-box""> <p class=""title-text"">B</p></div> <br> <div style='float: left;padding-left:30px;'><p>Press '1' for A</p></div><div style='float: right;padding-right:30px;'><p>Press '0' for B</p> </div> </div></div>","null","","","","","","","","","","","","","",""
"5117","","test","audio-keyboard-response","102","362353","0.0-8.0-1.37","5ec896da2fdab637ae54bda4","condB","","resources/audio/wordStim/S3_AI_29_bxa_Step-3.wav","48","","","","","AI","resources/audio/wordStim/S3_AI_29_bxa_Step-3.wav","S3","29","bxa","3","MI","1","0","false"
"null","","fixation","html-keyboard-response","103","363355","0.0-8.0-0.38","5ec896da2fdab637ae54bda4","condB","","<div class=""vertical-center"" style='width:60%;'><p style='font-weight:bold;'>Does the middle word sound more like the first word (A) or the last word (B)?</p> <br> <div class=""container""> <div id=""a-box""> <p class=""title-text"">A</h3></p> </div> <div id=""x-box""> <p class=""title-text"">X<p> </div> <div id=""b-box""> <p class=""title-text"">B</p></div> <br> <div style='float: left;padding-left:30px;'><p>Press '1' for A</p></div><div style='float: right;padding-right:30px;'><p>Press '0' for B</p> </div> </div></div>","null","","","","","","","","","","","","","",""
"3349","","test","audio-keyboard-response","104","366709","0.0-8.0-1.38","5ec896da2fdab637ae54bda4","condB","","resources/audio/wordStim/S9_AI_30_axb_Step-4.wav","49","","","","","AI","resources/audio/wordStim/S9_AI_30_axb_Step-4.wav","S9","30","axb","4","CN","0","1","false"
"null","","fixation","html-keyboard-response","105","367711","0.0-8.0-0.39","5ec896da2fdab637ae54bda4","condB","","<div class=""vertical-center"" style='width:60%;'><p style='font-weight:bold;'>Does the middle word sound more like the first word (A) or the last word (B)?</p> <br> <div class=""container""> <div id=""a-box""> <p class=""title-text"">A</h3></p> </div> <div id=""x-box""> <p class=""title-text"">X<p> </div> <div id=""b-box""> <p class=""title-text"">B</p></div> <br> <div style='float: left;padding-left:30px;'><p>Press '1' for A</p></div><div style='float: right;padding-right:30px;'><p>Press '0' for B</p> </div> </div></div>","null","","","","","","","","","","","","","",""
"3106","","test","audio-keyboard-response","106","370818","0.0-8.0-1.39","5ec896da2fdab637ae54bda4","condB","","resources/audio/wordStim/S3_AU_20_axb_Step-6.wav","49","","","","","AU","resources/audio/wordStim/S3_AU_20_axb_Step-6.wav","S3","20","axb","6","MI","0","1","false"
"null","","fixation","html-keyboard-response","107","371821","0.0-8.0-0.40","5ec896da2fdab637ae54bda4","condB","","<div class=""vertical-center"" style='width:60%;'><p style='font-weight:bold;'>Does the middle word sound more like the first word (A) or the last word (B)?</p> <br> <div class=""container""> <div id=""a-box""> <p class=""title-text"">A</h3></p> </div> <div id=""x-box""> <p class=""title-text"">X<p> </div> <div id=""b-box""> <p class=""title-text"">B</p></div> <br> <div style='float: left;padding-left:30px;'><p>Press '1' for A</p></div><div style='float: right;padding-right:30px;'><p>Press '0' for B</p> </div> </div></div>","null","","","","","","","","","","","","","",""
"2662","","test","audio-keyboard-response","108","374483","0.0-8.0-1.40","5ec896da2fdab637ae54bda4","condB","","resources/audio/wordStim/S3_AU_14_bxa_Step-10.wav","49","","","","","AU","resources/audio/wordStim/S3_AU_14_bxa_Step-10.wav","S3","14","bxa","10","MI","1","1","true"
"null","","fixation","html-keyboard-response","109","375486","0.0-8.0-0.41","5ec896da2fdab637ae54bda4","condB","","<div class=""vertical-center"" style='width:60%;'><p style='font-weight:bold;'>Does the middle word sound more like the first word (A) or the last word (B)?</p> <br> <div class=""container""> <div id=""a-box""> <p class=""title-text"">A</h3></p> </div> <div id=""x-box""> <p class=""title-text"">X<p> </div> <div id=""b-box""> <p class=""title-text"">B</p></div> <br> <div style='float: left;padding-left:30px;'><p>Press '1' for A</p></div><div style='float: right;padding-right:30px;'><p>Press '0' for B</p> </div> </div></div>","null","","","","","","","","","","","","","",""
"2987","","test","audio-keyboard-response","110","378475","0.0-8.0-1.41","5ec896da2fdab637ae54bda4","condB","","resources/audio/wordStim/S9_AU_18_bxa_Step-10.wav","49","","","","","AU","resources/audio/wordStim/S9_AU_18_bxa_Step-10.wav","S9","18","bxa","10","CN","1","1","true"
"null","","fixation","html-keyboard-response","111","379477","0.0-8.0-0.42","5ec896da2fdab637ae54bda4","condB","","<div class=""vertical-center"" style='width:60%;'><p style='font-weight:bold;'>Does the middle word sound more like the first word (A) or the last word (B)?</p> <br> <div class=""container""> <div id=""a-box""> <p class=""title-text"">A</h3></p> </div> <div id=""x-box""> <p class=""title-text"">X<p> </div> <div id=""b-box""> <p class=""title-text"">B</p></div> <br> <div style='float: left;padding-left:30px;'><p>Press '1' for A</p></div><div style='float: right;padding-right:30px;'><p>Press '0' for B</p> </div> </div></div>","null","","","","","","","","","","","","","",""
"6028","","test","audio-keyboard-response","112","385508","0.0-8.0-1.42","5ec896da2fdab637ae54bda4","condB","","resources/audio/wordStim/S9_AU_11_bxa_Step-10.wav","49","","","","","AU","resources/audio/wordStim/S9_AU_11_bxa_Step-10.wav","S9","11","bxa","10","CN","1","1","true"
"null","","fixation","html-keyboard-response","113","386510","0.0-8.0-0.43","5ec896da2fdab637ae54bda4","condB","","<div class=""vertical-center"" style='width:60%;'><p style='font-weight:bold;'>Does the middle word sound more like the first word (A) or the last word (B)?</p> <br> <div class=""container""> <div id=""a-box""> <p class=""title-text"">A</h3></p> </div> <div id=""x-box""> <p class=""title-text"">X<p> </div> <div id=""b-box""> <p class=""title-text"">B</p></div> <br> <div style='float: left;padding-left:30px;'><p>Press '1' for A</p></div><div style='float: right;padding-right:30px;'><p>Press '0' for B</p> </div> </div></div>","null","","","","","","","","","","","","","",""
"2583","","test","audio-keyboard-response","114","389094","0.0-8.0-1.43","5ec896da2fdab637ae54bda4","condB","","resources/audio/wordStim/S3_AU_19_bxa_Step-9.wav","49","","","","","AU","resources/audio/wordStim/S3_AU_19_bxa_Step-9.wav","S3","19","bxa","9","MI","1","1","true"
"null","","fixation","html-keyboard-response","115","390098","0.0-8.0-0.44","5ec896da2fdab637ae54bda4","condB","","<div class=""vertical-center"" style='width:60%;'><p style='font-weight:bold;'>Does the middle word sound more like the first word (A) or the last word (B)?</p> <br> <div class=""container""> <div id=""a-box""> <p class=""title-text"">A</h3></p> </div> <div id=""x-box""> <p class=""title-text"">X<p> </div> <div id=""b-box""> <p class=""title-text"">B</p></div> <br> <div style='float: left;padding-left:30px;'><p>Press '1' for A</p></div><div style='float: right;padding-right:30px;'><p>Press '0' for B</p> </div> </div></div>","null","","","","","","","","","","","","","",""
"2531","","test","audio-keyboard-response","116","392630","0.0-8.0-1.44","5ec896da2fdab637ae54bda4","condB","","resources/audio/wordStim/S3_AU_19_bxa_Step-5.wav","49","","","","","AU","resources/audio/wordStim/S3_AU_19_bxa_Step-5.wav","S3","19","bxa","5","MI","1","1","true"
"null","","fixation","html-keyboard-response","117","393632","0.0-8.0-0.45","5ec896da2fdab637ae54bda4","condB","","<div class=""vertical-center"" style='width:60%;'><p style='font-weight:bold;'>Does the middle word sound more like the first word (A) or the last word (B)?</p> <br> <div class=""container""> <div id=""a-box""> <p class=""title-text"">A</h3></p> </div> <div id=""x-box""> <p class=""title-text"">X<p> </div> <div id=""b-box""> <p class=""title-text"">B</p></div> <br> <div style='float: left;padding-left:30px;'><p>Press '1' for A</p></div><div style='float: right;padding-right:30px;'><p>Press '0' for B</p> </div> </div></div>","null","","","","","","","","","","","","","",""
"2569","","test","audio-keyboard-response","118","396204","0.0-8.0-1.45","5ec896da2fdab637ae54bda4","condB","","resources/audio/wordStim/S9_AU_16_axb_Step-8.wav","48","","","","","AU","resources/audio/wordStim/S9_AU_16_axb_Step-8.wav","S9","16","axb","8","CN","0","0","true"
"null","","fixation","html-keyboard-response","119","397206","0.0-8.0-0.46","5ec896da2fdab637ae54bda4","condB","","<div class=""vertical-center"" style='width:60%;'><p style='font-weight:bold;'>Does the middle word sound more like the first word (A) or the last word (B)?</p> <br> <div class=""container""> <div id=""a-box""> <p class=""title-text"">A</h3></p> </div> <div id=""x-box""> <p class=""title-text"">X<p> </div> <div id=""b-box""> <p class=""title-text"">B</p></div> <br> <div style='float: left;padding-left:30px;'><p>Press '1' for A</p></div><div style='float: right;padding-right:30px;'><p>Press '0' for B</p> </div> </div></div>","null","","","","","","","","","","","","","",""
"4580","","test","audio-keyboard-response","120","401788","0.0-8.0-1.46","5ec896da2fdab637ae54bda4","condB","","resources/audio/wordStim/S9_AI_29_axb_Step-6.wav","48","","","","","AI","resources/audio/wordStim/S9_AI_29_axb_Step-6.wav","S9","29","axb","6","CN","0","0","true"
"null","","fixation","html-keyboard-response","121","402791","0.0-8.0-0.47","5ec896da2fdab637ae54bda4","condB","","<div class=""vertical-center"" style='width:60%;'><p style='font-weight:bold;'>Does the middle word sound more like the first word (A) or the last word (B)?</p> <br> <div class=""container""> <div id=""a-box""> <p class=""title-text"">A</h3></p> </div> <div id=""x-box""> <p class=""title-text"">X<p> </div> <div id=""b-box""> <p class=""title-text"">B</p></div> <br> <div style='float: left;padding-left:30px;'><p>Press '1' for A</p></div><div style='float: right;padding-right:30px;'><p>Press '0' for B</p> </div> </div></div>","null","","","","","","","","","","","","","",""
"2900","","test","audio-keyboard-response","122","405692","0.0-8.0-1.47","5ec896da2fdab637ae54bda4","condB","","resources/audio/wordStim/S3_AU_11_bxa_Step-7.wav","49","","","","","AU","resources/audio/wordStim/S3_AU_11_bxa_Step-7.wav","S3","11","bxa","7","MI","1","1","true"
"null","","fixation","html-keyboard-response","123","406694","0.0-8.0-0.48","5ec896da2fdab637ae54bda4","condB","","<div class=""vertical-center"" style='width:60%;'><p style='font-weight:bold;'>Does the middle word sound more like the first word (A) or the last word (B)?</p> <br> <div class=""container""> <div id=""a-box""> <p class=""title-text"">A</h3></p> </div> <div id=""x-box""> <p class=""title-text"">X<p> </div> <div id=""b-box""> <p class=""title-text"">B</p></div> <br> <div style='float: left;padding-left:30px;'><p>Press '1' for A</p></div><div style='float: right;padding-right:30px;'><p>Press '0' for B</p> </div> </div></div>","null","","","","","","","","","","","","","",""
"2772","","test","audio-keyboard-response","124","409467","0.0-8.0-1.48","5ec896da2fdab637ae54bda4","condB","","resources/audio/wordStim/S9_AU_13_axb_Step-8.wav","48","","","","","AU","resources/audio/wordStim/S9_AU_13_axb_Step-8.wav","S9","13","axb","8","CN","0","0","true"
"null","","fixation","html-keyboard-response","125","410469","0.0-8.0-0.49","5ec896da2fdab637ae54bda4","condB","","<div class=""vertical-center"" style='width:60%;'><p style='font-weight:bold;'>Does the middle word sound more like the first word (A) or the last word (B)?</p> <br> <div class=""container""> <div id=""a-box""> <p class=""title-text"">A</h3></p> </div> <div id=""x-box""> <p class=""title-text"">X<p> </div> <div id=""b-box""> <p class=""title-text"">B</p></div> <br> <div style='float: left;padding-left:30px;'><p>Press '1' for A</p></div><div style='float: right;padding-right:30px;'><p>Press '0' for B</p> </div> </div></div>","null","","","","","","","","","","","","","",""
"2746","","test","audio-keyboard-response","126","413217","0.0-8.0-1.49","5ec896da2fdab637ae54bda4","condB","","resources/audio/wordStim/S9_AU_16_bxa_Step-3.wav","48","","","","","AU","resources/audio/wordStim/S9_AU_16_bxa_Step-3.wav","S9","16","bxa","3","CN","1","0","false"
"null","","fixation","html-keyboard-response","127","414219","0.0-8.0-0.50","5ec896da2fdab637ae54bda4","condB","","<div class=""vertical-center"" style='width:60%;'><p style='font-weight:bold;'>Does the middle word sound more like the first word (A) or the last word (B)?</p> <br> <div class=""container""> <div id=""a-box""> <p class=""title-text"">A</h3></p> </div> <div id=""x-box""> <p class=""title-text"">X<p> </div> <div id=""b-box""> <p class=""title-text"">B</p></div> <br> <div style='float: left;padding-left:30px;'><p>Press '1' for A</p></div><div style='float: right;padding-right:30px;'><p>Press '0' for B</p> </div> </div></div>","null","","","","","","","","","","","","","",""
"2923","","test","audio-keyboard-response","128","417144","0.0-8.0-1.50","5ec896da2fdab637ae54bda4","condB","","resources/audio/wordStim/S9_AU_18_bxa_Step-3.wav","48","","","","","AU","resources/audio/wordStim/S9_AU_18_bxa_Step-3.wav","S9","18","bxa","3","CN","1","0","false"
"null","","fixation","html-keyboard-response","129","418147","0.0-8.0-0.51","5ec896da2fdab637ae54bda4","condB","","<div class=""vertical-center"" style='width:60%;'><p style='font-weight:bold;'>Does the middle word sound more like the first word (A) or the last word (B)?</p> <br> <div class=""container""> <div id=""a-box""> <p class=""title-text"">A</h3></p> </div> <div id=""x-box""> <p class=""title-text"">X<p> </div> <div id=""b-box""> <p class=""title-text"">B</p></div> <br> <div style='float: left;padding-left:30px;'><p>Press '1' for A</p></div><div style='float: right;padding-right:30px;'><p>Press '0' for B</p> </div> </div></div>","null","","","","","","","","","","","","","",""
"4409","","test","audio-keyboard-response","130","422557","0.0-8.0-1.51","5ec896da2fdab637ae54bda4","condB","","resources/audio/wordStim/S3_AU_17_bxa_Step-7.wav","49","","","","","AU","resources/audio/wordStim/S3_AU_17_bxa_Step-7.wav","S3","17","bxa","7","MI","1","1","true"
"null","","fixation","html-keyboard-response","131","423560","0.0-8.0-0.52","5ec896da2fdab637ae54bda4","condB","","<div class=""vertical-center"" style='width:60%;'><p style='font-weight:bold;'>Does the middle word sound more like the first word (A) or the last word (B)?</p> <br> <div class=""container""> <div id=""a-box""> <p class=""title-text"">A</h3></p> </div> <div id=""x-box""> <p class=""title-text"">X<p> </div> <div id=""b-box""> <p class=""title-text"">B</p></div> <br> <div style='float: left;padding-left:30px;'><p>Press '1' for A</p></div><div style='float: right;padding-right:30px;'><p>Press '0' for B</p> </div> </div></div>","null","","","","","","","","","","","","","",""
"3085","","test","audio-keyboard-response","132","426649","0.0-8.0-1.52","5ec896da2fdab637ae54bda4","condB","","resources/audio/wordStim/S3_AU_11_axb_Step-2.wav","49","","","","","AU","resources/audio/wordStim/S3_AU_11_axb_Step-2.wav","S3","11","axb","2","MI","0","1","false"
"null","","fixation","html-keyboard-response","133","427653","0.0-8.0-0.53","5ec896da2fdab637ae54bda4","condB","","<div class=""vertical-center"" style='width:60%;'><p style='font-weight:bold;'>Does the middle word sound more like the first word (A) or the last word (B)?</p> <br> <div class=""container""> <div id=""a-box""> <p class=""title-text"">A</h3></p> </div> <div id=""x-box""> <p class=""title-text"">X<p> </div> <div id=""b-box""> <p class=""title-text"">B</p></div> <br> <div style='float: left;padding-left:30px;'><p>Press '1' for A</p></div><div style='float: right;padding-right:30px;'><p>Press '0' for B</p> </div> </div></div>","null","","","","","","","","","","","","","",""
"2752","","test","audio-keyboard-response","134","430408","0.0-8.0-1.53","5ec896da2fdab637ae54bda4","condB","","resources/audio/wordStim/S3_AU_11_axb_Step-4.wav","48","","","","","AU","resources/audio/wordStim/S3_AU_11_axb_Step-4.wav","S3","11","axb","4","MI","0","0","true"
"21448","","break","html-keyboard-response","135","452359","0.0-8.0-2.53-0.53","5ec896da2fdab637ae54bda4","condB","","<div class=""vertical-center""><p>Feel free to take a break!</p><i>When you're ready to continue, press SPACE to begin the next trial.</i></p></div>","32","","","","","","","","","","","","","",""
"null","","fixation","html-keyboard-response","136","452860","0.0-8.0-0.54","5ec896da2fdab637ae54bda4","condB","","<div class=""vertical-center"" style='width:60%;'><p style='font-weight:bold;'>Does the middle word sound more like the first word (A) or the last word (B)?</p> <br> <div class=""container""> <div id=""a-box""> <p class=""title-text"">A</h3></p> </div> <div id=""x-box""> <p class=""title-text"">X<p> </div> <div id=""b-box""> <p class=""title-text"">B</p></div> <br> <div style='float: left;padding-left:30px;'><p>Press '1' for A</p></div><div style='float: right;padding-right:30px;'><p>Press '0' for B</p> </div> </div></div>","null","","","","","","","","","","","","","",""
"2833","","test","audio-keyboard-response","137","455692","0.0-8.0-1.54","5ec896da2fdab637ae54bda4","condB","","resources/audio/wordStim/S9_AI_29_bxa_Step-10.wav","49","","","","","AI","resources/audio/wordStim/S9_AI_29_bxa_Step-10.wav","S9","29","bxa","10","CN","1","1","true"
"null","","fixation","html-keyboard-response","138","456695","0.0-8.0-0.55","5ec896da2fdab637ae54bda4","condB","","<div class=""vertical-center"" style='width:60%;'><p style='font-weight:bold;'>Does the middle word sound more like the first word (A) or the last word (B)?</p> <br> <div class=""container""> <div id=""a-box""> <p class=""title-text"">A</h3></p> </div> <div id=""x-box""> <p class=""title-text"">X<p> </div> <div id=""b-box""> <p class=""title-text"">B</p></div> <br> <div style='float: left;padding-left:30px;'><p>Press '1' for A</p></div><div style='float: right;padding-right:30px;'><p>Press '0' for B</p> </div> </div></div>","null","","","","","","","","","","","","","",""
"3062","","test","audio-keyboard-response","139","459758","0.0-8.0-1.55","5ec896da2fdab637ae54bda4","condB","","resources/audio/wordStim/S9_AU_19_bxa_Step-7.wav","49","","","","","AU","resources/audio/wordStim/S9_AU_19_bxa_Step-7.wav","S9","19","bxa","7","CN","1","1","true"
"null","","fixation","html-keyboard-response","140","460762","0.0-8.0-0.56","5ec896da2fdab637ae54bda4","condB","","<div class=""vertical-center"" style='width:60%;'><p style='font-weight:bold;'>Does the middle word sound more like the first word (A) or the last word (B)?</p> <br> <div class=""container""> <div id=""a-box""> <p class=""title-text"">A</h3></p> </div> <div id=""x-box""> <p class=""title-text"">X<p> </div> <div id=""b-box""> <p class=""title-text"">B</p></div> <br> <div style='float: left;padding-left:30px;'><p>Press '1' for A</p></div><div style='float: right;padding-right:30px;'><p>Press '0' for B</p> </div> </div></div>","null","","","","","","","","","","","","","",""
"3358","","test","audio-keyboard-response","141","464123","0.0-8.0-1.56","5ec896da2fdab637ae54bda4","condB","","resources/audio/wordStim/S3_AI_29_bxa_Step-10.wav","49","","","","","AI","resources/audio/wordStim/S3_AI_29_bxa_Step-10.wav","S3","29","bxa","10","MI","1","1","true"
"null","","fixation","html-keyboard-response","142","465127","0.0-8.0-0.57","5ec896da2fdab637ae54bda4","condB","","<div class=""vertical-center"" style='width:60%;'><p style='font-weight:bold;'>Does the middle word sound more like the first word (A) or the last word (B)?</p> <br> <div class=""container""> <div id=""a-box""> <p class=""title-text"">A</h3></p> </div> <div id=""x-box""> <p class=""title-text"">X<p> </div> <div id=""b-box""> <p class=""title-text"">B</p></div> <br> <div style='float: left;padding-left:30px;'><p>Press '1' for A</p></div><div style='float: right;padding-right:30px;'><p>Press '0' for B</p> </div> </div></div>","null","","","","","","","","","","","","","",""
"2775","","test","audio-keyboard-response","143","467904","0.0-8.0-1.57","5ec896da2fdab637ae54bda4","condB","","resources/audio/wordStim/S9_AU_19_axb_Step-8.wav","48","","","","","AU","resources/audio/wordStim/S9_AU_19_axb_Step-8.wav","S9","19","axb","8","CN","0","0","true"
"null","","fixation","html-keyboard-response","144","468907","0.0-8.0-0.58","5ec896da2fdab637ae54bda4","condB","","<div class=""vertical-center"" style='width:60%;'><p style='font-weight:bold;'>Does the middle word sound more like the first word (A) or the last word (B)?</p> <br> <div class=""container""> <div id=""a-box""> <p class=""title-text"">A</h3></p> </div> <div id=""x-box""> <p class=""title-text"">X<p> </div> <div id=""b-box""> <p class=""title-text"">B</p></div> <br> <div style='float: left;padding-left:30px;'><p>Press '1' for A</p></div><div style='float: right;padding-right:30px;'><p>Press '0' for B</p> </div> </div></div>","null","","","","","","","","","","","","","",""
"2871","","test","audio-keyboard-response","145","471779","0.0-8.0-1.58","5ec896da2fdab637ae54bda4","condB","","resources/audio/wordStim/S3_AU_20_axb_Step-2.wav","49","","","","","AU","resources/audio/wordStim/S3_AU_20_axb_Step-2.wav","S3","20","axb","2","MI","0","1","false"
"null","","fixation","html-keyboard-response","146","472782","0.0-8.0-0.59","5ec896da2fdab637ae54bda4","condB","","<div class=""vertical-center"" style='width:60%;'><p style='font-weight:bold;'>Does the middle word sound more like the first word (A) or the last word (B)?</p> <br> <div class=""container""> <div id=""a-box""> <p class=""title-text"">A</h3></p> </div> <div id=""x-box""> <p class=""title-text"">X<p> </div> <div id=""b-box""> <p class=""title-text"">B</p></div> <br> <div style='float: left;padding-left:30px;'><p>Press '1' for A</p></div><div style='float: right;padding-right:30px;'><p>Press '0' for B</p> </div> </div></div>","null","","","","","","","","","","","","","",""
"4235","","test","audio-keyboard-response","147","477018","0.0-8.0-1.59","5ec896da2fdab637ae54bda4","condB","","resources/audio/wordStim/S3_AU_17_axb_Step-6.wav","48","","","","","AU","resources/audio/wordStim/S3_AU_17_axb_Step-6.wav","S3","17","axb","6","MI","0","0","true"
"null","","fixation","html-keyboard-response","148","478021","0.0-8.0-0.60","5ec896da2fdab637ae54bda4","condB","","<div class=""vertical-center"" style='width:60%;'><p style='font-weight:bold;'>Does the middle word sound more like the first word (A) or the last word (B)?</p> <br> <div class=""container""> <div id=""a-box""> <p class=""title-text"">A</h3></p> </div> <div id=""x-box""> <p class=""title-text"">X<p> </div> <div id=""b-box""> <p class=""title-text"">B</p></div> <br> <div style='float: left;padding-left:30px;'><p>Press '1' for A</p></div><div style='float: right;padding-right:30px;'><p>Press '0' for B</p> </div> </div></div>","null","","","","","","","","","","","","","",""
"2789","","test","audio-keyboard-response","149","480812","0.0-8.0-1.60","5ec896da2fdab637ae54bda4","condB","","resources/audio/wordStim/S3_AI_28_axb_Step-6.wav","49","","","","","AI","resources/audio/wordStim/S3_AI_28_axb_Step-6.wav","S3","28","axb","6","MI","0","1","false"
"null","","fixation","html-keyboard-response","150","481814","0.0-8.0-0.61","5ec896da2fdab637ae54bda4","condB","","<div class=""vertical-center"" style='width:60%;'><p style='font-weight:bold;'>Does the middle word sound more like the first word (A) or the last word (B)?</p> <br> <div class=""container""> <div id=""a-box""> <p class=""title-text"">A</h3></p> </div> <div id=""x-box""> <p class=""title-text"">X<p> </div> <div id=""b-box""> <p class=""title-text"">B</p></div> <br> <div style='float: left;padding-left:30px;'><p>Press '1' for A</p></div><div style='float: right;padding-right:30px;'><p>Press '0' for B</p> </div> </div></div>","null","","","","","","","","","","","","","",""
"3190","","test","audio-keyboard-response","151","485006","0.0-8.0-1.61","5ec896da2fdab637ae54bda4","condB","","resources/audio/wordStim/S9_AU_18_axb_Step-6.wav","49","","","","","AU","resources/audio/wordStim/S9_AU_18_axb_Step-6.wav","S9","18","axb","6","CN","0","1","false"
"null","","fixation","html-keyboard-response","152","486010","0.0-8.0-0.62","5ec896da2fdab637ae54bda4","condB","","<div class=""vertical-center"" style='width:60%;'><p style='font-weight:bold;'>Does the middle word sound more like the first word (A) or the last word (B)?</p> <br> <div class=""container""> <div id=""a-box""> <p class=""title-text"">A</h3></p> </div> <div id=""x-box""> <p class=""title-text"">X<p> </div> <div id=""b-box""> <p class=""title-text"">B</p></div> <br> <div style='float: left;padding-left:30px;'><p>Press '1' for A</p></div><div style='float: right;padding-right:30px;'><p>Press '0' for B</p> </div> </div></div>","null","","","","","","","","","","","","","",""
"6702","","test","audio-keyboard-response","153","492712","0.0-8.0-1.62","5ec896da2fdab637ae54bda4","condB","","resources/audio/wordStim/S3_AI_30_bxa_Step-3.wav","49","","","","","AI","resources/audio/wordStim/S3_AI_30_bxa_Step-3.wav","S3","30","bxa","3","MI","1","1","true"
"null","","fixation","html-keyboard-response","154","493715","0.0-8.0-0.63","5ec896da2fdab637ae54bda4","condB","","<div class=""vertical-center"" style='width:60%;'><p style='font-weight:bold;'>Does the middle word sound more like the first word (A) or the last word (B)?</p> <br> <div class=""container""> <div id=""a-box""> <p class=""title-text"">A</h3></p> </div> <div id=""x-box""> <p class=""title-text"">X<p> </div> <div id=""b-box""> <p class=""title-text"">B</p></div> <br> <div style='float: left;padding-left:30px;'><p>Press '1' for A</p></div><div style='float: right;padding-right:30px;'><p>Press '0' for B</p> </div> </div></div>","null","","","","","","","","","","","","","",""
"2368","","test","audio-keyboard-response","155","496085","0.0-8.0-1.63","5ec896da2fdab637ae54bda4","condB","","resources/audio/wordStim/S3_AU_14_bxa_Step-9.wav","49","","","","","AU","resources/audio/wordStim/S3_AU_14_bxa_Step-9.wav","S3","14","bxa","9","MI","1","1","true"
"null","","fixation","html-keyboard-response","156","497088","0.0-8.0-0.64","5ec896da2fdab637ae54bda4","condB","","<div class=""vertical-center"" style='width:60%;'><p style='font-weight:bold;'>Does the middle word sound more like the first word (A) or the last word (B)?</p> <br> <div class=""container""> <div id=""a-box""> <p class=""title-text"">A</h3></p> </div> <div id=""x-box""> <p class=""title-text"">X<p> </div> <div id=""b-box""> <p class=""title-text"">B</p></div> <br> <div style='float: left;padding-left:30px;'><p>Press '1' for A</p></div><div style='float: right;padding-right:30px;'><p>Press '0' for B</p> </div> </div></div>","null","","","","","","","","","","","","","",""
"3271","","test","audio-keyboard-response","157","500361","0.0-8.0-1.64","5ec896da2fdab637ae54bda4","condB","","resources/audio/wordStim/S3_AU_11_bxa_Step-5.wav","49","","","","","AU","resources/audio/wordStim/S3_AU_11_bxa_Step-5.wav","S3","11","bxa","5","MI","1","1","true"
"null","","fixation","html-keyboard-response","158","501363","0.0-8.0-0.65","5ec896da2fdab637ae54bda4","condB","","<div class=""vertical-center"" style='width:60%;'><p style='font-weight:bold;'>Does the middle word sound more like the first word (A) or the last word (B)?</p> <br> <div class=""container""> <div id=""a-box""> <p class=""title-text"">A</h3></p> </div> <div id=""x-box""> <p class=""title-text"">X<p> </div> <div id=""b-box""> <p class=""title-text"">B</p></div> <br> <div style='float: left;padding-left:30px;'><p>Press '1' for A</p></div><div style='float: right;padding-right:30px;'><p>Press '0' for B</p> </div> </div></div>","null","","","","","","","","","","","","","",""
"7526","","test","audio-keyboard-response","159","508891","0.0-8.0-1.65","5ec896da2fdab637ae54bda4","condB","","resources/audio/wordStim/S9_AU_11_bxa_Step-3.wav","49","","","","","AU","resources/audio/wordStim/S9_AU_11_bxa_Step-3.wav","S9","11","bxa","3","CN","1","1","true"
"null","","fixation","html-keyboard-response","160","509894","0.0-8.0-0.66","5ec896da2fdab637ae54bda4","condB","","<div class=""vertical-center"" style='width:60%;'><p style='font-weight:bold;'>Does the middle word sound more like the first word (A) or the last word (B)?</p> <br> <div class=""container""> <div id=""a-box""> <p class=""title-text"">A</h3></p> </div> <div id=""x-box""> <p class=""title-text"">X<p> </div> <div id=""b-box""> <p class=""title-text"">B</p></div> <br> <div style='float: left;padding-left:30px;'><p>Press '1' for A</p></div><div style='float: right;padding-right:30px;'><p>Press '0' for B</p> </div> </div></div>","null","","","","","","","","","","","","","",""
"4328","","test","audio-keyboard-response","161","514221","0.0-8.0-1.66","5ec896da2fdab637ae54bda4","condB","","resources/audio/wordStim/S9_AU_17_axb_Step-4.wav","49","","","","","AU","resources/audio/wordStim/S9_AU_17_axb_Step-4.wav","S9","17","axb","4","CN","0","1","false"
"null","","fixation","html-keyboard-response","162","515223","0.0-8.0-0.67","5ec896da2fdab637ae54bda4","condB","","<div class=""vertical-center"" style='width:60%;'><p style='font-weight:bold;'>Does the middle word sound more like the first word (A) or the last word (B)?</p> <br> <div class=""container""> <div id=""a-box""> <p class=""title-text"">A</h3></p> </div> <div id=""x-box""> <p class=""title-text"">X<p> </div> <div id=""b-box""> <p class=""title-text"">B</p></div> <br> <div style='float: left;padding-left:30px;'><p>Press '1' for A</p></div><div style='float: right;padding-right:30px;'><p>Press '0' for B</p> </div> </div></div>","null","","","","","","","","","","","","","",""
"3387","","test","audio-keyboard-response","163","518611","0.0-8.0-1.67","5ec896da2fdab637ae54bda4","condB","","resources/audio/wordStim/S3_AU_17_axb_Step-2.wav","49","","","","","AU","resources/audio/wordStim/S3_AU_17_axb_Step-2.wav","S3","17","axb","2","MI","0","1","false"
"null","","fixation","html-keyboard-response","164","519614","0.0-8.0-0.68","5ec896da2fdab637ae54bda4","condB","","<div class=""vertical-center"" style='width:60%;'><p style='font-weight:bold;'>Does the middle word sound more like the first word (A) or the last word (B)?</p> <br> <div class=""container""> <div id=""a-box""> <p class=""title-text"">A</h3></p> </div> <div id=""x-box""> <p class=""title-text"">X<p> </div> <div id=""b-box""> <p class=""title-text"">B</p></div> <br> <div style='float: left;padding-left:30px;'><p>Press '1' for A</p></div><div style='float: right;padding-right:30px;'><p>Press '0' for B</p> </div> </div></div>","null","","","","","","","","","","","","","",""
"3216","","test","audio-keyboard-response","165","522832","0.0-8.0-1.68","5ec896da2fdab637ae54bda4","condB","","resources/audio/wordStim/S9_AU_18_bxa_Step-5.wav","49","","","","","AU","resources/audio/wordStim/S9_AU_18_bxa_Step-5.wav","S9","18","bxa","5","CN","1","1","true"
"null","","fixation","html-keyboard-response","166","523835","0.0-8.0-0.69","5ec896da2fdab637ae54bda4","condB","","<div class=""vertical-center"" style='width:60%;'><p style='font-weight:bold;'>Does the middle word sound more like the first word (A) or the last word (B)?</p> <br> <div class=""container""> <div id=""a-box""> <p class=""title-text"">A</h3></p> </div> <div id=""x-box""> <p class=""title-text"">X<p> </div> <div id=""b-box""> <p class=""title-text"">B</p></div> <br> <div style='float: left;padding-left:30px;'><p>Press '1' for A</p></div><div style='float: right;padding-right:30px;'><p>Press '0' for B</p> </div> </div></div>","null","","","","","","","","","","","","","",""
"3199","","test","audio-keyboard-response","167","527038","0.0-8.0-1.69","5ec896da2fdab637ae54bda4","condB","","resources/audio/wordStim/S3_AU_15_bxa_Step-7.wav","49","","","","","AU","resources/audio/wordStim/S3_AU_15_bxa_Step-7.wav","S3","15","bxa","7","MI","1","1","true"
"null","","fixation","html-keyboard-response","168","528042","0.0-8.0-0.70","5ec896da2fdab637ae54bda4","condB","","<div class=""vertical-center"" style='width:60%;'><p style='font-weight:bold;'>Does the middle word sound more like the first word (A) or the last word (B)?</p> <br> <div class=""container""> <div id=""a-box""> <p class=""title-text"">A</h3></p> </div> <div id=""x-box""> <p class=""title-text"">X<p> </div> <div id=""b-box""> <p class=""title-text"">B</p></div> <br> <div style='float: left;padding-left:30px;'><p>Press '1' for A</p></div><div style='float: right;padding-right:30px;'><p>Press '0' for B</p> </div> </div></div>","null","","","","","","","","","","","","","",""
"3918","","test","audio-keyboard-response","169","531963","0.0-8.0-1.70","5ec896da2fdab637ae54bda4","condB","","resources/audio/wordStim/S9_AI_22_bxa_Step-10.wav","48","","","","","AI","resources/audio/wordStim/S9_AI_22_bxa_Step-10.wav","S9","22","bxa","10","CN","1","0","false"
"null","","fixation","html-keyboard-response","170","532966","0.0-8.0-0.71","5ec896da2fdab637ae54bda4","condB","","<div class=""vertical-center"" style='width:60%;'><p style='font-weight:bold;'>Does the middle word sound more like the first word (A) or the last word (B)?</p> <br> <div class=""container""> <div id=""a-box""> <p class=""title-text"">A</h3></p> </div> <div id=""x-box""> <p class=""title-text"">X<p> </div> <div id=""b-box""> <p class=""title-text"">B</p></div> <br> <div style='float: left;padding-left:30px;'><p>Press '1' for A</p></div><div style='float: right;padding-right:30px;'><p>Press '0' for B</p> </div> </div></div>","null","","","","","","","","","","","","","",""
"3239","","test","audio-keyboard-response","171","536206","0.0-8.0-1.71","5ec896da2fdab637ae54bda4","condB","","resources/audio/wordStim/S9_AI_22_bxa_Step-3.wav","48","","","","","AI","resources/audio/wordStim/S9_AI_22_bxa_Step-3.wav","S9","22","bxa","3","CN","1","0","false"
"null","","fixation","html-keyboard-response","172","537208","0.0-8.0-0.72","5ec896da2fdab637ae54bda4","condB","","<div class=""vertical-center"" style='width:60%;'><p style='font-weight:bold;'>Does the middle word sound more like the first word (A) or the last word (B)?</p> <br> <div class=""container""> <div id=""a-box""> <p class=""title-text"">A</h3></p> </div> <div id=""x-box""> <p class=""title-text"">X<p> </div> <div id=""b-box""> <p class=""title-text"">B</p></div> <br> <div style='float: left;padding-left:30px;'><p>Press '1' for A</p></div><div style='float: right;padding-right:30px;'><p>Press '0' for B</p> </div> </div></div>","null","","","","","","","","","","","","","",""
"3942","","test","audio-keyboard-response","173","541153","0.0-8.0-1.72","5ec896da2fdab637ae54bda4","condB","","resources/audio/wordStim/S9_AI_27_bxa_Step-3.wav","48","","","","","AI","resources/audio/wordStim/S9_AI_27_bxa_Step-3.wav","S9","27","bxa","3","CN","1","0","false"
"null","","fixation","html-keyboard-response","174","542156","0.0-8.0-0.73","5ec896da2fdab637ae54bda4","condB","","<div class=""vertical-center"" style='width:60%;'><p style='font-weight:bold;'>Does the middle word sound more like the first word (A) or the last word (B)?</p> <br> <div class=""container""> <div id=""a-box""> <p class=""title-text"">A</h3></p> </div> <div id=""x-box""> <p class=""title-text"">X<p> </div> <div id=""b-box""> <p class=""title-text"">B</p></div> <br> <div style='float: left;padding-left:30px;'><p>Press '1' for A</p></div><div style='float: right;padding-right:30px;'><p>Press '0' for B</p> </div> </div></div>","null","","","","","","","","","","","","","",""
"7207","","test","audio-keyboard-response","175","549367","0.0-8.0-1.73","5ec896da2fdab637ae54bda4","condB","","resources/audio/wordStim/S9_AI_25_bxa_Step-10.wav","49","","","","","AI","resources/audio/wordStim/S9_AI_25_bxa_Step-10.wav","S9","25","bxa","10","CN","1","1","true"
"null","","fixation","html-keyboard-response","176","550369","0.0-8.0-0.74","5ec896da2fdab637ae54bda4","condB","","<div class=""vertical-center"" style='width:60%;'><p style='font-weight:bold;'>Does the middle word sound more like the first word (A) or the last word (B)?</p> <br> <div class=""container""> <div id=""a-box""> <p class=""title-text"">A</h3></p> </div> <div id=""x-box""> <p class=""title-text"">X<p> </div> <div id=""b-box""> <p class=""title-text"">B</p></div> <br> <div style='float: left;padding-left:30px;'><p>Press '1' for A</p></div><div style='float: right;padding-right:30px;'><p>Press '0' for B</p> </div> </div></div>","null","","","","","","","","","","","","","",""
"2981","","test","audio-keyboard-response","177","553351","0.0-8.0-1.74","5ec896da2fdab637ae54bda4","condB","","resources/audio/wordStim/S9_AI_29_bxa_Step-7.wav","49","","","","","AI","resources/audio/wordStim/S9_AI_29_bxa_Step-7.wav","S9","29","bxa","7","CN","1","1","true"
"null","","fixation","html-keyboard-response","178","554354","0.0-8.0-0.75","5ec896da2fdab637ae54bda4","condB","","<div class=""vertical-center"" style='width:60%;'><p style='font-weight:bold;'>Does the middle word sound more like the first word (A) or the last word (B)?</p> <br> <div class=""container""> <div id=""a-box""> <p class=""title-text"">A</h3></p> </div> <div id=""x-box""> <p class=""title-text"">X<p> </div> <div id=""b-box""> <p class=""title-text"">B</p></div> <br> <div style='float: left;padding-left:30px;'><p>Press '1' for A</p></div><div style='float: right;padding-right:30px;'><p>Press '0' for B</p> </div> </div></div>","null","","","","","","","","","","","","","",""
"2897","","test","audio-keyboard-response","179","557253","0.0-8.0-1.75","5ec896da2fdab637ae54bda4","condB","","resources/audio/wordStim/S3_AU_20_axb_Step-4.wav","49","","","","","AU","resources/audio/wordStim/S3_AU_20_axb_Step-4.wav","S3","20","axb","4","MI","0","1","false"
"null","","fixation","html-keyboard-response","180","558256","0.0-8.0-0.76","5ec896da2fdab637ae54bda4","condB","","<div class=""vertical-center"" style='width:60%;'><p style='font-weight:bold;'>Does the middle word sound more like the first word (A) or the last word (B)?</p> <br> <div class=""container""> <div id=""a-box""> <p class=""title-text"">A</h3></p> </div> <div id=""x-box""> <p class=""title-text"">X<p> </div> <div id=""b-box""> <p class=""title-text"">B</p></div> <br> <div style='float: left;padding-left:30px;'><p>Press '1' for A</p></div><div style='float: right;padding-right:30px;'><p>Press '0' for B</p> </div> </div></div>","null","","","","","","","","","","","","","",""
"2731","","test","audio-keyboard-response","181","560987","0.0-8.0-1.76","5ec896da2fdab637ae54bda4","condB","","resources/audio/wordStim/S9_AU_17_axb_Step-2.wav","49","","","","","AU","resources/audio/wordStim/S9_AU_17_axb_Step-2.wav","S9","17","axb","2","CN","0","1","false"
"null","","fixation","html-keyboard-response","182","561989","0.0-8.0-0.77","5ec896da2fdab637ae54bda4","condB","","<div class=""vertical-center"" style='width:60%;'><p style='font-weight:bold;'>Does the middle word sound more like the first word (A) or the last word (B)?</p> <br> <div class=""container""> <div id=""a-box""> <p class=""title-text"">A</h3></p> </div> <div id=""x-box""> <p class=""title-text"">X<p> </div> <div id=""b-box""> <p class=""title-text"">B</p></div> <br> <div style='float: left;padding-left:30px;'><p>Press '1' for A</p></div><div style='float: right;padding-right:30px;'><p>Press '0' for B</p> </div> </div></div>","null","","","","","","","","","","","","","",""
"3184","","test","audio-keyboard-response","183","565177","0.0-8.0-1.77","5ec896da2fdab637ae54bda4","condB","","resources/audio/wordStim/S9_AI_24_axb_Step-8.wav","48","","","","","AI","resources/audio/wordStim/S9_AI_24_axb_Step-8.wav","S9","24","axb","8","CN","0","0","true"
"null","","fixation","html-keyboard-response","184","566179","0.0-8.0-0.78","5ec896da2fdab637ae54bda4","condB","","<div class=""vertical-center"" style='width:60%;'><p style='font-weight:bold;'>Does the middle word sound more like the first word (A) or the last word (B)?</p> <br> <div class=""container""> <div id=""a-box""> <p class=""title-text"">A</h3></p> </div> <div id=""x-box""> <p class=""title-text"">X<p> </div> <div id=""b-box""> <p class=""title-text"">B</p></div> <br> <div style='float: left;padding-left:30px;'><p>Press '1' for A</p></div><div style='float: right;padding-right:30px;'><p>Press '0' for B</p> </div> </div></div>","null","","","","","","","","","","","","","",""
"3988","","test","audio-keyboard-response","185","570168","0.0-8.0-1.78","5ec896da2fdab637ae54bda4","condB","","resources/audio/wordStim/S9_AU_14_axb_Step-8.wav","49","","","","","AU","resources/audio/wordStim/S9_AU_14_axb_Step-8.wav","S9","14","axb","8","CN","0","1","false"
"null","","fixation","html-keyboard-response","186","571169","0.0-8.0-0.79","5ec896da2fdab637ae54bda4","condB","","<div class=""vertical-center"" style='width:60%;'><p style='font-weight:bold;'>Does the middle word sound more like the first word (A) or the last word (B)?</p> <br> <div class=""container""> <div id=""a-box""> <p class=""title-text"">A</h3></p> </div> <div id=""x-box""> <p class=""title-text"">X<p> </div> <div id=""b-box""> <p class=""title-text"">B</p></div> <br> <div style='float: left;padding-left:30px;'><p>Press '1' for A</p></div><div style='float: right;padding-right:30px;'><p>Press '0' for B</p> </div> </div></div>","null","","","","","","","","","","","","","",""
"2833","","test","audio-keyboard-response","187","574003","0.0-8.0-1.79","5ec896da2fdab637ae54bda4","condB","","resources/audio/wordStim/S9_AI_23_axb_Step-2.wav","49","","","","","AI","resources/audio/wordStim/S9_AI_23_axb_Step-2.wav","S9","23","axb","2","CN","0","1","false"
"null","","fixation","html-keyboard-response","188","575005","0.0-8.0-0.80","5ec896da2fdab637ae54bda4","condB","","<div class=""vertical-center"" style='width:60%;'><p style='font-weight:bold;'>Does the middle word sound more like the first word (A) or the last word (B)?</p> <br> <div class=""container""> <div id=""a-box""> <p class=""title-text"">A</h3></p> </div> <div id=""x-box""> <p class=""title-text"">X<p> </div> <div id=""b-box""> <p class=""title-text"">B</p></div> <br> <div style='float: left;padding-left:30px;'><p>Press '1' for A</p></div><div style='float: right;padding-right:30px;'><p>Press '0' for B</p> </div> </div></div>","null","","","","","","","","","","","","","",""
"4026","","test","audio-keyboard-response","189","579034","0.0-8.0-1.80","5ec896da2fdab637ae54bda4","condB","","resources/audio/wordStim/S3_AU_18_bxa_Step-10.wav","49","","","","","AU","resources/audio/wordStim/S3_AU_18_bxa_Step-10.wav","S3","18","bxa","10","MI","1","1","true"
"5787","","break","html-keyboard-response","190","585322","0.0-8.0-2.80-0.80","5ec896da2fdab637ae54bda4","condB","","<div class=""vertical-center""><p>Feel free to take a break!</p><i>When you're ready to continue, press SPACE to begin the next trial.</i></p></div>","32","","","","","","","","","","","","","",""
"null","","fixation","html-keyboard-response","191","585824","0.0-8.0-0.81","5ec896da2fdab637ae54bda4","condB","","<div class=""vertical-center"" style='width:60%;'><p style='font-weight:bold;'>Does the middle word sound more like the first word (A) or the last word (B)?</p> <br> <div class=""container""> <div id=""a-box""> <p class=""title-text"">A</h3></p> </div> <div id=""x-box""> <p class=""title-text"">X<p> </div> <div id=""b-box""> <p class=""title-text"">B</p></div> <br> <div style='float: left;padding-left:30px;'><p>Press '1' for A</p></div><div style='float: right;padding-right:30px;'><p>Press '0' for B</p> </div> </div></div>","null","","","","","","","","","","","","","",""
"3379","","test","audio-keyboard-response","192","589203","0.0-8.0-1.81","5ec896da2fdab637ae54bda4","condB","","resources/audio/wordStim/S9_AI_22_axb_Step-4.wav","49","","","","","AI","resources/audio/wordStim/S9_AI_22_axb_Step-4.wav","S9","22","axb","4","CN","0","1","false"
"null","","fixation","html-keyboard-response","193","590206","0.0-8.0-0.82","5ec896da2fdab637ae54bda4","condB","","<div class=""vertical-center"" style='width:60%;'><p style='font-weight:bold;'>Does the middle word sound more like the first word (A) or the last word (B)?</p> <br> <div class=""container""> <div id=""a-box""> <p class=""title-text"">A</h3></p> </div> <div id=""x-box""> <p class=""title-text"">X<p> </div> <div id=""b-box""> <p class=""title-text"">B</p></div> <br> <div style='float: left;padding-left:30px;'><p>Press '1' for A</p></div><div style='float: right;padding-right:30px;'><p>Press '0' for B</p> </div> </div></div>","null","","","","","","","","","","","","","",""
"4917","","test","audio-keyboard-response","194","595125","0.0-8.0-1.82","5ec896da2fdab637ae54bda4","condB","","resources/audio/wordStim/S3_AU_11_axb_Step-6.wav","48","","","","","AU","resources/audio/wordStim/S3_AU_11_axb_Step-6.wav","S3","11","axb","6","MI","0","0","true"
"null","","fixation","html-keyboard-response","195","596128","0.0-8.0-0.83","5ec896da2fdab637ae54bda4","condB","","<div class=""vertical-center"" style='width:60%;'><p style='font-weight:bold;'>Does the middle word sound more like the first word (A) or the last word (B)?</p> <br> <div class=""container""> <div id=""a-box""> <p class=""title-text"">A</h3></p> </div> <div id=""x-box""> <p class=""title-text"">X<p> </div> <div id=""b-box""> <p class=""title-text"">B</p></div> <br> <div style='float: left;padding-left:30px;'><p>Press '1' for A</p></div><div style='float: right;padding-right:30px;'><p>Press '0' for B</p> </div> </div></div>","null","","","","","","","","","","","","","",""
"4153","","test","audio-keyboard-response","196","600285","0.0-8.0-1.83","5ec896da2fdab637ae54bda4","condB","","resources/audio/wordStim/S3_AU_16_bxa_Step-7.wav","49","","","","","AU","resources/audio/wordStim/S3_AU_16_bxa_Step-7.wav","S3","16","bxa","7","MI","1","1","true"
"null","","fixation","html-keyboard-response","197","601287","0.0-8.0-0.84","5ec896da2fdab637ae54bda4","condB","","<div class=""vertical-center"" style='width:60%;'><p style='font-weight:bold;'>Does the middle word sound more like the first word (A) or the last word (B)?</p> <br> <div class=""container""> <div id=""a-box""> <p class=""title-text"">A</h3></p> </div> <div id=""x-box""> <p class=""title-text"">X<p> </div> <div id=""b-box""> <p class=""title-text"">B</p></div> <br> <div style='float: left;padding-left:30px;'><p>Press '1' for A</p></div><div style='float: right;padding-right:30px;'><p>Press '0' for B</p> </div> </div></div>","null","","","","","","","","","","","","","",""
"2696","","test","audio-keyboard-response","198","603986","0.0-8.0-1.84","5ec896da2fdab637ae54bda4","condB","","resources/audio/wordStim/S9_AU_20_bxa_Step-5.wav","49","","","","","AU","resources/audio/wordStim/S9_AU_20_bxa_Step-5.wav","S9","20","bxa","5","CN","1","1","true"
"null","","fixation","html-keyboard-response","199","604989","0.0-8.0-0.85","5ec896da2fdab637ae54bda4","condB","","<div class=""vertical-center"" style='width:60%;'><p style='font-weight:bold;'>Does the middle word sound more like the first word (A) or the last word (B)?</p> <br> <div class=""container""> <div id=""a-box""> <p class=""title-text"">A</h3></p> </div> <div id=""x-box""> <p class=""title-text"">X<p> </div> <div id=""b-box""> <p class=""title-text"">B</p></div> <br> <div style='float: left;padding-left:30px;'><p>Press '1' for A</p></div><div style='float: right;padding-right:30px;'><p>Press '0' for B</p> </div> </div></div>","null","","","","","","","","","","","","","",""
"2801","","test","audio-keyboard-response","200","607792","0.0-8.0-1.85","5ec896da2fdab637ae54bda4","condB","","resources/audio/wordStim/S9_AU_19_bxa_Step-10.wav","49","","","","","AU","resources/audio/wordStim/S9_AU_19_bxa_Step-10.wav","S9","19","bxa","10","CN","1","1","true"
"null","","fixation","html-keyboard-response","201","608794","0.0-8.0-0.86","5ec896da2fdab637ae54bda4","condB","","<div class=""vertical-center"" style='width:60%;'><p style='font-weight:bold;'>Does the middle word sound more like the first word (A) or the last word (B)?</p> <br> <div class=""container""> <div id=""a-box""> <p class=""title-text"">A</h3></p> </div> <div id=""x-box""> <p class=""title-text"">X<p> </div> <div id=""b-box""> <p class=""title-text"">B</p></div> <br> <div style='float: left;padding-left:30px;'><p>Press '1' for A</p></div><div style='float: right;padding-right:30px;'><p>Press '0' for B</p> </div> </div></div>","null","","","","","","","","","","","","","",""
"3405","","test","audio-keyboard-response","202","612199","0.0-8.0-1.86","5ec896da2fdab637ae54bda4","condB","","resources/audio/wordStim/S9_AU_19_bxa_Step-5.wav","48","","","","","AU","resources/audio/wordStim/S9_AU_19_bxa_Step-5.wav","S9","19","bxa","5","CN","1","0","false"
"null","","fixation","html-keyboard-response","203","613203","0.0-8.0-0.87","5ec896da2fdab637ae54bda4","condB","","<div class=""vertical-center"" style='width:60%;'><p style='font-weight:bold;'>Does the middle word sound more like the first word (A) or the last word (B)?</p> <br> <div class=""container""> <div id=""a-box""> <p class=""title-text"">A</h3></p> </div> <div id=""x-box""> <p class=""title-text"">X<p> </div> <div id=""b-box""> <p class=""title-text"">B</p></div> <br> <div style='float: left;padding-left:30px;'><p>Press '1' for A</p></div><div style='float: right;padding-right:30px;'><p>Press '0' for B</p> </div> </div></div>","null","","","","","","","","","","","","","",""
"2621","","test","audio-keyboard-response","204","615825","0.0-8.0-1.87","5ec896da2fdab637ae54bda4","condB","","resources/audio/wordStim/S9_AU_16_bxa_Step-7.wav","49","","","","","AU","resources/audio/wordStim/S9_AU_16_bxa_Step-7.wav","S9","16","bxa","7","CN","1","1","true"
"null","","fixation","html-keyboard-response","205","616828","0.0-8.0-0.88","5ec896da2fdab637ae54bda4","condB","","<div class=""vertical-center"" style='width:60%;'><p style='font-weight:bold;'>Does the middle word sound more like the first word (A) or the last word (B)?</p> <br> <div class=""container""> <div id=""a-box""> <p class=""title-text"">A</h3></p> </div> <div id=""x-box""> <p class=""title-text"">X<p> </div> <div id=""b-box""> <p class=""title-text"">B</p></div> <br> <div style='float: left;padding-left:30px;'><p>Press '1' for A</p></div><div style='float: right;padding-right:30px;'><p>Press '0' for B</p> </div> </div></div>","null","","","","","","","","","","","","","",""
"3765","","test","audio-keyboard-response","206","620594","0.0-8.0-1.88","5ec896da2fdab637ae54bda4","condB","","resources/audio/wordStim/S3_AI_28_bxa_Step-3.wav","49","","","","","AI","resources/audio/wordStim/S3_AI_28_bxa_Step-3.wav","S3","28","bxa","3","MI","1","1","true"
"null","","fixation","html-keyboard-response","207","621597","0.0-8.0-0.89","5ec896da2fdab637ae54bda4","condB","","<div class=""vertical-center"" style='width:60%;'><p style='font-weight:bold;'>Does the middle word sound more like the first word (A) or the last word (B)?</p> <br> <div class=""container""> <div id=""a-box""> <p class=""title-text"">A</h3></p> </div> <div id=""x-box""> <p class=""title-text"">X<p> </div> <div id=""b-box""> <p class=""title-text"">B</p></div> <br> <div style='float: left;padding-left:30px;'><p>Press '1' for A</p></div><div style='float: right;padding-right:30px;'><p>Press '0' for B</p> </div> </div></div>","null","","","","","","","","","","","","","",""
"3921","","test","audio-keyboard-response","208","625520","0.0-8.0-1.89","5ec896da2fdab637ae54bda4","condB","","resources/audio/wordStim/S3_AI_30_axb_Step-2.wav","48","","","","","AI","resources/audio/wordStim/S3_AI_30_axb_Step-2.wav","S3","30","axb","2","MI","0","0","true"
"null","","fixation","html-keyboard-response","209","626522","0.0-8.0-0.90","5ec896da2fdab637ae54bda4","condB","","<div class=""vertical-center"" style='width:60%;'><p style='font-weight:bold;'>Does the middle word sound more like the first word (A) or the last word (B)?</p> <br> <div class=""container""> <div id=""a-box""> <p class=""title-text"">A</h3></p> </div> <div id=""x-box""> <p class=""title-text"">X<p> </div> <div id=""b-box""> <p class=""title-text"">B</p></div> <br> <div style='float: left;padding-left:30px;'><p>Press '1' for A</p></div><div style='float: right;padding-right:30px;'><p>Press '0' for B</p> </div> </div></div>","null","","","","","","","","","","","","","",""
"2905","","test","audio-keyboard-response","210","629428","0.0-8.0-1.90","5ec896da2fdab637ae54bda4","condB","","resources/audio/wordStim/S3_AI_23_bxa_Step-3.wav","48","","","","","AI","resources/audio/wordStim/S3_AI_23_bxa_Step-3.wav","S3","23","bxa","3","MI","1","0","false"
"null","","fixation","html-keyboard-response","211","630431","0.0-8.0-0.91","5ec896da2fdab637ae54bda4","condB","","<div class=""vertical-center"" style='width:60%;'><p style='font-weight:bold;'>Does the middle word sound more like the first word (A) or the last word (B)?</p> <br> <div class=""container""> <div id=""a-box""> <p class=""title-text"">A</h3></p> </div> <div id=""x-box""> <p class=""title-text"">X<p> </div> <div id=""b-box""> <p class=""title-text"">B</p></div> <br> <div style='float: left;padding-left:30px;'><p>Press '1' for A</p></div><div style='float: right;padding-right:30px;'><p>Press '0' for B</p> </div> </div></div>","null","","","","","","","","","","","","","",""
"3097","","test","audio-keyboard-response","212","633531","0.0-8.0-1.91","5ec896da2fdab637ae54bda4","condB","","resources/audio/wordStim/S3_AI_30_axb_Step-6.wav","48","","","","","AI","resources/audio/wordStim/S3_AI_30_axb_Step-6.wav","S3","30","axb","6","MI","0","0","true"
"null","","fixation","html-keyboard-response","213","634533","0.0-8.0-0.92","5ec896da2fdab637ae54bda4","condB","","<div class=""vertical-center"" style='width:60%;'><p style='font-weight:bold;'>Does the middle word sound more like the first word (A) or the last word (B)?</p> <br> <div class=""container""> <div id=""a-box""> <p class=""title-text"">A</h3></p> </div> <div id=""x-box""> <p class=""title-text"">X<p> </div> <div id=""b-box""> <p class=""title-text"">B</p></div> <br> <div style='float: left;padding-left:30px;'><p>Press '1' for A</p></div><div style='float: right;padding-right:30px;'><p>Press '0' for B</p> </div> </div></div>","null","","","","","","","","","","","","","",""
"3419","","test","audio-keyboard-response","214","637953","0.0-8.0-1.92","5ec896da2fdab637ae54bda4","condB","","resources/audio/wordStim/S3_AI_23_bxa_Step-5.wav","48","","","","","AI","resources/audio/wordStim/S3_AI_23_bxa_Step-5.wav","S3","23","bxa","5","MI","1","0","false"
"null","","fixation","html-keyboard-response","215","638955","0.0-8.0-0.93","5ec896da2fdab637ae54bda4","condB","","<div class=""vertical-center"" style='width:60%;'><p style='font-weight:bold;'>Does the middle word sound more like the first word (A) or the last word (B)?</p> <br> <div class=""container""> <div id=""a-box""> <p class=""title-text"">A</h3></p> </div> <div id=""x-box""> <p class=""title-text"">X<p> </div> <div id=""b-box""> <p class=""title-text"">B</p></div> <br> <div style='float: left;padding-left:30px;'><p>Press '1' for A</p></div><div style='float: right;padding-right:30px;'><p>Press '0' for B</p> </div> </div></div>","null","","","","","","","","","","","","","",""
