"rt","url","trial_role","trial_type","trial_index","time_elapsed","internal_node_id","participantId","condition","view_history","stimulus","key_press","button_pressed","correct_answer","correct_response","success","vowel","wordStim","speaker","sentNum","order","step","speakerIdentity","raised_answer","key_response","raised_response"
"13914.37000001315","micr.con.consent.html","consent","external-html","0","14003","0.0-0.0","5edfb9d6b8a6fc2bcc55c24f","condB","","","","","","","","","","","","","","","","",""
"84277.05999999307","","instructions","instructions","1","98283","0.0-1.0","5edfb9d6b8a6fc2bcc55c24f","condB","[{""page_index"":0,""viewing_time"":17802.574999979697},{""page_index"":1,""viewing_time"":47897.475000005215},{""page_index"":2,""viewing_time"":18575.745000009192}]","","","","","","","","","","","","","","","",""
"null","","fixation","html-keyboard-response","2","98786","0.0-2.0-0.0","5edfb9d6b8a6fc2bcc55c24f","condB","","<div class=""vertical-center"" style=""font-size:60px;"">+</div>","null","","","","","","","","","","","","","",""
"32808.97000001278","","tonetest","audio-button-response","3","131602","0.0-2.0-1.0","5edfb9d6b8a6fc2bcc55c24f","condB","","../../src/audio/toneTest_5.wav","","0","0","true","","","","","","","","","","",""
"null","","fixation","html-keyboard-response","4","132105","0.0-2.0-0.1","5edfb9d6b8a6fc2bcc55c24f","condB","","<div class=""vertical-center"" style=""font-size:60px;"">+</div>","null","","","","","","","","","","","","","",""
"4981.58500000136","","tonetest","audio-button-response","5","137088","0.0-2.0-1.1","5edfb9d6b8a6fc2bcc55c24f","condB","","../../src/audio/toneTest_4.wav","","1","1","true","","","","","","","","","","",""
"null","","fixation","html-keyboard-response","6","137591","0.0-2.0-0.2","5edfb9d6b8a6fc2bcc55c24f","condB","","<div class=""vertical-center"" style=""font-size:60px;"">+</div>","null","","","","","","","","","","","","","",""
"4901.189999975031","","tonetest","audio-button-response","7","142494","0.0-2.0-1.2","5edfb9d6b8a6fc2bcc55c24f","condB","","../../src/audio/toneTest_6.wav","","0","0","true","","","","","","","","","","",""
"null","","fixation","html-keyboard-response","8","143007","0.0-2.0-0.3","5edfb9d6b8a6fc2bcc55c24f","condB","","<div class=""vertical-center"" style=""font-size:60px;"">+</div>","null","","","","","","","","","","","","","",""
"4678.340000013122","","tonetest","audio-button-response","9","147691","0.0-2.0-1.3","5edfb9d6b8a6fc2bcc55c24f","condB","","../../src/audio/toneTest_5.wav","","0","0","true","","","","","","","","","","",""
"null","","fixation","html-keyboard-response","10","148209","0.0-2.0-0.4","5edfb9d6b8a6fc2bcc55c24f","condB","","<div class=""vertical-center"" style=""font-size:60px;"">+</div>","null","","","","","","","","","","","","","",""
"4682.910000003176","","tonetest","audio-button-response","11","152898","0.0-2.0-1.4","5edfb9d6b8a6fc2bcc55c24f","condB","","../../src/audio/toneTest_3.wav","","2","2","true","","","","","","","","","","",""
"null","","fixation","html-keyboard-response","12","153401","0.0-2.0-0.5","5edfb9d6b8a6fc2bcc55c24f","condB","","<div class=""vertical-center"" style=""font-size:60px;"">+</div>","null","","","","","","","","","","","","","",""
"4531.315000000177","","tonetest","audio-button-response","13","157935","0.0-2.0-1.5","5edfb9d6b8a6fc2bcc55c24f","condB","","../../src/audio/toneTest_1.wav","","2","2","true","","","","","","","","","","",""
"4767.025000008289","","instructions","html-keyboard-response","14","162705","0.0-3.0","5edfb9d6b8a6fc2bcc55c24f","condB","","<div class=""vertical-center""><p><b>Your score was 6/6.</b></p><p>If you scored below 6, please ensure that you are wearing properly functioning headphones and in a quiet location free of distractions.</p><p><i>To continue to the main experiment, press SPACE.</i></p></div>","32","","","","","","","","","","","","","",""
"","","","fullscreen","15","167414","0.0-4.0","5edfb9d6b8a6fc2bcc55c24f","condB","","","","","","","true","","","","","","","","","",""
"38894.76999998442","","instructions","instructions","16","206312","0.0-5.0","5edfb9d6b8a6fc2bcc55c24f","condB","[{""page_index"":0,""viewing_time"":38894.369999994524}]","","","","","","","","","","","","","","","",""
"null","","fixation","html-keyboard-response","17","206814","0.0-6.0-0.0","5edfb9d6b8a6fc2bcc55c24f","condB","","<div class=""vertical-center"" style='width:60%;'><p style='font-weight:bold;'>Does the middle word sound more like the first word (A) or the last word (B)?</p> <br> <div class=""container""> <div id=""a-box""> <p class=""title-text"">A</h3></p> </div> <div id=""x-box""> <p class=""title-text"">X<p> </div> <div id=""b-box""> <p class=""title-text"">B</p></div> <br> <div style='float: left;padding-left:30px;'><p>Press '1' for A</p></div><div style='float: right;padding-right:30px;'><p>Press '0' for B</p> </div> </div></div>","null","","","","","","","","","","","","","",""
"11610","","practice","audio-keyboard-response","18","218460","0.0-6.0-1.0","5edfb9d6b8a6fc2bcc55c24f","condB","","resources/audio/practiceStim/S1_AU_14_bxa_Step-6.wav","48","","","","","","","","","","","","","",""
"null","","fixation","html-keyboard-response","19","219486","0.0-6.0-0.1","5edfb9d6b8a6fc2bcc55c24f","condB","","<div class=""vertical-center"" style='width:60%;'><p style='font-weight:bold;'>Does the middle word sound more like the first word (A) or the last word (B)?</p> <br> <div class=""container""> <div id=""a-box""> <p class=""title-text"">A</h3></p> </div> <div id=""x-box""> <p class=""title-text"">X<p> </div> <div id=""b-box""> <p class=""title-text"">B</p></div> <br> <div style='float: left;padding-left:30px;'><p>Press '1' for A</p></div><div style='float: right;padding-right:30px;'><p>Press '0' for B</p> </div> </div></div>","null","","","","","","","","","","","","","",""
"5059","","practice","audio-keyboard-response","20","224551","0.0-6.0-1.1","5edfb9d6b8a6fc2bcc55c24f","condB","","resources/audio/practiceStim/S1_AU_14_axb_Step-6.wav","49","","","","","","","","","","","","","",""
"null","","fixation","html-keyboard-response","21","225573","0.0-6.0-0.2","5edfb9d6b8a6fc2bcc55c24f","condB","","<div class=""vertical-center"" style='width:60%;'><p style='font-weight:bold;'>Does the middle word sound more like the first word (A) or the last word (B)?</p> <br> <div class=""container""> <div id=""a-box""> <p class=""title-text"">A</h3></p> </div> <div id=""x-box""> <p class=""title-text"">X<p> </div> <div id=""b-box""> <p class=""title-text"">B</p></div> <br> <div style='float: left;padding-left:30px;'><p>Press '1' for A</p></div><div style='float: right;padding-right:30px;'><p>Press '0' for B</p> </div> </div></div>","null","","","","","","","","","","","","","",""
"3680","","practice","audio-keyboard-response","22","229255","0.0-6.0-1.2","5edfb9d6b8a6fc2bcc55c24f","condB","","resources/audio/practiceStim/S1_AI_21_axb_Step-6.wav","49","","","","","","","","","","","","","",""
"null","","fixation","html-keyboard-response","23","230282","0.0-6.0-0.3","5edfb9d6b8a6fc2bcc55c24f","condB","","<div class=""vertical-center"" style='width:60%;'><p style='font-weight:bold;'>Does the middle word sound more like the first word (A) or the last word (B)?</p> <br> <div class=""container""> <div id=""a-box""> <p class=""title-text"">A</h3></p> </div> <div id=""x-box""> <p class=""title-text"">X<p> </div> <div id=""b-box""> <p class=""title-text"">B</p></div> <br> <div style='float: left;padding-left:30px;'><p>Press '1' for A</p></div><div style='float: right;padding-right:30px;'><p>Press '0' for B</p> </div> </div></div>","null","","","","","","","","","","","","","",""
"8118","","practice","audio-keyboard-response","24","238404","0.0-6.0-1.3","5edfb9d6b8a6fc2bcc55c24f","condB","","resources/audio/practiceStim/S1_AI_21_bxa_Step-6.wav","49","","","","","","","","","","","","","",""
"3323.680000001332","","instructions","instructions","25","242240","0.0-7.0","5edfb9d6b8a6fc2bcc55c24f","condB","[{""page_index"":0,""viewing_time"":3322.149999992689}]","","","","","","","","","","","","","","","",""
"null","","fixation","html-keyboard-response","26","242758","0.0-8.0-0.0","5edfb9d6b8a6fc2bcc55c24f","condB","","<div class=""vertical-center"" style='width:60%;'><p style='font-weight:bold;'>Does the middle word sound more like the first word (A) or the last word (B)?</p> <br> <div class=""container""> <div id=""a-box""> <p class=""title-text"">A</h3></p> </div> <div id=""x-box""> <p class=""title-text"">X<p> </div> <div id=""b-box""> <p class=""title-text"">B</p></div> <br> <div style='float: left;padding-left:30px;'><p>Press '1' for A</p></div><div style='float: right;padding-right:30px;'><p>Press '0' for B</p> </div> </div></div>","null","","","","","","","","","","","","","",""
"4000","","test","audio-keyboard-response","27","246766","0.0-8.0-1.0","5edfb9d6b8a6fc2bcc55c24f","condB","","resources/audio/wordStim/S3_AI_23_bxa_Step-7.wav","49","","","","","AI","resources/audio/wordStim/S3_AI_23_bxa_Step-7.wav","S3","23","bxa","7","MI","1","1","true"
"null","","fixation","html-keyboard-response","28","247784","0.0-8.0-0.1","5edfb9d6b8a6fc2bcc55c24f","condB","","<div class=""vertical-center"" style='width:60%;'><p style='font-weight:bold;'>Does the middle word sound more like the first word (A) or the last word (B)?</p> <br> <div class=""container""> <div id=""a-box""> <p class=""title-text"">A</h3></p> </div> <div id=""x-box""> <p class=""title-text"">X<p> </div> <div id=""b-box""> <p class=""title-text"">B</p></div> <br> <div style='float: left;padding-left:30px;'><p>Press '1' for A</p></div><div style='float: right;padding-right:30px;'><p>Press '0' for B</p> </div> </div></div>","null","","","","","","","","","","","","","",""
"27281","","test","audio-keyboard-response","29","275068","0.0-8.0-1.1","5edfb9d6b8a6fc2bcc55c24f","condB","","resources/audio/wordStim/S3_AU_15_bxa_Step-5.wav","49","","","","","AU","resources/audio/wordStim/S3_AU_15_bxa_Step-5.wav","S3","15","bxa","5","MI","1","1","true"
"null","","fixation","html-keyboard-response","30","276083","0.0-8.0-0.2","5edfb9d6b8a6fc2bcc55c24f","condB","","<div class=""vertical-center"" style='width:60%;'><p style='font-weight:bold;'>Does the middle word sound more like the first word (A) or the last word (B)?</p> <br> <div class=""container""> <div id=""a-box""> <p class=""title-text"">A</h3></p> </div> <div id=""x-box""> <p class=""title-text"">X<p> </div> <div id=""b-box""> <p class=""title-text"">B</p></div> <br> <div style='float: left;padding-left:30px;'><p>Press '1' for A</p></div><div style='float: right;padding-right:30px;'><p>Press '0' for B</p> </div> </div></div>","null","","","","","","","","","","","","","",""
"21000","","test","audio-keyboard-response","31","297085","0.0-8.0-1.2","5edfb9d6b8a6fc2bcc55c24f","condB","","resources/audio/wordStim/S3_AI_28_axb_Step-6.wav","49","","","","","AI","resources/audio/wordStim/S3_AI_28_axb_Step-6.wav","S3","28","axb","6","MI","0","1","false"
"null","","fixation","html-keyboard-response","32","298102","0.0-8.0-0.3","5edfb9d6b8a6fc2bcc55c24f","condB","","<div class=""vertical-center"" style='width:60%;'><p style='font-weight:bold;'>Does the middle word sound more like the first word (A) or the last word (B)?</p> <br> <div class=""container""> <div id=""a-box""> <p class=""title-text"">A</h3></p> </div> <div id=""x-box""> <p class=""title-text"">X<p> </div> <div id=""b-box""> <p class=""title-text"">B</p></div> <br> <div style='float: left;padding-left:30px;'><p>Press '1' for A</p></div><div style='float: right;padding-right:30px;'><p>Press '0' for B</p> </div> </div></div>","null","","","","","","","","","","","","","",""
"3918","","test","audio-keyboard-response","33","302025","0.0-8.0-1.3","5edfb9d6b8a6fc2bcc55c24f","condB","","resources/audio/wordStim/S9_AI_22_bxa_Step-3.wav","48","","","","","AI","resources/audio/wordStim/S9_AI_22_bxa_Step-3.wav","S9","22","bxa","3","CN","1","0","false"
"null","","fixation","html-keyboard-response","34","303036","0.0-8.0-0.4","5edfb9d6b8a6fc2bcc55c24f","condB","","<div class=""vertical-center"" style='width:60%;'><p style='font-weight:bold;'>Does the middle word sound more like the first word (A) or the last word (B)?</p> <br> <div class=""container""> <div id=""a-box""> <p class=""title-text"">A</h3></p> </div> <div id=""x-box""> <p class=""title-text"">X<p> </div> <div id=""b-box""> <p class=""title-text"">B</p></div> <br> <div style='float: left;padding-left:30px;'><p>Press '1' for A</p></div><div style='float: right;padding-right:30px;'><p>Press '0' for B</p> </div> </div></div>","null","","","","","","","","","","","","","",""
"3439","","test","audio-keyboard-response","35","306486","0.0-8.0-1.4","5edfb9d6b8a6fc2bcc55c24f","condB","","resources/audio/wordStim/S9_AI_24_axb_Step-8.wav","49","","","","","AI","resources/audio/wordStim/S9_AI_24_axb_Step-8.wav","S9","24","axb","8","CN","0","1","false"
"null","","fixation","html-keyboard-response","36","307505","0.0-8.0-0.5","5edfb9d6b8a6fc2bcc55c24f","condB","","<div class=""vertical-center"" style='width:60%;'><p style='font-weight:bold;'>Does the middle word sound more like the first word (A) or the last word (B)?</p> <br> <div class=""container""> <div id=""a-box""> <p class=""title-text"">A</h3></p> </div> <div id=""x-box""> <p class=""title-text"">X<p> </div> <div id=""b-box""> <p class=""title-text"">B</p></div> <br> <div style='float: left;padding-left:30px;'><p>Press '1' for A</p></div><div style='float: right;padding-right:30px;'><p>Press '0' for B</p> </div> </div></div>","null","","","","","","","","","","","","","",""
"3309","","test","audio-keyboard-response","37","310829","0.0-8.0-1.5","5edfb9d6b8a6fc2bcc55c24f","condB","","resources/audio/wordStim/S9_AU_17_bxa_Step-10.wav","49","","","","","AU","resources/audio/wordStim/S9_AU_17_bxa_Step-10.wav","S9","17","bxa","10","CN","1","1","true"
"null","","fixation","html-keyboard-response","38","311851","0.0-8.0-0.6","5edfb9d6b8a6fc2bcc55c24f","condB","","<div class=""vertical-center"" style='width:60%;'><p style='font-weight:bold;'>Does the middle word sound more like the first word (A) or the last word (B)?</p> <br> <div class=""container""> <div id=""a-box""> <p class=""title-text"">A</h3></p> </div> <div id=""x-box""> <p class=""title-text"">X<p> </div> <div id=""b-box""> <p class=""title-text"">B</p></div> <br> <div style='float: left;padding-left:30px;'><p>Press '1' for A</p></div><div style='float: right;padding-right:30px;'><p>Press '0' for B</p> </div> </div></div>","null","","","","","","","","","","","","","",""
"3799","","test","audio-keyboard-response","39","315656","0.0-8.0-1.6","5edfb9d6b8a6fc2bcc55c24f","condB","","resources/audio/wordStim/S3_AU_17_bxa_Step-5.wav","48","","","","","AU","resources/audio/wordStim/S3_AU_17_bxa_Step-5.wav","S3","17","bxa","5","MI","1","0","false"
"null","","fixation","html-keyboard-response","40","316679","0.0-8.0-0.7","5edfb9d6b8a6fc2bcc55c24f","condB","","<div class=""vertical-center"" style='width:60%;'><p style='font-weight:bold;'>Does the middle word sound more like the first word (A) or the last word (B)?</p> <br> <div class=""container""> <div id=""a-box""> <p class=""title-text"">A</h3></p> </div> <div id=""x-box""> <p class=""title-text"">X<p> </div> <div id=""b-box""> <p class=""title-text"">B</p></div> <br> <div style='float: left;padding-left:30px;'><p>Press '1' for A</p></div><div style='float: right;padding-right:30px;'><p>Press '0' for B</p> </div> </div></div>","null","","","","","","","","","","","","","",""
"3152","","test","audio-keyboard-response","41","319838","0.0-8.0-1.7","5edfb9d6b8a6fc2bcc55c24f","condB","","resources/audio/wordStim/S3_AI_28_bxa_Step-10.wav","49","","","","","AI","resources/audio/wordStim/S3_AI_28_bxa_Step-10.wav","S3","28","bxa","10","MI","1","1","true"
"null","","fixation","html-keyboard-response","42","320879","0.0-8.0-0.8","5edfb9d6b8a6fc2bcc55c24f","condB","","<div class=""vertical-center"" style='width:60%;'><p style='font-weight:bold;'>Does the middle word sound more like the first word (A) or the last word (B)?</p> <br> <div class=""container""> <div id=""a-box""> <p class=""title-text"">A</h3></p> </div> <div id=""x-box""> <p class=""title-text"">X<p> </div> <div id=""b-box""> <p class=""title-text"">B</p></div> <br> <div style='float: left;padding-left:30px;'><p>Press '1' for A</p></div><div style='float: right;padding-right:30px;'><p>Press '0' for B</p> </div> </div></div>","null","","","","","","","","","","","","","",""
"3381","","test","audio-keyboard-response","43","324260","0.0-8.0-1.8","5edfb9d6b8a6fc2bcc55c24f","condB","","resources/audio/wordStim/S9_AI_25_bxa_Step-3.wav","49","","","","","AI","resources/audio/wordStim/S9_AI_25_bxa_Step-3.wav","S9","25","bxa","3","CN","1","1","true"
"null","","fixation","html-keyboard-response","44","325282","0.0-8.0-0.9","5edfb9d6b8a6fc2bcc55c24f","condB","","<div class=""vertical-center"" style='width:60%;'><p style='font-weight:bold;'>Does the middle word sound more like the first word (A) or the last word (B)?</p> <br> <div class=""container""> <div id=""a-box""> <p class=""title-text"">A</h3></p> </div> <div id=""x-box""> <p class=""title-text"">X<p> </div> <div id=""b-box""> <p class=""title-text"">B</p></div> <br> <div style='float: left;padding-left:30px;'><p>Press '1' for A</p></div><div style='float: right;padding-right:30px;'><p>Press '0' for B</p> </div> </div></div>","null","","","","","","","","","","","","","",""
"3799","","test","audio-keyboard-response","45","329083","0.0-8.0-1.9","5edfb9d6b8a6fc2bcc55c24f","condB","","resources/audio/wordStim/S3_AI_28_bxa_Step-3.wav","49","","","","","AI","resources/audio/wordStim/S3_AI_28_bxa_Step-3.wav","S3","28","bxa","3","MI","1","1","true"
"null","","fixation","html-keyboard-response","46","330088","0.0-8.0-0.10","5edfb9d6b8a6fc2bcc55c24f","condB","","<div class=""vertical-center"" style='width:60%;'><p style='font-weight:bold;'>Does the middle word sound more like the first word (A) or the last word (B)?</p> <br> <div class=""container""> <div id=""a-box""> <p class=""title-text"">A</h3></p> </div> <div id=""x-box""> <p class=""title-text"">X<p> </div> <div id=""b-box""> <p class=""title-text"">B</p></div> <br> <div style='float: left;padding-left:30px;'><p>Press '1' for A</p></div><div style='float: right;padding-right:30px;'><p>Press '0' for B</p> </div> </div></div>","null","","","","","","","","","","","","","",""
"3230","","test","audio-keyboard-response","47","333324","0.0-8.0-1.10","5edfb9d6b8a6fc2bcc55c24f","condB","","resources/audio/wordStim/S9_AI_24_bxa_Step-9.wav","49","","","","","AI","resources/audio/wordStim/S9_AI_24_bxa_Step-9.wav","S9","24","bxa","9","CN","1","1","true"
"null","","fixation","html-keyboard-response","48","334350","0.0-8.0-0.11","5edfb9d6b8a6fc2bcc55c24f","condB","","<div class=""vertical-center"" style='width:60%;'><p style='font-weight:bold;'>Does the middle word sound more like the first word (A) or the last word (B)?</p> <br> <div class=""container""> <div id=""a-box""> <p class=""title-text"">A</h3></p> </div> <div id=""x-box""> <p class=""title-text"">X<p> </div> <div id=""b-box""> <p class=""title-text"">B</p></div> <br> <div style='float: left;padding-left:30px;'><p>Press '1' for A</p></div><div style='float: right;padding-right:30px;'><p>Press '0' for B</p> </div> </div></div>","null","","","","","","","","","","","","","",""
"3149","","test","audio-keyboard-response","49","337502","0.0-8.0-1.11","5edfb9d6b8a6fc2bcc55c24f","condB","","resources/audio/wordStim/S3_AI_28_axb_Step-4.wav","49","","","","","AI","resources/audio/wordStim/S3_AI_28_axb_Step-4.wav","S3","28","axb","4","MI","0","1","false"
"null","","fixation","html-keyboard-response","50","338529","0.0-8.0-0.12","5edfb9d6b8a6fc2bcc55c24f","condB","","<div class=""vertical-center"" style='width:60%;'><p style='font-weight:bold;'>Does the middle word sound more like the first word (A) or the last word (B)?</p> <br> <div class=""container""> <div id=""a-box""> <p class=""title-text"">A</h3></p> </div> <div id=""x-box""> <p class=""title-text"">X<p> </div> <div id=""b-box""> <p class=""title-text"">B</p></div> <br> <div style='float: left;padding-left:30px;'><p>Press '1' for A</p></div><div style='float: right;padding-right:30px;'><p>Press '0' for B</p> </div> </div></div>","null","","","","","","","","","","","","","",""
"3071","","test","audio-keyboard-response","51","341603","0.0-8.0-1.12","5edfb9d6b8a6fc2bcc55c24f","condB","","resources/audio/wordStim/S9_AU_19_axb_Step-8.wav","48","","","","","AU","resources/audio/wordStim/S9_AU_19_axb_Step-8.wav","S9","19","axb","8","CN","0","0","true"
"null","","fixation","html-keyboard-response","52","342629","0.0-8.0-0.13","5edfb9d6b8a6fc2bcc55c24f","condB","","<div class=""vertical-center"" style='width:60%;'><p style='font-weight:bold;'>Does the middle word sound more like the first word (A) or the last word (B)?</p> <br> <div class=""container""> <div id=""a-box""> <p class=""title-text"">A</h3></p> </div> <div id=""x-box""> <p class=""title-text"">X<p> </div> <div id=""b-box""> <p class=""title-text"">B</p></div> <br> <div style='float: left;padding-left:30px;'><p>Press '1' for A</p></div><div style='float: right;padding-right:30px;'><p>Press '0' for B</p> </div> </div></div>","null","","","","","","","","","","","","","",""
"3500","","test","audio-keyboard-response","53","346134","0.0-8.0-1.13","5edfb9d6b8a6fc2bcc55c24f","condB","","resources/audio/wordStim/S9_AI_24_axb_Step-4.wav","49","","","","","AI","resources/audio/wordStim/S9_AI_24_axb_Step-4.wav","S9","24","axb","4","CN","0","1","false"
"null","","fixation","html-keyboard-response","54","347148","0.0-8.0-0.14","5edfb9d6b8a6fc2bcc55c24f","condB","","<div class=""vertical-center"" style='width:60%;'><p style='font-weight:bold;'>Does the middle word sound more like the first word (A) or the last word (B)?</p> <br> <div class=""container""> <div id=""a-box""> <p class=""title-text"">A</h3></p> </div> <div id=""x-box""> <p class=""title-text"">X<p> </div> <div id=""b-box""> <p class=""title-text"">B</p></div> <br> <div style='float: left;padding-left:30px;'><p>Press '1' for A</p></div><div style='float: right;padding-right:30px;'><p>Press '0' for B</p> </div> </div></div>","null","","","","","","","","","","","","","",""
"3091","","test","audio-keyboard-response","55","350246","0.0-8.0-1.14","5edfb9d6b8a6fc2bcc55c24f","condB","","resources/audio/wordStim/S3_AU_14_axb_Step-2.wav","49","","","","","AU","resources/audio/wordStim/S3_AU_14_axb_Step-2.wav","S3","14","axb","2","MI","0","1","false"
"null","","fixation","html-keyboard-response","56","351270","0.0-8.0-0.15","5edfb9d6b8a6fc2bcc55c24f","condB","","<div class=""vertical-center"" style='width:60%;'><p style='font-weight:bold;'>Does the middle word sound more like the first word (A) or the last word (B)?</p> <br> <div class=""container""> <div id=""a-box""> <p class=""title-text"">A</h3></p> </div> <div id=""x-box""> <p class=""title-text"">X<p> </div> <div id=""b-box""> <p class=""title-text"">B</p></div> <br> <div style='float: left;padding-left:30px;'><p>Press '1' for A</p></div><div style='float: right;padding-right:30px;'><p>Press '0' for B</p> </div> </div></div>","null","","","","","","","","","","","","","",""
"4229","","test","audio-keyboard-response","57","355502","0.0-8.0-1.15","5edfb9d6b8a6fc2bcc55c24f","condB","","resources/audio/wordStim/S9_AU_17_axb_Step-8.wav","49","","","","","AU","resources/audio/wordStim/S9_AU_17_axb_Step-8.wav","S9","17","axb","8","CN","0","1","false"
"null","","fixation","html-keyboard-response","58","356527","0.0-8.0-0.16","5edfb9d6b8a6fc2bcc55c24f","condB","","<div class=""vertical-center"" style='width:60%;'><p style='font-weight:bold;'>Does the middle word sound more like the first word (A) or the last word (B)?</p> <br> <div class=""container""> <div id=""a-box""> <p class=""title-text"">A</h3></p> </div> <div id=""x-box""> <p class=""title-text"">X<p> </div> <div id=""b-box""> <p class=""title-text"">B</p></div> <br> <div style='float: left;padding-left:30px;'><p>Press '1' for A</p></div><div style='float: right;padding-right:30px;'><p>Press '0' for B</p> </div> </div></div>","null","","","","","","","","","","","","","",""
"3370","","test","audio-keyboard-response","59","359905","0.0-8.0-1.16","5edfb9d6b8a6fc2bcc55c24f","condB","","resources/audio/wordStim/S9_AU_19_axb_Step-2.wav","49","","","","","AU","resources/audio/wordStim/S9_AU_19_axb_Step-2.wav","S9","19","axb","2","CN","0","1","false"
"null","","fixation","html-keyboard-response","60","360929","0.0-8.0-0.17","5edfb9d6b8a6fc2bcc55c24f","condB","","<div class=""vertical-center"" style='width:60%;'><p style='font-weight:bold;'>Does the middle word sound more like the first word (A) or the last word (B)?</p> <br> <div class=""container""> <div id=""a-box""> <p class=""title-text"">A</h3></p> </div> <div id=""x-box""> <p class=""title-text"">X<p> </div> <div id=""b-box""> <p class=""title-text"">B</p></div> <br> <div style='float: left;padding-left:30px;'><p>Press '1' for A</p></div><div style='float: right;padding-right:30px;'><p>Press '0' for B</p> </div> </div></div>","null","","","","","","","","","","","","","",""
"3341","","test","audio-keyboard-response","61","364277","0.0-8.0-1.17","5edfb9d6b8a6fc2bcc55c24f","condB","","resources/audio/wordStim/S3_AU_19_bxa_Step-5.wav","49","","","","","AU","resources/audio/wordStim/S3_AU_19_bxa_Step-5.wav","S3","19","bxa","5","MI","1","1","true"
"null","","fixation","html-keyboard-response","62","365290","0.0-8.0-0.18","5edfb9d6b8a6fc2bcc55c24f","condB","","<div class=""vertical-center"" style='width:60%;'><p style='font-weight:bold;'>Does the middle word sound more like the first word (A) or the last word (B)?</p> <br> <div class=""container""> <div id=""a-box""> <p class=""title-text"">A</h3></p> </div> <div id=""x-box""> <p class=""title-text"">X<p> </div> <div id=""b-box""> <p class=""title-text"">B</p></div> <br> <div style='float: left;padding-left:30px;'><p>Press '1' for A</p></div><div style='float: right;padding-right:30px;'><p>Press '0' for B</p> </div> </div></div>","null","","","","","","","","","","","","","",""
"3230","","test","audio-keyboard-response","63","368527","0.0-8.0-1.18","5edfb9d6b8a6fc2bcc55c24f","condB","","resources/audio/wordStim/S9_AU_13_bxa_Step-7.wav","49","","","","","AU","resources/audio/wordStim/S9_AU_13_bxa_Step-7.wav","S9","13","bxa","7","CN","1","1","true"
"null","","fixation","html-keyboard-response","64","369549","0.0-8.0-0.19","5edfb9d6b8a6fc2bcc55c24f","condB","","<div class=""vertical-center"" style='width:60%;'><p style='font-weight:bold;'>Does the middle word sound more like the first word (A) or the last word (B)?</p> <br> <div class=""container""> <div id=""a-box""> <p class=""title-text"">A</h3></p> </div> <div id=""x-box""> <p class=""title-text"">X<p> </div> <div id=""b-box""> <p class=""title-text"">B</p></div> <br> <div style='float: left;padding-left:30px;'><p>Press '1' for A</p></div><div style='float: right;padding-right:30px;'><p>Press '0' for B</p> </div> </div></div>","null","","","","","","","","","","","","","",""
"3228","","test","audio-keyboard-response","65","372789","0.0-8.0-1.19","5edfb9d6b8a6fc2bcc55c24f","condB","","resources/audio/wordStim/S9_AI_22_bxa_Step-5.wav","48","","","","","AI","resources/audio/wordStim/S9_AI_22_bxa_Step-5.wav","S9","22","bxa","5","CN","1","0","false"
"null","","fixation","html-keyboard-response","66","373806","0.0-8.0-0.20","5edfb9d6b8a6fc2bcc55c24f","condB","","<div class=""vertical-center"" style='width:60%;'><p style='font-weight:bold;'>Does the middle word sound more like the first word (A) or the last word (B)?</p> <br> <div class=""container""> <div id=""a-box""> <p class=""title-text"">A</h3></p> </div> <div id=""x-box""> <p class=""title-text"">X<p> </div> <div id=""b-box""> <p class=""title-text"">B</p></div> <br> <div style='float: left;padding-left:30px;'><p>Press '1' for A</p></div><div style='float: right;padding-right:30px;'><p>Press '0' for B</p> </div> </div></div>","null","","","","","","","","","","","","","",""
"2810","","test","audio-keyboard-response","67","376624","0.0-8.0-1.20","5edfb9d6b8a6fc2bcc55c24f","condB","","resources/audio/wordStim/S3_AI_25_axb_Step-4.wav","49","","","","","AI","resources/audio/wordStim/S3_AI_25_axb_Step-4.wav","S3","25","axb","4","MI","0","1","false"
"null","","fixation","html-keyboard-response","68","377640","0.0-8.0-0.21","5edfb9d6b8a6fc2bcc55c24f","condB","","<div class=""vertical-center"" style='width:60%;'><p style='font-weight:bold;'>Does the middle word sound more like the first word (A) or the last word (B)?</p> <br> <div class=""container""> <div id=""a-box""> <p class=""title-text"">A</h3></p> </div> <div id=""x-box""> <p class=""title-text"">X<p> </div> <div id=""b-box""> <p class=""title-text"">B</p></div> <br> <div style='float: left;padding-left:30px;'><p>Press '1' for A</p></div><div style='float: right;padding-right:30px;'><p>Press '0' for B</p> </div> </div></div>","null","","","","","","","","","","","","","",""
"2949","","test","audio-keyboard-response","69","380593","0.0-8.0-1.21","5edfb9d6b8a6fc2bcc55c24f","condB","","resources/audio/wordStim/S9_AI_27_axb_Step-6.wav","48","","","","","AI","resources/audio/wordStim/S9_AI_27_axb_Step-6.wav","S9","27","axb","6","CN","0","0","true"
"null","","fixation","html-keyboard-response","70","381629","0.0-8.0-0.22","5edfb9d6b8a6fc2bcc55c24f","condB","","<div class=""vertical-center"" style='width:60%;'><p style='font-weight:bold;'>Does the middle word sound more like the first word (A) or the last word (B)?</p> <br> <div class=""container""> <div id=""a-box""> <p class=""title-text"">A</h3></p> </div> <div id=""x-box""> <p class=""title-text"">X<p> </div> <div id=""b-box""> <p class=""title-text"">B</p></div> <br> <div style='float: left;padding-left:30px;'><p>Press '1' for A</p></div><div style='float: right;padding-right:30px;'><p>Press '0' for B</p> </div> </div></div>","null","","","","","","","","","","","","","",""
"2519","","test","audio-keyboard-response","71","384150","0.0-8.0-1.22","5edfb9d6b8a6fc2bcc55c24f","condB","","resources/audio/wordStim/S9_AU_16_axb_Step-8.wav","48","","","","","AU","resources/audio/wordStim/S9_AU_16_axb_Step-8.wav","S9","16","axb","8","CN","0","0","true"
"null","","fixation","html-keyboard-response","72","385174","0.0-8.0-0.23","5edfb9d6b8a6fc2bcc55c24f","condB","","<div class=""vertical-center"" style='width:60%;'><p style='font-weight:bold;'>Does the middle word sound more like the first word (A) or the last word (B)?</p> <br> <div class=""container""> <div id=""a-box""> <p class=""title-text"">A</h3></p> </div> <div id=""x-box""> <p class=""title-text"">X<p> </div> <div id=""b-box""> <p class=""title-text"">B</p></div> <br> <div style='float: left;padding-left:30px;'><p>Press '1' for A</p></div><div style='float: right;padding-right:30px;'><p>Press '0' for B</p> </div> </div></div>","null","","","","","","","","","","","","","",""
"3811","","test","audio-keyboard-response","73","388982","0.0-8.0-1.23","5edfb9d6b8a6fc2bcc55c24f","condB","","resources/audio/wordStim/S9_AI_22_axb_Step-6.wav","49","","","","","AI","resources/audio/wordStim/S9_AI_22_axb_Step-6.wav","S9","22","axb","6","CN","0","1","false"
"null","","fixation","html-keyboard-response","74","389995","0.0-8.0-0.24","5edfb9d6b8a6fc2bcc55c24f","condB","","<div class=""vertical-center"" style='width:60%;'><p style='font-weight:bold;'>Does the middle word sound more like the first word (A) or the last word (B)?</p> <br> <div class=""container""> <div id=""a-box""> <p class=""title-text"">A</h3></p> </div> <div id=""x-box""> <p class=""title-text"">X<p> </div> <div id=""b-box""> <p class=""title-text"">B</p></div> <br> <div style='float: left;padding-left:30px;'><p>Press '1' for A</p></div><div style='float: right;padding-right:30px;'><p>Press '0' for B</p> </div> </div></div>","null","","","","","","","","","","","","","",""
"2940","","test","audio-keyboard-response","75","392937","0.0-8.0-1.24","5edfb9d6b8a6fc2bcc55c24f","condB","","resources/audio/wordStim/S3_AU_14_bxa_Step-3.wav","49","","","","","AU","resources/audio/wordStim/S3_AU_14_bxa_Step-3.wav","S3","14","bxa","3","MI","1","1","true"
"null","","fixation","html-keyboard-response","76","393953","0.0-8.0-0.25","5edfb9d6b8a6fc2bcc55c24f","condB","","<div class=""vertical-center"" style='width:60%;'><p style='font-weight:bold;'>Does the middle word sound more like the first word (A) or the last word (B)?</p> <br> <div class=""container""> <div id=""a-box""> <p class=""title-text"">A</h3></p> </div> <div id=""x-box""> <p class=""title-text"">X<p> </div> <div id=""b-box""> <p class=""title-text"">B</p></div> <br> <div style='float: left;padding-left:30px;'><p>Press '1' for A</p></div><div style='float: right;padding-right:30px;'><p>Press '0' for B</p> </div> </div></div>","null","","","","","","","","","","","","","",""
"3332","","test","audio-keyboard-response","77","397282","0.0-8.0-1.25","5edfb9d6b8a6fc2bcc55c24f","condB","","resources/audio/wordStim/S3_AI_30_axb_Step-2.wav","49","","","","","AI","resources/audio/wordStim/S3_AI_30_axb_Step-2.wav","S3","30","axb","2","MI","0","1","false"
"null","","fixation","html-keyboard-response","78","398301","0.0-8.0-0.26","5edfb9d6b8a6fc2bcc55c24f","condB","","<div class=""vertical-center"" style='width:60%;'><p style='font-weight:bold;'>Does the middle word sound more like the first word (A) or the last word (B)?</p> <br> <div class=""container""> <div id=""a-box""> <p class=""title-text"">A</h3></p> </div> <div id=""x-box""> <p class=""title-text"">X<p> </div> <div id=""b-box""> <p class=""title-text"">B</p></div> <br> <div style='float: left;padding-left:30px;'><p>Press '1' for A</p></div><div style='float: right;padding-right:30px;'><p>Press '0' for B</p> </div> </div></div>","null","","","","","","","","","","","","","",""
"3419","","test","audio-keyboard-response","79","401721","0.0-8.0-1.26","5edfb9d6b8a6fc2bcc55c24f","condB","","resources/audio/wordStim/S3_AI_22_bxa_Step-3.wav","48","","","","","AI","resources/audio/wordStim/S3_AI_22_bxa_Step-3.wav","S3","22","bxa","3","MI","1","0","false"
"1305.850000004284","","break","html-keyboard-response","80","403546","0.0-8.0-2.26-0.26","5edfb9d6b8a6fc2bcc55c24f","condB","","<div class=""vertical-center""><p>Feel free to take a break!</p><i>When you're ready to continue, press SPACE to begin the next trial.</i></p></div>","32","","","","","","","","","","","","","",""
"null","","fixation","html-keyboard-response","81","404050","0.0-8.0-0.27","5edfb9d6b8a6fc2bcc55c24f","condB","","<div class=""vertical-center"" style='width:60%;'><p style='font-weight:bold;'>Does the middle word sound more like the first word (A) or the last word (B)?</p> <br> <div class=""container""> <div id=""a-box""> <p class=""title-text"">A</h3></p> </div> <div id=""x-box""> <p class=""title-text"">X<p> </div> <div id=""b-box""> <p class=""title-text"">B</p></div> <br> <div style='float: left;padding-left:30px;'><p>Press '1' for A</p></div><div style='float: right;padding-right:30px;'><p>Press '0' for B</p> </div> </div></div>","null","","","","","","","","","","","","","",""
"2479","","test","audio-keyboard-response","82","406537","0.0-8.0-1.27","5edfb9d6b8a6fc2bcc55c24f","condB","","resources/audio/wordStim/S3_AI_21_axb_Step-6.wav","49","","","","","AI","resources/audio/wordStim/S3_AI_21_axb_Step-6.wav","S3","21","axb","6","MI","0","1","false"
"null","","fixation","html-keyboard-response","83","407562","0.0-8.0-0.28","5edfb9d6b8a6fc2bcc55c24f","condB","","<div class=""vertical-center"" style='width:60%;'><p style='font-weight:bold;'>Does the middle word sound more like the first word (A) or the last word (B)?</p> <br> <div class=""container""> <div id=""a-box""> <p class=""title-text"">A</h3></p> </div> <div id=""x-box""> <p class=""title-text"">X<p> </div> <div id=""b-box""> <p class=""title-text"">B</p></div> <br> <div style='float: left;padding-left:30px;'><p>Press '1' for A</p></div><div style='float: right;padding-right:30px;'><p>Press '0' for B</p> </div> </div></div>","null","","","","","","","","","","","","","",""
"3570","","test","audio-keyboard-response","84","411137","0.0-8.0-1.28","5edfb9d6b8a6fc2bcc55c24f","condB","","resources/audio/wordStim/S9_AI_22_axb_Step-4.wav","49","","","","","AI","resources/audio/wordStim/S9_AI_22_axb_Step-4.wav","S9","22","axb","4","CN","0","1","false"
"null","","fixation","html-keyboard-response","85","412173","0.0-8.0-0.29","5edfb9d6b8a6fc2bcc55c24f","condB","","<div class=""vertical-center"" style='width:60%;'><p style='font-weight:bold;'>Does the middle word sound more like the first word (A) or the last word (B)?</p> <br> <div class=""container""> <div id=""a-box""> <p class=""title-text"">A</h3></p> </div> <div id=""x-box""> <p class=""title-text"">X<p> </div> <div id=""b-box""> <p class=""title-text"">B</p></div> <br> <div style='float: left;padding-left:30px;'><p>Press '1' for A</p></div><div style='float: right;padding-right:30px;'><p>Press '0' for B</p> </div> </div></div>","null","","","","","","","","","","","","","",""
"2839","","test","audio-keyboard-response","86","415020","0.0-8.0-1.29","5edfb9d6b8a6fc2bcc55c24f","condB","","resources/audio/wordStim/S9_AU_14_bxa_Step-10.wav","48","","","","","AU","resources/audio/wordStim/S9_AU_14_bxa_Step-10.wav","S9","14","bxa","10","CN","1","0","false"
"null","","fixation","html-keyboard-response","87","416040","0.0-8.0-0.30","5edfb9d6b8a6fc2bcc55c24f","condB","","<div class=""vertical-center"" style='width:60%;'><p style='font-weight:bold;'>Does the middle word sound more like the first word (A) or the last word (B)?</p> <br> <div class=""container""> <div id=""a-box""> <p class=""title-text"">A</h3></p> </div> <div id=""x-box""> <p class=""title-text"">X<p> </div> <div id=""b-box""> <p class=""title-text"">B</p></div> <br> <div style='float: left;padding-left:30px;'><p>Press '1' for A</p></div><div style='float: right;padding-right:30px;'><p>Press '0' for B</p> </div> </div></div>","null","","","","","","","","","","","","","",""
"3811","","test","audio-keyboard-response","88","419850","0.0-8.0-1.30","5edfb9d6b8a6fc2bcc55c24f","condB","","resources/audio/wordStim/S3_AU_11_bxa_Step-5.wav","48","","","","","AU","resources/audio/wordStim/S3_AU_11_bxa_Step-5.wav","S3","11","bxa","5","MI","1","0","false"
"null","","fixation","html-keyboard-response","89","420866","0.0-8.0-0.31","5edfb9d6b8a6fc2bcc55c24f","condB","","<div class=""vertical-center"" style='width:60%;'><p style='font-weight:bold;'>Does the middle word sound more like the first word (A) or the last word (B)?</p> <br> <div class=""container""> <div id=""a-box""> <p class=""title-text"">A</h3></p> </div> <div id=""x-box""> <p class=""title-text"">X<p> </div> <div id=""b-box""> <p class=""title-text"">B</p></div> <br> <div style='float: left;padding-left:30px;'><p>Press '1' for A</p></div><div style='float: right;padding-right:30px;'><p>Press '0' for B</p> </div> </div></div>","null","","","","","","","","","","","","","",""
"3521","","test","audio-keyboard-response","90","424392","0.0-8.0-1.31","5edfb9d6b8a6fc2bcc55c24f","condB","","resources/audio/wordStim/S3_AU_17_bxa_Step-7.wav","48","","","","","AU","resources/audio/wordStim/S3_AU_17_bxa_Step-7.wav","S3","17","bxa","7","MI","1","0","false"
"null","","fixation","html-keyboard-response","91","425429","0.0-8.0-0.32","5edfb9d6b8a6fc2bcc55c24f","condB","","<div class=""vertical-center"" style='width:60%;'><p style='font-weight:bold;'>Does the middle word sound more like the first word (A) or the last word (B)?</p> <br> <div class=""container""> <div id=""a-box""> <p class=""title-text"">A</h3></p> </div> <div id=""x-box""> <p class=""title-text"">X<p> </div> <div id=""b-box""> <p class=""title-text"">B</p></div> <br> <div style='float: left;padding-left:30px;'><p>Press '1' for A</p></div><div style='float: right;padding-right:30px;'><p>Press '0' for B</p> </div> </div></div>","null","","","","","","","","","","","","","",""
"3570","","test","audio-keyboard-response","92","429004","0.0-8.0-1.32","5edfb9d6b8a6fc2bcc55c24f","condB","","resources/audio/wordStim/S9_AI_25_axb_Step-6.wav","48","","","","","AI","resources/audio/wordStim/S9_AI_25_axb_Step-6.wav","S9","25","axb","6","CN","0","0","true"
"null","","fixation","html-keyboard-response","93","430015","0.0-8.0-0.33","5edfb9d6b8a6fc2bcc55c24f","condB","","<div class=""vertical-center"" style='width:60%;'><p style='font-weight:bold;'>Does the middle word sound more like the first word (A) or the last word (B)?</p> <br> <div class=""container""> <div id=""a-box""> <p class=""title-text"">A</h3></p> </div> <div id=""x-box""> <p class=""title-text"">X<p> </div> <div id=""b-box""> <p class=""title-text"">B</p></div> <br> <div style='float: left;padding-left:30px;'><p>Press '1' for A</p></div><div style='float: right;padding-right:30px;'><p>Press '0' for B</p> </div> </div></div>","null","","","","","","","","","","","","","",""
"2981","","test","audio-keyboard-response","94","433000","0.0-8.0-1.33","5edfb9d6b8a6fc2bcc55c24f","condB","","resources/audio/wordStim/S9_AI_25_bxa_Step-9.wav","49","","","","","AI","resources/audio/wordStim/S9_AI_25_bxa_Step-9.wav","S9","25","bxa","9","CN","1","1","true"
"null","","fixation","html-keyboard-response","95","434023","0.0-8.0-0.34","5edfb9d6b8a6fc2bcc55c24f","condB","","<div class=""vertical-center"" style='width:60%;'><p style='font-weight:bold;'>Does the middle word sound more like the first word (A) or the last word (B)?</p> <br> <div class=""container""> <div id=""a-box""> <p class=""title-text"">A</h3></p> </div> <div id=""x-box""> <p class=""title-text"">X<p> </div> <div id=""b-box""> <p class=""title-text"">B</p></div> <br> <div style='float: left;padding-left:30px;'><p>Press '1' for A</p></div><div style='float: right;padding-right:30px;'><p>Press '0' for B</p> </div> </div></div>","null","","","","","","","","","","","","","",""
"3158","","test","audio-keyboard-response","96","437188","0.0-8.0-1.34","5edfb9d6b8a6fc2bcc55c24f","condB","","resources/audio/wordStim/S3_AI_28_bxa_Step-7.wav","49","","","","","AI","resources/audio/wordStim/S3_AI_28_bxa_Step-7.wav","S3","28","bxa","7","MI","1","1","true"
"null","","fixation","html-keyboard-response","97","438211","0.0-8.0-0.35","5edfb9d6b8a6fc2bcc55c24f","condB","","<div class=""vertical-center"" style='width:60%;'><p style='font-weight:bold;'>Does the middle word sound more like the first word (A) or the last word (B)?</p> <br> <div class=""container""> <div id=""a-box""> <p class=""title-text"">A</h3></p> </div> <div id=""x-box""> <p class=""title-text"">X<p> </div> <div id=""b-box""> <p class=""title-text"">B</p></div> <br> <div style='float: left;padding-left:30px;'><p>Press '1' for A</p></div><div style='float: right;padding-right:30px;'><p>Press '0' for B</p> </div> </div></div>","null","","","","","","","","","","","","","",""
"2670","","test","audio-keyboard-response","98","440887","0.0-8.0-1.35","5edfb9d6b8a6fc2bcc55c24f","condB","","resources/audio/wordStim/S9_AU_20_bxa_Step-3.wav","48","","","","","AU","resources/audio/wordStim/S9_AU_20_bxa_Step-3.wav","S9","20","bxa","3","CN","1","0","false"
"null","","fixation","html-keyboard-response","99","441900","0.0-8.0-0.36","5edfb9d6b8a6fc2bcc55c24f","condB","","<div class=""vertical-center"" style='width:60%;'><p style='font-weight:bold;'>Does the middle word sound more like the first word (A) or the last word (B)?</p> <br> <div class=""container""> <div id=""a-box""> <p class=""title-text"">A</h3></p> </div> <div id=""x-box""> <p class=""title-text"">X<p> </div> <div id=""b-box""> <p class=""title-text"">B</p></div> <br> <div style='float: left;padding-left:30px;'><p>Press '1' for A</p></div><div style='float: right;padding-right:30px;'><p>Press '0' for B</p> </div> </div></div>","null","","","","","","","","","","","","","",""
"3602","","test","audio-keyboard-response","100","445506","0.0-8.0-1.36","5edfb9d6b8a6fc2bcc55c24f","condB","","resources/audio/wordStim/S3_AU_16_bxa_Step-10.wav","49","","","","","AU","resources/audio/wordStim/S3_AU_16_bxa_Step-10.wav","S3","16","bxa","10","MI","1","1","true"
"null","","fixation","html-keyboard-response","101","446521","0.0-8.0-0.37","5edfb9d6b8a6fc2bcc55c24f","condB","","<div class=""vertical-center"" style='width:60%;'><p style='font-weight:bold;'>Does the middle word sound more like the first word (A) or the last word (B)?</p> <br> <div class=""container""> <div id=""a-box""> <p class=""title-text"">A</h3></p> </div> <div id=""x-box""> <p class=""title-text"">X<p> </div> <div id=""b-box""> <p class=""title-text"">B</p></div> <br> <div style='float: left;padding-left:30px;'><p>Press '1' for A</p></div><div style='float: right;padding-right:30px;'><p>Press '0' for B</p> </div> </div></div>","null","","","","","","","","","","","","","",""
"3080","","test","audio-keyboard-response","102","449602","0.0-8.0-1.37","5edfb9d6b8a6fc2bcc55c24f","condB","","resources/audio/wordStim/S3_AI_22_bxa_Step-10.wav","49","","","","","AI","resources/audio/wordStim/S3_AI_22_bxa_Step-10.wav","S3","22","bxa","10","MI","1","1","true"
"null","","fixation","html-keyboard-response","103","450617","0.0-8.0-0.38","5edfb9d6b8a6fc2bcc55c24f","condB","","<div class=""vertical-center"" style='width:60%;'><p style='font-weight:bold;'>Does the middle word sound more like the first word (A) or the last word (B)?</p> <br> <div class=""container""> <div id=""a-box""> <p class=""title-text"">A</h3></p> </div> <div id=""x-box""> <p class=""title-text"">X<p> </div> <div id=""b-box""> <p class=""title-text"">B</p></div> <br> <div style='float: left;padding-left:30px;'><p>Press '1' for A</p></div><div style='float: right;padding-right:30px;'><p>Press '0' for B</p> </div> </div></div>","null","","","","","","","","","","","","","",""
"2760","","test","audio-keyboard-response","104","453386","0.0-8.0-1.38","5edfb9d6b8a6fc2bcc55c24f","condB","","resources/audio/wordStim/S3_AU_19_bxa_Step-10.wav","49","","","","","AU","resources/audio/wordStim/S3_AU_19_bxa_Step-10.wav","S3","19","bxa","10","MI","1","1","true"
"null","","fixation","html-keyboard-response","105","454410","0.0-8.0-0.39","5edfb9d6b8a6fc2bcc55c24f","condB","","<div class=""vertical-center"" style='width:60%;'><p style='font-weight:bold;'>Does the middle word sound more like the first word (A) or the last word (B)?</p> <br> <div class=""container""> <div id=""a-box""> <p class=""title-text"">A</h3></p> </div> <div id=""x-box""> <p class=""title-text"">X<p> </div> <div id=""b-box""> <p class=""title-text"">B</p></div> <br> <div style='float: left;padding-left:30px;'><p>Press '1' for A</p></div><div style='float: right;padding-right:30px;'><p>Press '0' for B</p> </div> </div></div>","null","","","","","","","","","","","","","",""
"2229","","test","audio-keyboard-response","106","456642","0.0-8.0-1.39","5edfb9d6b8a6fc2bcc55c24f","condB","","resources/audio/wordStim/S3_AI_21_bxa_Step-3.wav","48","","","","","AI","resources/audio/wordStim/S3_AI_21_bxa_Step-3.wav","S3","21","bxa","3","MI","1","0","false"
"null","","fixation","html-keyboard-response","107","457669","0.0-8.0-0.40","5edfb9d6b8a6fc2bcc55c24f","condB","","<div class=""vertical-center"" style='width:60%;'><p style='font-weight:bold;'>Does the middle word sound more like the first word (A) or the last word (B)?</p> <br> <div class=""container""> <div id=""a-box""> <p class=""title-text"">A</h3></p> </div> <div id=""x-box""> <p class=""title-text"">X<p> </div> <div id=""b-box""> <p class=""title-text"">B</p></div> <br> <div style='float: left;padding-left:30px;'><p>Press '1' for A</p></div><div style='float: right;padding-right:30px;'><p>Press '0' for B</p> </div> </div></div>","null","","","","","","","","","","","","","",""
"3149","","test","audio-keyboard-response","108","460825","0.0-8.0-1.40","5edfb9d6b8a6fc2bcc55c24f","condB","","resources/audio/wordStim/S9_AI_22_axb_Step-8.wav","48","","","","","AI","resources/audio/wordStim/S9_AI_22_axb_Step-8.wav","S9","22","axb","8","CN","0","0","true"
"null","","fixation","html-keyboard-response","109","461849","0.0-8.0-0.41","5edfb9d6b8a6fc2bcc55c24f","condB","","<div class=""vertical-center"" style='width:60%;'><p style='font-weight:bold;'>Does the middle word sound more like the first word (A) or the last word (B)?</p> <br> <div class=""container""> <div id=""a-box""> <p class=""title-text"">A</h3></p> </div> <div id=""x-box""> <p class=""title-text"">X<p> </div> <div id=""b-box""> <p class=""title-text"">B</p></div> <br> <div style='float: left;padding-left:30px;'><p>Press '1' for A</p></div><div style='float: right;padding-right:30px;'><p>Press '0' for B</p> </div> </div></div>","null","","","","","","","","","","","","","",""
"2810","","test","audio-keyboard-response","110","464663","0.0-8.0-1.41","5edfb9d6b8a6fc2bcc55c24f","condB","","resources/audio/wordStim/S9_AU_20_bxa_Step-7.wav","49","","","","","AU","resources/audio/wordStim/S9_AU_20_bxa_Step-7.wav","S9","20","bxa","7","CN","1","1","true"
"null","","fixation","html-keyboard-response","111","465689","0.0-8.0-0.42","5edfb9d6b8a6fc2bcc55c24f","condB","","<div class=""vertical-center"" style='width:60%;'><p style='font-weight:bold;'>Does the middle word sound more like the first word (A) or the last word (B)?</p> <br> <div class=""container""> <div id=""a-box""> <p class=""title-text"">A</h3></p> </div> <div id=""x-box""> <p class=""title-text"">X<p> </div> <div id=""b-box""> <p class=""title-text"">B</p></div> <br> <div style='float: left;padding-left:30px;'><p>Press '1' for A</p></div><div style='float: right;padding-right:30px;'><p>Press '0' for B</p> </div> </div></div>","null","","","","","","","","","","","","","",""
"2891","","test","audio-keyboard-response","112","468581","0.0-8.0-1.42","5edfb9d6b8a6fc2bcc55c24f","condB","","resources/audio/wordStim/S9_AI_23_bxa_Step-3.wav","49","","","","","AI","resources/audio/wordStim/S9_AI_23_bxa_Step-3.wav","S9","23","bxa","3","CN","1","1","true"
"null","","fixation","html-keyboard-response","113","469598","0.0-8.0-0.43","5edfb9d6b8a6fc2bcc55c24f","condB","","<div class=""vertical-center"" style='width:60%;'><p style='font-weight:bold;'>Does the middle word sound more like the first word (A) or the last word (B)?</p> <br> <div class=""container""> <div id=""a-box""> <p class=""title-text"">A</h3></p> </div> <div id=""x-box""> <p class=""title-text"">X<p> </div> <div id=""b-box""> <p class=""title-text"">B</p></div> <br> <div style='float: left;padding-left:30px;'><p>Press '1' for A</p></div><div style='float: right;padding-right:30px;'><p>Press '0' for B</p> </div> </div></div>","null","","","","","","","","","","","","","",""
"2891","","test","audio-keyboard-response","114","472492","0.0-8.0-1.43","5edfb9d6b8a6fc2bcc55c24f","condB","","resources/audio/wordStim/S9_AI_30_bxa_Step-7.wav","49","","","","","AI","resources/audio/wordStim/S9_AI_30_bxa_Step-7.wav","S9","30","bxa","7","CN","1","1","true"
"null","","fixation","html-keyboard-response","115","473510","0.0-8.0-0.44","5edfb9d6b8a6fc2bcc55c24f","condB","","<div class=""vertical-center"" style='width:60%;'><p style='font-weight:bold;'>Does the middle word sound more like the first word (A) or the last word (B)?</p> <br> <div class=""container""> <div id=""a-box""> <p class=""title-text"">A</h3></p> </div> <div id=""x-box""> <p class=""title-text"">X<p> </div> <div id=""b-box""> <p class=""title-text"">B</p></div> <br> <div style='float: left;padding-left:30px;'><p>Press '1' for A</p></div><div style='float: right;padding-right:30px;'><p>Press '0' for B</p> </div> </div></div>","null","","","","","","","","","","","","","",""
"2879","","test","audio-keyboard-response","116","476391","0.0-8.0-1.44","5edfb9d6b8a6fc2bcc55c24f","condB","","resources/audio/wordStim/S9_AU_19_bxa_Step-10.wav","49","","","","","AU","resources/audio/wordStim/S9_AU_19_bxa_Step-10.wav","S9","19","bxa","10","CN","1","1","true"
"null","","fixation","html-keyboard-response","117","477419","0.0-8.0-0.45","5edfb9d6b8a6fc2bcc55c24f","condB","","<div class=""vertical-center"" style='width:60%;'><p style='font-weight:bold;'>Does the middle word sound more like the first word (A) or the last word (B)?</p> <br> <div class=""container""> <div id=""a-box""> <p class=""title-text"">A</h3></p> </div> <div id=""x-box""> <p class=""title-text"">X<p> </div> <div id=""b-box""> <p class=""title-text"">B</p></div> <br> <div style='float: left;padding-left:30px;'><p>Press '1' for A</p></div><div style='float: right;padding-right:30px;'><p>Press '0' for B</p> </div> </div></div>","null","","","","","","","","","","","","","",""
"2961","","test","audio-keyboard-response","118","480383","0.0-8.0-1.45","5edfb9d6b8a6fc2bcc55c24f","condB","","resources/audio/wordStim/S9_AU_19_bxa_Step-7.wav","49","","","","","AU","resources/audio/wordStim/S9_AU_19_bxa_Step-7.wav","S9","19","bxa","7","CN","1","1","true"
"null","","fixation","html-keyboard-response","119","481397","0.0-8.0-0.46","5edfb9d6b8a6fc2bcc55c24f","condB","","<div class=""vertical-center"" style='width:60%;'><p style='font-weight:bold;'>Does the middle word sound more like the first word (A) or the last word (B)?</p> <br> <div class=""container""> <div id=""a-box""> <p class=""title-text"">A</h3></p> </div> <div id=""x-box""> <p class=""title-text"">X<p> </div> <div id=""b-box""> <p class=""title-text"">B</p></div> <br> <div style='float: left;padding-left:30px;'><p>Press '1' for A</p></div><div style='float: right;padding-right:30px;'><p>Press '0' for B</p> </div> </div></div>","null","","","","","","","","","","","","","",""
"3463","","test","audio-keyboard-response","120","484861","0.0-8.0-1.46","5edfb9d6b8a6fc2bcc55c24f","condB","","resources/audio/wordStim/S3_AU_18_axb_Step-4.wav","49","","","","","AU","resources/audio/wordStim/S3_AU_18_axb_Step-4.wav","S3","18","axb","4","MI","0","1","false"
"null","","fixation","html-keyboard-response","121","485899","0.0-8.0-0.47","5edfb9d6b8a6fc2bcc55c24f","condB","","<div class=""vertical-center"" style='width:60%;'><p style='font-weight:bold;'>Does the middle word sound more like the first word (A) or the last word (B)?</p> <br> <div class=""container""> <div id=""a-box""> <p class=""title-text"">A</h3></p> </div> <div id=""x-box""> <p class=""title-text"">X<p> </div> <div id=""b-box""> <p class=""title-text"">B</p></div> <br> <div style='float: left;padding-left:30px;'><p>Press '1' for A</p></div><div style='float: right;padding-right:30px;'><p>Press '0' for B</p> </div> </div></div>","null","","","","","","","","","","","","","",""
"2699","","test","audio-keyboard-response","122","488608","0.0-8.0-1.47","5edfb9d6b8a6fc2bcc55c24f","condB","","resources/audio/wordStim/S3_AU_15_axb_Step-2.wav","49","","","","","AU","resources/audio/wordStim/S3_AU_15_axb_Step-2.wav","S3","15","axb","2","MI","0","1","false"
"null","","fixation","html-keyboard-response","123","489621","0.0-8.0-0.48","5edfb9d6b8a6fc2bcc55c24f","condB","","<div class=""vertical-center"" style='width:60%;'><p style='font-weight:bold;'>Does the middle word sound more like the first word (A) or the last word (B)?</p> <br> <div class=""container""> <div id=""a-box""> <p class=""title-text"">A</h3></p> </div> <div id=""x-box""> <p class=""title-text"">X<p> </div> <div id=""b-box""> <p class=""title-text"">B</p></div> <br> <div style='float: left;padding-left:30px;'><p>Press '1' for A</p></div><div style='float: right;padding-right:30px;'><p>Press '0' for B</p> </div> </div></div>","null","","","","","","","","","","","","","",""
"3428","","test","audio-keyboard-response","124","493053","0.0-8.0-1.48","5edfb9d6b8a6fc2bcc55c24f","condB","","resources/audio/wordStim/S3_AU_18_axb_Step-2.wav","49","","","","","AU","resources/audio/wordStim/S3_AU_18_axb_Step-2.wav","S3","18","axb","2","MI","0","1","false"
"null","","fixation","html-keyboard-response","125","494070","0.0-8.0-0.49","5edfb9d6b8a6fc2bcc55c24f","condB","","<div class=""vertical-center"" style='width:60%;'><p style='font-weight:bold;'>Does the middle word sound more like the first word (A) or the last word (B)?</p> <br> <div class=""container""> <div id=""a-box""> <p class=""title-text"">A</h3></p> </div> <div id=""x-box""> <p class=""title-text"">X<p> </div> <div id=""b-box""> <p class=""title-text"">B</p></div> <br> <div style='float: left;padding-left:30px;'><p>Press '1' for A</p></div><div style='float: right;padding-right:30px;'><p>Press '0' for B</p> </div> </div></div>","null","","","","","","","","","","","","","",""
"3320","","test","audio-keyboard-response","126","497400","0.0-8.0-1.49","5edfb9d6b8a6fc2bcc55c24f","condB","","resources/audio/wordStim/S9_AI_22_bxa_Step-9.wav","49","","","","","AI","resources/audio/wordStim/S9_AI_22_bxa_Step-9.wav","S9","22","bxa","9","CN","1","1","true"
"null","","fixation","html-keyboard-response","127","498430","0.0-8.0-0.50","5edfb9d6b8a6fc2bcc55c24f","condB","","<div class=""vertical-center"" style='width:60%;'><p style='font-weight:bold;'>Does the middle word sound more like the first word (A) or the last word (B)?</p> <br> <div class=""container""> <div id=""a-box""> <p class=""title-text"">A</h3></p> </div> <div id=""x-box""> <p class=""title-text"">X<p> </div> <div id=""b-box""> <p class=""title-text"">B</p></div> <br> <div style='float: left;padding-left:30px;'><p>Press '1' for A</p></div><div style='float: right;padding-right:30px;'><p>Press '0' for B</p> </div> </div></div>","null","","","","","","","","","","","","","",""
"2749","","test","audio-keyboard-response","128","501186","0.0-8.0-1.50","5edfb9d6b8a6fc2bcc55c24f","condB","","resources/audio/wordStim/S9_AU_17_bxa_Step-3.wav","48","","","","","AU","resources/audio/wordStim/S9_AU_17_bxa_Step-3.wav","S9","17","bxa","3","CN","1","0","false"
"null","","fixation","html-keyboard-response","129","502209","0.0-8.0-0.51","5edfb9d6b8a6fc2bcc55c24f","condB","","<div class=""vertical-center"" style='width:60%;'><p style='font-weight:bold;'>Does the middle word sound more like the first word (A) or the last word (B)?</p> <br> <div class=""container""> <div id=""a-box""> <p class=""title-text"">A</h3></p> </div> <div id=""x-box""> <p class=""title-text"">X<p> </div> <div id=""b-box""> <p class=""title-text"">B</p></div> <br> <div style='float: left;padding-left:30px;'><p>Press '1' for A</p></div><div style='float: right;padding-right:30px;'><p>Press '0' for B</p> </div> </div></div>","null","","","","","","","","","","","","","",""
"3251","","test","audio-keyboard-response","130","505459","0.0-8.0-1.51","5edfb9d6b8a6fc2bcc55c24f","condB","","resources/audio/wordStim/S3_AI_29_axb_Step-6.wav","49","","","","","AI","resources/audio/wordStim/S3_AI_29_axb_Step-6.wav","S3","29","axb","6","MI","0","1","false"
"null","","fixation","html-keyboard-response","131","506475","0.0-8.0-0.52","5edfb9d6b8a6fc2bcc55c24f","condB","","<div class=""vertical-center"" style='width:60%;'><p style='font-weight:bold;'>Does the middle word sound more like the first word (A) or the last word (B)?</p> <br> <div class=""container""> <div id=""a-box""> <p class=""title-text"">A</h3></p> </div> <div id=""x-box""> <p class=""title-text"">X<p> </div> <div id=""b-box""> <p class=""title-text"">B</p></div> <br> <div style='float: left;padding-left:30px;'><p>Press '1' for A</p></div><div style='float: right;padding-right:30px;'><p>Press '0' for B</p> </div> </div></div>","null","","","","","","","","","","","","","",""
"3071","","test","audio-keyboard-response","132","509554","0.0-8.0-1.52","5edfb9d6b8a6fc2bcc55c24f","condB","","resources/audio/wordStim/S9_AI_29_bxa_Step-10.wav","49","","","","","AI","resources/audio/wordStim/S9_AI_29_bxa_Step-10.wav","S9","29","bxa","10","CN","1","1","true"
"null","","fixation","html-keyboard-response","133","510569","0.0-8.0-0.53","5edfb9d6b8a6fc2bcc55c24f","condB","","<div class=""vertical-center"" style='width:60%;'><p style='font-weight:bold;'>Does the middle word sound more like the first word (A) or the last word (B)?</p> <br> <div class=""container""> <div id=""a-box""> <p class=""title-text"">A</h3></p> </div> <div id=""x-box""> <p class=""title-text"">X<p> </div> <div id=""b-box""> <p class=""title-text"">B</p></div> <br> <div style='float: left;padding-left:30px;'><p>Press '1' for A</p></div><div style='float: right;padding-right:30px;'><p>Press '0' for B</p> </div> </div></div>","null","","","","","","","","","","","","","",""
"2871","","test","audio-keyboard-response","134","513447","0.0-8.0-1.53","5edfb9d6b8a6fc2bcc55c24f","condB","","resources/audio/wordStim/S9_AU_13_axb_Step-2.wav","49","","","","","AU","resources/audio/wordStim/S9_AU_13_axb_Step-2.wav","S9","13","axb","2","CN","0","1","false"
"1402.860000001965","","break","html-keyboard-response","135","515368","0.0-8.0-2.53-0.53","5edfb9d6b8a6fc2bcc55c24f","condB","","<div class=""vertical-center""><p>Feel free to take a break!</p><i>When you're ready to continue, press SPACE to begin the next trial.</i></p></div>","32","","","","","","","","","","","","","",""
"null","","fixation","html-keyboard-response","136","515879","0.0-8.0-0.54","5edfb9d6b8a6fc2bcc55c24f","condB","","<div class=""vertical-center"" style='width:60%;'><p style='font-weight:bold;'>Does the middle word sound more like the first word (A) or the last word (B)?</p> <br> <div class=""container""> <div id=""a-box""> <p class=""title-text"">A</h3></p> </div> <div id=""x-box""> <p class=""title-text"">X<p> </div> <div id=""b-box""> <p class=""title-text"">B</p></div> <br> <div style='float: left;padding-left:30px;'><p>Press '1' for A</p></div><div style='float: right;padding-right:30px;'><p>Press '0' for B</p> </div> </div></div>","null","","","","","","","","","","","","","",""
"2859","","test","audio-keyboard-response","137","518743","0.0-8.0-1.54","5edfb9d6b8a6fc2bcc55c24f","condB","","resources/audio/wordStim/S9_AU_14_bxa_Step-5.wav","49","","","","","AU","resources/audio/wordStim/S9_AU_14_bxa_Step-5.wav","S9","14","bxa","5","CN","1","1","true"
"null","","fixation","html-keyboard-response","138","519769","0.0-8.0-0.55","5edfb9d6b8a6fc2bcc55c24f","condB","","<div class=""vertical-center"" style='width:60%;'><p style='font-weight:bold;'>Does the middle word sound more like the first word (A) or the last word (B)?</p> <br> <div class=""container""> <div id=""a-box""> <p class=""title-text"">A</h3></p> </div> <div id=""x-box""> <p class=""title-text"">X<p> </div> <div id=""b-box""> <p class=""title-text"">B</p></div> <br> <div style='float: left;padding-left:30px;'><p>Press '1' for A</p></div><div style='float: right;padding-right:30px;'><p>Press '0' for B</p> </div> </div></div>","null","","","","","","","","","","","","","",""
"2850","","test","audio-keyboard-response","139","522626","0.0-8.0-1.55","5edfb9d6b8a6fc2bcc55c24f","condB","","resources/audio/wordStim/S9_AU_14_axb_Step-4.wav","49","","","","","AU","resources/audio/wordStim/S9_AU_14_axb_Step-4.wav","S9","14","axb","4","CN","0","1","false"
"null","","fixation","html-keyboard-response","140","523649","0.0-8.0-0.56","5edfb9d6b8a6fc2bcc55c24f","condB","","<div class=""vertical-center"" style='width:60%;'><p style='font-weight:bold;'>Does the middle word sound more like the first word (A) or the last word (B)?</p> <br> <div class=""container""> <div id=""a-box""> <p class=""title-text"">A</h3></p> </div> <div id=""x-box""> <p class=""title-text"">X<p> </div> <div id=""b-box""> <p class=""title-text"">B</p></div> <br> <div style='float: left;padding-left:30px;'><p>Press '1' for A</p></div><div style='float: right;padding-right:30px;'><p>Press '0' for B</p> </div> </div></div>","null","","","","","","","","","","","","","",""
"2540","","test","audio-keyboard-response","141","526198","0.0-8.0-1.56","5edfb9d6b8a6fc2bcc55c24f","condB","","resources/audio/wordStim/S3_AI_25_axb_Step-2.wav","49","","","","","AI","resources/audio/wordStim/S3_AI_25_axb_Step-2.wav","S3","25","axb","2","MI","0","1","false"
"null","","fixation","html-keyboard-response","142","527229","0.0-8.0-0.57","5edfb9d6b8a6fc2bcc55c24f","condB","","<div class=""vertical-center"" style='width:60%;'><p style='font-weight:bold;'>Does the middle word sound more like the first word (A) or the last word (B)?</p> <br> <div class=""container""> <div id=""a-box""> <p class=""title-text"">A</h3></p> </div> <div id=""x-box""> <p class=""title-text"">X<p> </div> <div id=""b-box""> <p class=""title-text"">B</p></div> <br> <div style='float: left;padding-left:30px;'><p>Press '1' for A</p></div><div style='float: right;padding-right:30px;'><p>Press '0' for B</p> </div> </div></div>","null","","","","","","","","","","","","","",""
"2781","","test","audio-keyboard-response","143","530012","0.0-8.0-1.57","5edfb9d6b8a6fc2bcc55c24f","condB","","resources/audio/wordStim/S9_AI_30_axb_Step-6.wav","48","","","","","AI","resources/audio/wordStim/S9_AI_30_axb_Step-6.wav","S9","30","axb","6","CN","0","0","true"
"null","","fixation","html-keyboard-response","144","531026","0.0-8.0-0.58","5edfb9d6b8a6fc2bcc55c24f","condB","","<div class=""vertical-center"" style='width:60%;'><p style='font-weight:bold;'>Does the middle word sound more like the first word (A) or the last word (B)?</p> <br> <div class=""container""> <div id=""a-box""> <p class=""title-text"">A</h3></p> </div> <div id=""x-box""> <p class=""title-text"">X<p> </div> <div id=""b-box""> <p class=""title-text"">B</p></div> <br> <div style='float: left;padding-left:30px;'><p>Press '1' for A</p></div><div style='float: right;padding-right:30px;'><p>Press '0' for B</p> </div> </div></div>","null","","","","","","","","","","","","","",""
"3010","","test","audio-keyboard-response","145","534039","0.0-8.0-1.58","5edfb9d6b8a6fc2bcc55c24f","condB","","resources/audio/wordStim/S9_AI_29_axb_Step-6.wav","48","","","","","AI","resources/audio/wordStim/S9_AI_29_axb_Step-6.wav","S9","29","axb","6","CN","0","0","true"
"null","","fixation","html-keyboard-response","146","535058","0.0-8.0-0.59","5edfb9d6b8a6fc2bcc55c24f","condB","","<div class=""vertical-center"" style='width:60%;'><p style='font-weight:bold;'>Does the middle word sound more like the first word (A) or the last word (B)?</p> <br> <div class=""container""> <div id=""a-box""> <p class=""title-text"">A</h3></p> </div> <div id=""x-box""> <p class=""title-text"">X<p> </div> <div id=""b-box""> <p class=""title-text"">B</p></div> <br> <div style='float: left;padding-left:30px;'><p>Press '1' for A</p></div><div style='float: right;padding-right:30px;'><p>Press '0' for B</p> </div> </div></div>","null","","","","","","","","","","","","","",""
"2551","","test","audio-keyboard-response","147","537610","0.0-8.0-1.59","5edfb9d6b8a6fc2bcc55c24f","condB","","resources/audio/wordStim/S3_AI_25_bxa_Step-9.wav","49","","","","","AI","resources/audio/wordStim/S3_AI_25_bxa_Step-9.wav","S3","25","bxa","9","MI","1","1","true"
"null","","fixation","html-keyboard-response","148","538619","0.0-8.0-0.60","5edfb9d6b8a6fc2bcc55c24f","condB","","<div class=""vertical-center"" style='width:60%;'><p style='font-weight:bold;'>Does the middle word sound more like the first word (A) or the last word (B)?</p> <br> <div class=""container""> <div id=""a-box""> <p class=""title-text"">A</h3></p> </div> <div id=""x-box""> <p class=""title-text"">X<p> </div> <div id=""b-box""> <p class=""title-text"">B</p></div> <br> <div style='float: left;padding-left:30px;'><p>Press '1' for A</p></div><div style='float: right;padding-right:30px;'><p>Press '0' for B</p> </div> </div></div>","null","","","","","","","","","","","","","",""
"2789","","test","audio-keyboard-response","149","541411","0.0-8.0-1.60","5edfb9d6b8a6fc2bcc55c24f","condB","","resources/audio/wordStim/S9_AU_20_bxa_Step-9.wav","49","","","","","AU","resources/audio/wordStim/S9_AU_20_bxa_Step-9.wav","S9","20","bxa","9","CN","1","1","true"
"null","","fixation","html-keyboard-response","150","542439","0.0-8.0-0.61","5edfb9d6b8a6fc2bcc55c24f","condB","","<div class=""vertical-center"" style='width:60%;'><p style='font-weight:bold;'>Does the middle word sound more like the first word (A) or the last word (B)?</p> <br> <div class=""container""> <div id=""a-box""> <p class=""title-text"">A</h3></p> </div> <div id=""x-box""> <p class=""title-text"">X<p> </div> <div id=""b-box""> <p class=""title-text"">B</p></div> <br> <div style='float: left;padding-left:30px;'><p>Press '1' for A</p></div><div style='float: right;padding-right:30px;'><p>Press '0' for B</p> </div> </div></div>","null","","","","","","","","","","","","","",""
"3480","","test","audio-keyboard-response","151","545921","0.0-8.0-1.61","5edfb9d6b8a6fc2bcc55c24f","condB","","resources/audio/wordStim/S3_AU_16_axb_Step-6.wav","48","","","","","AU","resources/audio/wordStim/S3_AU_16_axb_Step-6.wav","S3","16","axb","6","MI","0","0","true"
"null","","fixation","html-keyboard-response","152","546939","0.0-8.0-0.62","5edfb9d6b8a6fc2bcc55c24f","condB","","<div class=""vertical-center"" style='width:60%;'><p style='font-weight:bold;'>Does the middle word sound more like the first word (A) or the last word (B)?</p> <br> <div class=""container""> <div id=""a-box""> <p class=""title-text"">A</h3></p> </div> <div id=""x-box""> <p class=""title-text"">X<p> </div> <div id=""b-box""> <p class=""title-text"">B</p></div> <br> <div style='float: left;padding-left:30px;'><p>Press '1' for A</p></div><div style='float: right;padding-right:30px;'><p>Press '0' for B</p> </div> </div></div>","null","","","","","","","","","","","","","",""
"3149","","test","audio-keyboard-response","153","550092","0.0-8.0-1.62","5edfb9d6b8a6fc2bcc55c24f","condB","","resources/audio/wordStim/S9_AI_27_bxa_Step-5.wav","49","","","","","AI","resources/audio/wordStim/S9_AI_27_bxa_Step-5.wav","S9","27","bxa","5","CN","1","1","true"
"null","","fixation","html-keyboard-response","154","551112","0.0-8.0-0.63","5edfb9d6b8a6fc2bcc55c24f","condB","","<div class=""vertical-center"" style='width:60%;'><p style='font-weight:bold;'>Does the middle word sound more like the first word (A) or the last word (B)?</p> <br> <div class=""container""> <div id=""a-box""> <p class=""title-text"">A</h3></p> </div> <div id=""x-box""> <p class=""title-text"">X<p> </div> <div id=""b-box""> <p class=""title-text"">B</p></div> <br> <div style='float: left;padding-left:30px;'><p>Press '1' for A</p></div><div style='float: right;padding-right:30px;'><p>Press '0' for B</p> </div> </div></div>","null","","","","","","","","","","","","","",""
"3390","","test","audio-keyboard-response","155","554503","0.0-8.0-1.63","5edfb9d6b8a6fc2bcc55c24f","condB","","resources/audio/wordStim/S3_AI_30_bxa_Step-7.wav","49","","","","","AI","resources/audio/wordStim/S3_AI_30_bxa_Step-7.wav","S3","30","bxa","7","MI","1","1","true"
"null","","fixation","html-keyboard-response","156","555519","0.0-8.0-0.64","5edfb9d6b8a6fc2bcc55c24f","condB","","<div class=""vertical-center"" style='width:60%;'><p style='font-weight:bold;'>Does the middle word sound more like the first word (A) or the last word (B)?</p> <br> <div class=""container""> <div id=""a-box""> <p class=""title-text"">A</h3></p> </div> <div id=""x-box""> <p class=""title-text"">X<p> </div> <div id=""b-box""> <p class=""title-text"">B</p></div> <br> <div style='float: left;padding-left:30px;'><p>Press '1' for A</p></div><div style='float: right;padding-right:30px;'><p>Press '0' for B</p> </div> </div></div>","null","","","","","","","","","","","","","",""
"3210","","test","audio-keyboard-response","157","558736","0.0-8.0-1.64","5edfb9d6b8a6fc2bcc55c24f","condB","","resources/audio/wordStim/S9_AI_30_bxa_Step-9.wav","49","","","","","AI","resources/audio/wordStim/S9_AI_30_bxa_Step-9.wav","S9","30","bxa","9","CN","1","1","true"
"null","","fixation","html-keyboard-response","158","559759","0.0-8.0-0.65","5edfb9d6b8a6fc2bcc55c24f","condB","","<div class=""vertical-center"" style='width:60%;'><p style='font-weight:bold;'>Does the middle word sound more like the first word (A) or the last word (B)?</p> <br> <div class=""container""> <div id=""a-box""> <p class=""title-text"">A</h3></p> </div> <div id=""x-box""> <p class=""title-text"">X<p> </div> <div id=""b-box""> <p class=""title-text"">B</p></div> <br> <div style='float: left;padding-left:30px;'><p>Press '1' for A</p></div><div style='float: right;padding-right:30px;'><p>Press '0' for B</p> </div> </div></div>","null","","","","","","","","","","","","","",""
"4569","","test","audio-keyboard-response","159","564336","0.0-8.0-1.65","5edfb9d6b8a6fc2bcc55c24f","condB","","resources/audio/wordStim/S3_AU_11_bxa_Step-7.wav","48","","","","","AU","resources/audio/wordStim/S3_AU_11_bxa_Step-7.wav","S3","11","bxa","7","MI","1","0","false"
"null","","fixation","html-keyboard-response","160","565356","0.0-8.0-0.66","5edfb9d6b8a6fc2bcc55c24f","condB","","<div class=""vertical-center"" style='width:60%;'><p style='font-weight:bold;'>Does the middle word sound more like the first word (A) or the last word (B)?</p> <br> <div class=""container""> <div id=""a-box""> <p class=""title-text"">A</h3></p> </div> <div id=""x-box""> <p class=""title-text"">X<p> </div> <div id=""b-box""> <p class=""title-text"">B</p></div> <br> <div style='float: left;padding-left:30px;'><p>Press '1' for A</p></div><div style='float: right;padding-right:30px;'><p>Press '0' for B</p> </div> </div></div>","null","","","","","","","","","","","","","",""
"2702","","test","audio-keyboard-response","161","568063","0.0-8.0-1.66","5edfb9d6b8a6fc2bcc55c24f","condB","","resources/audio/wordStim/S9_AU_16_axb_Step-4.wav","49","","","","","AU","resources/audio/wordStim/S9_AU_16_axb_Step-4.wav","S9","16","axb","4","CN","0","1","false"
"null","","fixation","html-keyboard-response","162","569081","0.0-8.0-0.67","5edfb9d6b8a6fc2bcc55c24f","condB","","<div class=""vertical-center"" style='width:60%;'><p style='font-weight:bold;'>Does the middle word sound more like the first word (A) or the last word (B)?</p> <br> <div class=""container""> <div id=""a-box""> <p class=""title-text"">A</h3></p> </div> <div id=""x-box""> <p class=""title-text"">X<p> </div> <div id=""b-box""> <p class=""title-text"">B</p></div> <br> <div style='float: left;padding-left:30px;'><p>Press '1' for A</p></div><div style='float: right;padding-right:30px;'><p>Press '0' for B</p> </div> </div></div>","null","","","","","","","","","","","","","",""
"3460","","test","audio-keyboard-response","163","572541","0.0-8.0-1.67","5edfb9d6b8a6fc2bcc55c24f","condB","","resources/audio/wordStim/S3_AU_18_axb_Step-6.wav","49","","","","","AU","resources/audio/wordStim/S3_AU_18_axb_Step-6.wav","S3","18","axb","6","MI","0","1","false"
"null","","fixation","html-keyboard-response","164","573569","0.0-8.0-0.68","5edfb9d6b8a6fc2bcc55c24f","condB","","<div class=""vertical-center"" style='width:60%;'><p style='font-weight:bold;'>Does the middle word sound more like the first word (A) or the last word (B)?</p> <br> <div class=""container""> <div id=""a-box""> <p class=""title-text"">A</h3></p> </div> <div id=""x-box""> <p class=""title-text"">X<p> </div> <div id=""b-box""> <p class=""title-text"">B</p></div> <br> <div style='float: left;padding-left:30px;'><p>Press '1' for A</p></div><div style='float: right;padding-right:30px;'><p>Press '0' for B</p> </div> </div></div>","null","","","","","","","","","","","","","",""
"3280","","test","audio-keyboard-response","165","576857","0.0-8.0-1.68","5edfb9d6b8a6fc2bcc55c24f","condB","","resources/audio/wordStim/S3_AU_18_bxa_Step-5.wav","49","","","","","AU","resources/audio/wordStim/S3_AU_18_bxa_Step-5.wav","S3","18","bxa","5","MI","1","1","true"
"null","","fixation","html-keyboard-response","166","577879","0.0-8.0-0.69","5edfb9d6b8a6fc2bcc55c24f","condB","","<div class=""vertical-center"" style='width:60%;'><p style='font-weight:bold;'>Does the middle word sound more like the first word (A) or the last word (B)?</p> <br> <div class=""container""> <div id=""a-box""> <p class=""title-text"">A</h3></p> </div> <div id=""x-box""> <p class=""title-text"">X<p> </div> <div id=""b-box""> <p class=""title-text"">B</p></div> <br> <div style='float: left;padding-left:30px;'><p>Press '1' for A</p></div><div style='float: right;padding-right:30px;'><p>Press '0' for B</p> </div> </div></div>","null","","","","","","","","","","","","","",""
"2728","","test","audio-keyboard-response","167","580611","0.0-8.0-1.69","5edfb9d6b8a6fc2bcc55c24f","condB","","resources/audio/wordStim/S9_AI_24_bxa_Step-7.wav","48","","","","","AI","resources/audio/wordStim/S9_AI_24_bxa_Step-7.wav","S9","24","bxa","7","CN","1","0","false"
"null","","fixation","html-keyboard-response","168","581633","0.0-8.0-0.70","5edfb9d6b8a6fc2bcc55c24f","condB","","<div class=""vertical-center"" style='width:60%;'><p style='font-weight:bold;'>Does the middle word sound more like the first word (A) or the last word (B)?</p> <br> <div class=""container""> <div id=""a-box""> <p class=""title-text"">A</h3></p> </div> <div id=""x-box""> <p class=""title-text"">X<p> </div> <div id=""b-box""> <p class=""title-text"">B</p></div> <br> <div style='float: left;padding-left:30px;'><p>Press '1' for A</p></div><div style='float: right;padding-right:30px;'><p>Press '0' for B</p> </div> </div></div>","null","","","","","","","","","","","","","",""
"3239","","test","audio-keyboard-response","169","584870","0.0-8.0-1.70","5edfb9d6b8a6fc2bcc55c24f","condB","","resources/audio/wordStim/S9_AU_18_bxa_Step-9.wav","49","","","","","AU","resources/audio/wordStim/S9_AU_18_bxa_Step-9.wav","S9","18","bxa","9","CN","1","1","true"
"null","","fixation","html-keyboard-response","170","585890","0.0-8.0-0.71","5edfb9d6b8a6fc2bcc55c24f","condB","","<div class=""vertical-center"" style='width:60%;'><p style='font-weight:bold;'>Does the middle word sound more like the first word (A) or the last word (B)?</p> <br> <div class=""container""> <div id=""a-box""> <p class=""title-text"">A</h3></p> </div> <div id=""x-box""> <p class=""title-text"">X<p> </div> <div id=""b-box""> <p class=""title-text"">B</p></div> <br> <div style='float: left;padding-left:30px;'><p>Press '1' for A</p></div><div style='float: right;padding-right:30px;'><p>Press '0' for B</p> </div> </div></div>","null","","","","","","","","","","","","","",""
"2830","","test","audio-keyboard-response","171","588723","0.0-8.0-1.71","5edfb9d6b8a6fc2bcc55c24f","condB","","resources/audio/wordStim/S9_AU_13_bxa_Step-10.wav","49","","","","","AU","resources/audio/wordStim/S9_AU_13_bxa_Step-10.wav","S9","13","bxa","10","CN","1","1","true"
"null","","fixation","html-keyboard-response","172","589749","0.0-8.0-0.72","5edfb9d6b8a6fc2bcc55c24f","condB","","<div class=""vertical-center"" style='width:60%;'><p style='font-weight:bold;'>Does the middle word sound more like the first word (A) or the last word (B)?</p> <br> <div class=""container""> <div id=""a-box""> <p class=""title-text"">A</h3></p> </div> <div id=""x-box""> <p class=""title-text"">X<p> </div> <div id=""b-box""> <p class=""title-text"">B</p></div> <br> <div style='float: left;padding-left:30px;'><p>Press '1' for A</p></div><div style='float: right;padding-right:30px;'><p>Press '0' for B</p> </div> </div></div>","null","","","","","","","","","","","","","",""
"2531","","test","audio-keyboard-response","173","592288","0.0-8.0-1.72","5edfb9d6b8a6fc2bcc55c24f","condB","","resources/audio/wordStim/S3_AU_19_axb_Step-6.wav","48","","","","","AU","resources/audio/wordStim/S3_AU_19_axb_Step-6.wav","S3","19","axb","6","MI","0","0","true"
"null","","fixation","html-keyboard-response","174","593310","0.0-8.0-0.73","5edfb9d6b8a6fc2bcc55c24f","condB","","<div class=""vertical-center"" style='width:60%;'><p style='font-weight:bold;'>Does the middle word sound more like the first word (A) or the last word (B)?</p> <br> <div class=""container""> <div id=""a-box""> <p class=""title-text"">A</h3></p> </div> <div id=""x-box""> <p class=""title-text"">X<p> </div> <div id=""b-box""> <p class=""title-text"">B</p></div> <br> <div style='float: left;padding-left:30px;'><p>Press '1' for A</p></div><div style='float: right;padding-right:30px;'><p>Press '0' for B</p> </div> </div></div>","null","","","","","","","","","","","","","",""
"2789","","test","audio-keyboard-response","175","596109","0.0-8.0-1.73","5edfb9d6b8a6fc2bcc55c24f","condB","","resources/audio/wordStim/S9_AU_17_bxa_Step-7.wav","49","","","","","AU","resources/audio/wordStim/S9_AU_17_bxa_Step-7.wav","S9","17","bxa","7","CN","1","1","true"
"null","","fixation","html-keyboard-response","176","597133","0.0-8.0-0.74","5edfb9d6b8a6fc2bcc55c24f","condB","","<div class=""vertical-center"" style='width:60%;'><p style='font-weight:bold;'>Does the middle word sound more like the first word (A) or the last word (B)?</p> <br> <div class=""container""> <div id=""a-box""> <p class=""title-text"">A</h3></p> </div> <div id=""x-box""> <p class=""title-text"">X<p> </div> <div id=""b-box""> <p class=""title-text"">B</p></div> <br> <div style='float: left;padding-left:30px;'><p>Press '1' for A</p></div><div style='float: right;padding-right:30px;'><p>Press '0' for B</p> </div> </div></div>","null","","","","","","","","","","","","","",""
"2601","","test","audio-keyboard-response","177","599734","0.0-8.0-1.74","5edfb9d6b8a6fc2bcc55c24f","condB","","resources/audio/wordStim/S3_AU_15_bxa_Step-9.wav","49","","","","","AU","resources/audio/wordStim/S3_AU_15_bxa_Step-9.wav","S3","15","bxa","9","MI","1","1","true"
"null","","fixation","html-keyboard-response","178","600759","0.0-8.0-0.75","5edfb9d6b8a6fc2bcc55c24f","condB","","<div class=""vertical-center"" style='width:60%;'><p style='font-weight:bold;'>Does the middle word sound more like the first word (A) or the last word (B)?</p> <br> <div class=""container""> <div id=""a-box""> <p class=""title-text"">A</h3></p> </div> <div id=""x-box""> <p class=""title-text"">X<p> </div> <div id=""b-box""> <p class=""title-text"">B</p></div> <br> <div style='float: left;padding-left:30px;'><p>Press '1' for A</p></div><div style='float: right;padding-right:30px;'><p>Press '0' for B</p> </div> </div></div>","null","","","","","","","","","","","","","",""
"2871","","test","audio-keyboard-response","179","603630","0.0-8.0-1.75","5edfb9d6b8a6fc2bcc55c24f","condB","","resources/audio/wordStim/S3_AI_28_bxa_Step-5.wav","48","","","","","AI","resources/audio/wordStim/S3_AI_28_bxa_Step-5.wav","S3","28","bxa","5","MI","1","0","false"
"null","","fixation","html-keyboard-response","180","604669","0.0-8.0-0.76","5edfb9d6b8a6fc2bcc55c24f","condB","","<div class=""vertical-center"" style='width:60%;'><p style='font-weight:bold;'>Does the middle word sound more like the first word (A) or the last word (B)?</p> <br> <div class=""container""> <div id=""a-box""> <p class=""title-text"">A</h3></p> </div> <div id=""x-box""> <p class=""title-text"">X<p> </div> <div id=""b-box""> <p class=""title-text"">B</p></div> <br> <div style='float: left;padding-left:30px;'><p>Press '1' for A</p></div><div style='float: right;padding-right:30px;'><p>Press '0' for B</p> </div> </div></div>","null","","","","","","","","","","","","","",""
"2589","","test","audio-keyboard-response","181","607270","0.0-8.0-1.76","5edfb9d6b8a6fc2bcc55c24f","condB","","resources/audio/wordStim/S9_AU_16_bxa_Step-10.wav","49","","","","","AU","resources/audio/wordStim/S9_AU_16_bxa_Step-10.wav","S9","16","bxa","10","CN","1","1","true"
"null","","fixation","html-keyboard-response","182","608299","0.0-8.0-0.77","5edfb9d6b8a6fc2bcc55c24f","condB","","<div class=""vertical-center"" style='width:60%;'><p style='font-weight:bold;'>Does the middle word sound more like the first word (A) or the last word (B)?</p> <br> <div class=""container""> <div id=""a-box""> <p class=""title-text"">A</h3></p> </div> <div id=""x-box""> <p class=""title-text"">X<p> </div> <div id=""b-box""> <p class=""title-text"">B</p></div> <br> <div style='float: left;padding-left:30px;'><p>Press '1' for A</p></div><div style='float: right;padding-right:30px;'><p>Press '0' for B</p> </div> </div></div>","null","","","","","","","","","","","","","",""
"2441","","test","audio-keyboard-response","183","610747","0.0-8.0-1.77","5edfb9d6b8a6fc2bcc55c24f","condB","","resources/audio/wordStim/S3_AU_19_bxa_Step-3.wav","48","","","","","AU","resources/audio/wordStim/S3_AU_19_bxa_Step-3.wav","S3","19","bxa","3","MI","1","0","false"
"null","","fixation","html-keyboard-response","184","611769","0.0-8.0-0.78","5edfb9d6b8a6fc2bcc55c24f","condB","","<div class=""vertical-center"" style='width:60%;'><p style='font-weight:bold;'>Does the middle word sound more like the first word (A) or the last word (B)?</p> <br> <div class=""container""> <div id=""a-box""> <p class=""title-text"">A</h3></p> </div> <div id=""x-box""> <p class=""title-text"">X<p> </div> <div id=""b-box""> <p class=""title-text"">B</p></div> <br> <div style='float: left;padding-left:30px;'><p>Press '1' for A</p></div><div style='float: right;padding-right:30px;'><p>Press '0' for B</p> </div> </div></div>","null","","","","","","","","","","","","","",""
"2609","","test","audio-keyboard-response","185","614385","0.0-8.0-1.78","5edfb9d6b8a6fc2bcc55c24f","condB","","resources/audio/wordStim/S9_AI_23_axb_Step-6.wav","48","","","","","AI","resources/audio/wordStim/S9_AI_23_axb_Step-6.wav","S9","23","axb","6","CN","0","0","true"
"null","","fixation","html-keyboard-response","186","615419","0.0-8.0-0.79","5edfb9d6b8a6fc2bcc55c24f","condB","","<div class=""vertical-center"" style='width:60%;'><p style='font-weight:bold;'>Does the middle word sound more like the first word (A) or the last word (B)?</p> <br> <div class=""container""> <div id=""a-box""> <p class=""title-text"">A</h3></p> </div> <div id=""x-box""> <p class=""title-text"">X<p> </div> <div id=""b-box""> <p class=""title-text"">B</p></div> <br> <div style='float: left;padding-left:30px;'><p>Press '1' for A</p></div><div style='float: right;padding-right:30px;'><p>Press '0' for B</p> </div> </div></div>","null","","","","","","","","","","","","","",""
"3468","","test","audio-keyboard-response","187","618901","0.0-8.0-1.79","5edfb9d6b8a6fc2bcc55c24f","condB","","resources/audio/wordStim/S9_AI_22_bxa_Step-10.wav","48","","","","","AI","resources/audio/wordStim/S9_AI_22_bxa_Step-10.wav","S9","22","bxa","10","CN","1","0","false"
"null","","fixation","html-keyboard-response","188","619919","0.0-8.0-0.80","5edfb9d6b8a6fc2bcc55c24f","condB","","<div class=""vertical-center"" style='width:60%;'><p style='font-weight:bold;'>Does the middle word sound more like the first word (A) or the last word (B)?</p> <br> <div class=""container""> <div id=""a-box""> <p class=""title-text"">A</h3></p> </div> <div id=""x-box""> <p class=""title-text"">X<p> </div> <div id=""b-box""> <p class=""title-text"">B</p></div> <br> <div style='float: left;padding-left:30px;'><p>Press '1' for A</p></div><div style='float: right;padding-right:30px;'><p>Press '0' for B</p> </div> </div></div>","null","","","","","","","","","","","","","",""
"2749","","test","audio-keyboard-response","189","622676","0.0-8.0-1.80","5edfb9d6b8a6fc2bcc55c24f","condB","","resources/audio/wordStim/S9_AU_13_bxa_Step-3.wav","49","","","","","AU","resources/audio/wordStim/S9_AU_13_bxa_Step-3.wav","S9","13","bxa","3","CN","1","1","true"
"1230.7950000104029","","break","html-keyboard-response","190","624422","0.0-8.0-2.80-0.80","5edfb9d6b8a6fc2bcc55c24f","condB","","<div class=""vertical-center""><p>Feel free to take a break!</p><i>When you're ready to continue, press SPACE to begin the next trial.</i></p></div>","32","","","","","","","","","","","","","",""
"null","","fixation","html-keyboard-response","191","624931","0.0-8.0-0.81","5edfb9d6b8a6fc2bcc55c24f","condB","","<div class=""vertical-center"" style='width:60%;'><p style='font-weight:bold;'>Does the middle word sound more like the first word (A) or the last word (B)?</p> <br> <div class=""container""> <div id=""a-box""> <p class=""title-text"">A</h3></p> </div> <div id=""x-box""> <p class=""title-text"">X<p> </div> <div id=""b-box""> <p class=""title-text"">B</p></div> <br> <div style='float: left;padding-left:30px;'><p>Press '1' for A</p></div><div style='float: right;padding-right:30px;'><p>Press '0' for B</p> </div> </div></div>","null","","","","","","","","","","","","","",""
"3181","","test","audio-keyboard-response","192","628119","0.0-8.0-1.81","5edfb9d6b8a6fc2bcc55c24f","condB","","resources/audio/wordStim/S9_AI_30_axb_Step-4.wav","49","","","","","AI","resources/audio/wordStim/S9_AI_30_axb_Step-4.wav","S9","30","axb","4","CN","0","1","false"
"null","","fixation","html-keyboard-response","193","629138","0.0-8.0-0.82","5edfb9d6b8a6fc2bcc55c24f","condB","","<div class=""vertical-center"" style='width:60%;'><p style='font-weight:bold;'>Does the middle word sound more like the first word (A) or the last word (B)?</p> <br> <div class=""container""> <div id=""a-box""> <p class=""title-text"">A</h3></p> </div> <div id=""x-box""> <p class=""title-text"">X<p> </div> <div id=""b-box""> <p class=""title-text"">B</p></div> <br> <div style='float: left;padding-left:30px;'><p>Press '1' for A</p></div><div style='float: right;padding-right:30px;'><p>Press '0' for B</p> </div> </div></div>","null","","","","","","","","","","","","","",""
"3779","","test","audio-keyboard-response","194","632922","0.0-8.0-1.82","5edfb9d6b8a6fc2bcc55c24f","condB","","resources/audio/wordStim/S3_AI_21_bxa_Step-9.wav","49","","","","","AI","resources/audio/wordStim/S3_AI_21_bxa_Step-9.wav","S3","21","bxa","9","MI","1","1","true"
"null","","fixation","html-keyboard-response","195","633951","0.0-8.0-0.83","5edfb9d6b8a6fc2bcc55c24f","condB","","<div class=""vertical-center"" style='width:60%;'><p style='font-weight:bold;'>Does the middle word sound more like the first word (A) or the last word (B)?</p> <br> <div class=""container""> <div id=""a-box""> <p class=""title-text"">A</h3></p> </div> <div id=""x-box""> <p class=""title-text"">X<p> </div> <div id=""b-box""> <p class=""title-text"">B</p></div> <br> <div style='float: left;padding-left:30px;'><p>Press '1' for A</p></div><div style='float: right;padding-right:30px;'><p>Press '0' for B</p> </div> </div></div>","null","","","","","","","","","","","","","",""
"2670","","test","audio-keyboard-response","196","636626","0.0-8.0-1.83","5edfb9d6b8a6fc2bcc55c24f","condB","","resources/audio/wordStim/S3_AU_15_bxa_Step-10.wav","49","","","","","AU","resources/audio/wordStim/S3_AU_15_bxa_Step-10.wav","S3","15","bxa","10","MI","1","1","true"
"null","","fixation","html-keyboard-response","197","637649","0.0-8.0-0.84","5edfb9d6b8a6fc2bcc55c24f","condB","","<div class=""vertical-center"" style='width:60%;'><p style='font-weight:bold;'>Does the middle word sound more like the first word (A) or the last word (B)?</p> <br> <div class=""container""> <div id=""a-box""> <p class=""title-text"">A</h3></p> </div> <div id=""x-box""> <p class=""title-text"">X<p> </div> <div id=""b-box""> <p class=""title-text"">B</p></div> <br> <div style='float: left;padding-left:30px;'><p>Press '1' for A</p></div><div style='float: right;padding-right:30px;'><p>Press '0' for B</p> </div> </div></div>","null","","","","","","","","","","","","","",""
"3631","","test","audio-keyboard-response","198","641283","0.0-8.0-1.84","5edfb9d6b8a6fc2bcc55c24f","condB","","resources/audio/wordStim/S9_AU_16_bxa_Step-3.wav","49","","","","","AU","resources/audio/wordStim/S9_AU_16_bxa_Step-3.wav","S9","16","bxa","3","CN","1","1","true"
"null","","fixation","html-keyboard-response","199","642310","0.0-8.0-0.85","5edfb9d6b8a6fc2bcc55c24f","condB","","<div class=""vertical-center"" style='width:60%;'><p style='font-weight:bold;'>Does the middle word sound more like the first word (A) or the last word (B)?</p> <br> <div class=""container""> <div id=""a-box""> <p class=""title-text"">A</h3></p> </div> <div id=""x-box""> <p class=""title-text"">X<p> </div> <div id=""b-box""> <p class=""title-text"">B</p></div> <br> <div style='float: left;padding-left:30px;'><p>Press '1' for A</p></div><div style='float: right;padding-right:30px;'><p>Press '0' for B</p> </div> </div></div>","null","","","","","","","","","","","","","",""
"2531","","test","audio-keyboard-response","200","644841","0.0-8.0-1.85","5edfb9d6b8a6fc2bcc55c24f","condB","","resources/audio/wordStim/S9_AU_16_bxa_Step-5.wav","48","","","","","AU","resources/audio/wordStim/S9_AU_16_bxa_Step-5.wav","S9","16","bxa","5","CN","1","0","false"
"null","","fixation","html-keyboard-response","201","645879","0.0-8.0-0.86","5edfb9d6b8a6fc2bcc55c24f","condB","","<div class=""vertical-center"" style='width:60%;'><p style='font-weight:bold;'>Does the middle word sound more like the first word (A) or the last word (B)?</p> <br> <div class=""container""> <div id=""a-box""> <p class=""title-text"">A</h3></p> </div> <div id=""x-box""> <p class=""title-text"">X<p> </div> <div id=""b-box""> <p class=""title-text"">B</p></div> <br> <div style='float: left;padding-left:30px;'><p>Press '1' for A</p></div><div style='float: right;padding-right:30px;'><p>Press '0' for B</p> </div> </div></div>","null","","","","","","","","","","","","","",""
"3631","","test","audio-keyboard-response","202","649514","0.0-8.0-1.86","5edfb9d6b8a6fc2bcc55c24f","condB","","resources/audio/wordStim/S9_AI_29_bxa_Step-7.wav","49","","","","","AI","resources/audio/wordStim/S9_AI_29_bxa_Step-7.wav","S9","29","bxa","7","CN","1","1","true"
"null","","fixation","html-keyboard-response","203","650531","0.0-8.0-0.87","5edfb9d6b8a6fc2bcc55c24f","condB","","<div class=""vertical-center"" style='width:60%;'><p style='font-weight:bold;'>Does the middle word sound more like the first word (A) or the last word (B)?</p> <br> <div class=""container""> <div id=""a-box""> <p class=""title-text"">A</h3></p> </div> <div id=""x-box""> <p class=""title-text"">X<p> </div> <div id=""b-box""> <p class=""title-text"">B</p></div> <br> <div style='float: left;padding-left:30px;'><p>Press '1' for A</p></div><div style='float: right;padding-right:30px;'><p>Press '0' for B</p> </div> </div></div>","null","","","","","","","","","","","","","",""
"2810","","test","audio-keyboard-response","204","653345","0.0-8.0-1.87","5edfb9d6b8a6fc2bcc55c24f","condB","","resources/audio/wordStim/S9_AI_25_bxa_Step-5.wav","49","","","","","AI","resources/audio/wordStim/S9_AI_25_bxa_Step-5.wav","S9","25","bxa","5","CN","1","1","true"
"null","","fixation","html-keyboard-response","205","654352","0.0-8.0-0.88","5edfb9d6b8a6fc2bcc55c24f","condB","","<div class=""vertical-center"" style='width:60%;'><p style='font-weight:bold;'>Does the middle word sound more like the first word (A) or the last word (B)?</p> <br> <div class=""container""> <div id=""a-box""> <p class=""title-text"">A</h3></p> </div> <div id=""x-box""> <p class=""title-text"">X<p> </div> <div id=""b-box""> <p class=""title-text"">B</p></div> <br> <div style='float: left;padding-left:30px;'><p>Press '1' for A</p></div><div style='float: right;padding-right:30px;'><p>Press '0' for B</p> </div> </div></div>","null","","","","","","","","","","","","","",""
"3010","","test","audio-keyboard-response","206","657361","0.0-8.0-1.88","5edfb9d6b8a6fc2bcc55c24f","condB","","resources/audio/wordStim/S9_AI_27_bxa_Step-10.wav","49","","","","","AI","resources/audio/wordStim/S9_AI_27_bxa_Step-10.wav","S9","27","bxa","10","CN","1","1","true"
"null","","fixation","html-keyboard-response","207","658395","0.0-8.0-0.89","5edfb9d6b8a6fc2bcc55c24f","condB","","<div class=""vertical-center"" style='width:60%;'><p style='font-weight:bold;'>Does the middle word sound more like the first word (A) or the last word (B)?</p> <br> <div class=""container""> <div id=""a-box""> <p class=""title-text"">A</h3></p> </div> <div id=""x-box""> <p class=""title-text"">X<p> </div> <div id=""b-box""> <p class=""title-text"">B</p></div> <br> <div style='float: left;padding-left:30px;'><p>Press '1' for A</p></div><div style='float: right;padding-right:30px;'><p>Press '0' for B</p> </div> </div></div>","null","","","","","","","","","","","","","",""
"3451","","test","audio-keyboard-response","208","661844","0.0-8.0-1.89","5edfb9d6b8a6fc2bcc55c24f","condB","","resources/audio/wordStim/S3_AI_29_axb_Step-4.wav","49","","","","","AI","resources/audio/wordStim/S3_AI_29_axb_Step-4.wav","S3","29","axb","4","MI","0","1","false"
"null","","fixation","html-keyboard-response","209","662861","0.0-8.0-0.90","5edfb9d6b8a6fc2bcc55c24f","condB","","<div class=""vertical-center"" style='width:60%;'><p style='font-weight:bold;'>Does the middle word sound more like the first word (A) or the last word (B)?</p> <br> <div class=""container""> <div id=""a-box""> <p class=""title-text"">A</h3></p> </div> <div id=""x-box""> <p class=""title-text"">X<p> </div> <div id=""b-box""> <p class=""title-text"">B</p></div> <br> <div style='float: left;padding-left:30px;'><p>Press '1' for A</p></div><div style='float: right;padding-right:30px;'><p>Press '0' for B</p> </div> </div></div>","null","","","","","","","","","","","","","",""
"4061","","test","audio-keyboard-response","210","666928","0.0-8.0-1.90","5edfb9d6b8a6fc2bcc55c24f","condB","","resources/audio/wordStim/S3_AU_17_axb_Step-8.wav","49","","","","","AU","resources/audio/wordStim/S3_AU_17_axb_Step-8.wav","S3","17","axb","8","MI","0","1","false"
"null","","fixation","html-keyboard-response","211","667959","0.0-8.0-0.91","5edfb9d6b8a6fc2bcc55c24f","condB","","<div class=""vertical-center"" style='width:60%;'><p style='font-weight:bold;'>Does the middle word sound more like the first word (A) or the last word (B)?</p> <br> <div class=""container""> <div id=""a-box""> <p class=""title-text"">A</h3></p> </div> <div id=""x-box""> <p class=""title-text"">X<p> </div> <div id=""b-box""> <p class=""title-text"">B</p></div> <br> <div style='float: left;padding-left:30px;'><p>Press '1' for A</p></div><div style='float: right;padding-right:30px;'><p>Press '0' for B</p> </div> </div></div>","null","","","","","","","","","","","","","",""
"3001","","test","audio-keyboard-response","212","670964","0.0-8.0-1.91","5edfb9d6b8a6fc2bcc55c24f","condB","","resources/audio/wordStim/S3_AU_20_axb_Step-6.wav","49","","","","","AU","resources/audio/wordStim/S3_AU_20_axb_Step-6.wav","S3","20","axb","6","MI","0","1","false"
"null","","fixation","html-keyboard-response","213","671980","0.0-8.0-0.92","5edfb9d6b8a6fc2bcc55c24f","condB","","<div class=""vertical-center"" style='width:60%;'><p style='font-weight:bold;'>Does the middle word sound more like the first word (A) or the last word (B)?</p> <br> <div class=""container""> <div id=""a-box""> <p class=""title-text"">A</h3></p> </div> <div id=""x-box""> <p class=""title-text"">X<p> </div> <div id=""b-box""> <p class=""title-text"">B</p></div> <br> <div style='float: left;padding-left:30px;'><p>Press '1' for A</p></div><div style='float: right;padding-right:30px;'><p>Press '0' for B</p> </div> </div></div>","null","","","","","","","","","","","","","",""
"3100","","test","audio-keyboard-response","214","675081","0.0-8.0-1.92","5edfb9d6b8a6fc2bcc55c24f","condB","","resources/audio/wordStim/S9_AU_11_bxa_Step-10.wav","49","","","","","AU","resources/audio/wordStim/S9_AU_11_bxa_Step-10.wav","S9","11","bxa","10","CN","1","1","true"
