"rt","url","trial_role","trial_type","trial_index","time_elapsed","internal_node_id","participantId","condition","view_history","stimulus","key_press","button_pressed","correct_answer","correct_response","success","vowel","wordStim","speaker","sentNum","order","step","speakerIdentity","raised_answer","key_response","raised_response"
"34316.259999759495","micr.con.consent.html","consent","external-html","0","34363","0.0-0.0","5f330e4efbd63510972cffd1","condB","","","","","","","","","","","","","","","","",""
"106452.5450002402","","instructions","instructions","1","140816","0.0-1.0","5f330e4efbd63510972cffd1","condB","[{""page_index"":0,""viewing_time"":60056.92999996245},{""page_index"":1,""viewing_time"":31323.59499949962},{""page_index"":2,""viewing_time"":15071.170000359416}]","","","","","","","","","","","","","","","",""
"null","","fixation","html-keyboard-response","2","141318","0.0-2.0-0.0","5f330e4efbd63510972cffd1","condB","","<div class=""vertical-center"" style=""font-size:60px;"">+</div>","null","","","","","","","","","","","","","",""
"5374.750000424683","","tonetest","audio-button-response","3","146694","0.0-2.0-1.0","5f330e4efbd63510972cffd1","condB","","../../src/audio/toneTest_3.wav","","0","2","false","","","","","","","","","","",""
"null","","fixation","html-keyboard-response","4","147196","0.0-2.0-0.1","5f330e4efbd63510972cffd1","condB","","<div class=""vertical-center"" style=""font-size:60px;"">+</div>","null","","","","","","","","","","","","","",""
"4726.6099993139505","","tonetest","audio-button-response","5","151925","0.0-2.0-1.1","5f330e4efbd63510972cffd1","condB","","../../src/audio/toneTest_4.wav","","0","1","false","","","","","","","","","","",""
"null","","fixation","html-keyboard-response","6","152427","0.0-2.0-0.2","5f330e4efbd63510972cffd1","condB","","<div class=""vertical-center"" style=""font-size:60px;"">+</div>","null","","","","","","","","","","","","","",""
"4832.329999655485","","tonetest","audio-button-response","7","157262","0.0-2.0-1.2","5f330e4efbd63510972cffd1","condB","","../../src/audio/toneTest_2.wav","","2","1","false","","","","","","","","","","",""
"null","","fixation","html-keyboard-response","8","157764","0.0-2.0-0.3","5f330e4efbd63510972cffd1","condB","","<div class=""vertical-center"" style=""font-size:60px;"">+</div>","null","","","","","","","","","","","","","",""
"4288.0899999290705","","tonetest","audio-button-response","9","162056","0.0-2.0-1.3","5f330e4efbd63510972cffd1","condB","","../../src/audio/toneTest_2.wav","","2","1","false","","","","","","","","","","",""
"null","","fixation","html-keyboard-response","10","162559","0.0-2.0-0.4","5f330e4efbd63510972cffd1","condB","","<div class=""vertical-center"" style=""font-size:60px;"">+</div>","null","","","","","","","","","","","","","",""
"4823.215000331402","","tonetest","audio-button-response","11","167387","0.0-2.0-1.4","5f330e4efbd63510972cffd1","condB","","../../src/audio/toneTest_1.wav","","1","2","false","","","","","","","","","","",""
"null","","fixation","html-keyboard-response","12","167891","0.0-2.0-0.5","5f330e4efbd63510972cffd1","condB","","<div class=""vertical-center"" style=""font-size:60px;"">+</div>","null","","","","","","","","","","","","","",""
"4430.6600000709295","","tonetest","audio-button-response","13","172326","0.0-2.0-1.5","5f330e4efbd63510972cffd1","condB","","../../src/audio/toneTest_6.wav","","1","0","false","","","","","","","","","","",""
"75282.82000031322","","instructions","html-keyboard-response","14","247614","0.0-3.0","5f330e4efbd63510972cffd1","condB","","<div class=""vertical-center""><p><b>Your score was 0/6.</b></p><p>If you scored below 6, please ensure that you are wearing properly functioning headphones and in a quiet location free of distractions.</p><p><i>To continue to the main experiment, press SPACE.</i></p></div>","32","","","","","","","","","","","","","",""
"","","","fullscreen","15","251295","0.0-4.0","5f330e4efbd63510972cffd1","condB","","","","","","","true","","","","","","","","","",""
"40574.2250001058","","instructions","instructions","16","291871","0.0-5.0","5f330e4efbd63510972cffd1","condB","[{""page_index"":0,""viewing_time"":40573.9350002259}]","","","","","","","","","","","","","","","",""
"null","","fixation","html-keyboard-response","17","292372","0.0-6.0-0.0","5f330e4efbd63510972cffd1","condB","","<div class=""vertical-center"" style='width:60%;'><p style='font-weight:bold;'>Does the middle word sound more like the first word (A) or the last word (B)?</p> <br> <div class=""container""> <div id=""a-box""> <p class=""title-text"">A</h3></p> </div> <div id=""x-box""> <p class=""title-text"">X<p> </div> <div id=""b-box""> <p class=""title-text"">B</p></div> <br> <div style='float: left;padding-left:30px;'><p>Press '1' for A</p></div><div style='float: right;padding-right:30px;'><p>Press '0' for B</p> </div> </div></div>","null","","","","","","","","","","","","","",""
"4571","","practice","audio-keyboard-response","18","296954","0.0-6.0-1.0","5f330e4efbd63510972cffd1","condB","","resources/audio/practiceStim/S1_AI_21_axb_Step-6.wav","49","","","","","","","","","","","","","",""
"null","","fixation","html-keyboard-response","19","297956","0.0-6.0-0.1","5f330e4efbd63510972cffd1","condB","","<div class=""vertical-center"" style='width:60%;'><p style='font-weight:bold;'>Does the middle word sound more like the first word (A) or the last word (B)?</p> <br> <div class=""container""> <div id=""a-box""> <p class=""title-text"">A</h3></p> </div> <div id=""x-box""> <p class=""title-text"">X<p> </div> <div id=""b-box""> <p class=""title-text"">B</p></div> <br> <div style='float: left;padding-left:30px;'><p>Press '1' for A</p></div><div style='float: right;padding-right:30px;'><p>Press '0' for B</p> </div> </div></div>","null","","","","","","","","","","","","","",""
"3469","","practice","audio-keyboard-response","20","301422","0.0-6.0-1.1","5f330e4efbd63510972cffd1","condB","","resources/audio/practiceStim/S1_AU_14_bxa_Step-6.wav","48","","","","","","","","","","","","","",""
"null","","fixation","html-keyboard-response","21","302425","0.0-6.0-0.2","5f330e4efbd63510972cffd1","condB","","<div class=""vertical-center"" style='width:60%;'><p style='font-weight:bold;'>Does the middle word sound more like the first word (A) or the last word (B)?</p> <br> <div class=""container""> <div id=""a-box""> <p class=""title-text"">A</h3></p> </div> <div id=""x-box""> <p class=""title-text"">X<p> </div> <div id=""b-box""> <p class=""title-text"">B</p></div> <br> <div style='float: left;padding-left:30px;'><p>Press '1' for A</p></div><div style='float: right;padding-right:30px;'><p>Press '0' for B</p> </div> </div></div>","null","","","","","","","","","","","","","",""
"4021","","practice","audio-keyboard-response","22","306445","0.0-6.0-1.2","5f330e4efbd63510972cffd1","condB","","resources/audio/practiceStim/S1_AI_21_bxa_Step-6.wav","49","","","","","","","","","","","","","",""
"null","","fixation","html-keyboard-response","23","307448","0.0-6.0-0.3","5f330e4efbd63510972cffd1","condB","","<div class=""vertical-center"" style='width:60%;'><p style='font-weight:bold;'>Does the middle word sound more like the first word (A) or the last word (B)?</p> <br> <div class=""container""> <div id=""a-box""> <p class=""title-text"">A</h3></p> </div> <div id=""x-box""> <p class=""title-text"">X<p> </div> <div id=""b-box""> <p class=""title-text"">B</p></div> <br> <div style='float: left;padding-left:30px;'><p>Press '1' for A</p></div><div style='float: right;padding-right:30px;'><p>Press '0' for B</p> </div> </div></div>","null","","","","","","","","","","","","","",""
"2989","","practice","audio-keyboard-response","24","310437","0.0-6.0-1.3","5f330e4efbd63510972cffd1","condB","","resources/audio/practiceStim/S1_AU_14_axb_Step-6.wav","49","","","","","","","","","","","","","",""
"5075.690000317991","","instructions","instructions","25","316015","0.0-7.0","5f330e4efbd63510972cffd1","condB","[{""page_index"":0,""viewing_time"":5075.404999777675}]","","","","","","","","","","","","","","","",""
"null","","fixation","html-keyboard-response","26","316518","0.0-8.0-0.0","5f330e4efbd63510972cffd1","condB","","<div class=""vertical-center"" style='width:60%;'><p style='font-weight:bold;'>Does the middle word sound more like the first word (A) or the last word (B)?</p> <br> <div class=""container""> <div id=""a-box""> <p class=""title-text"">A</h3></p> </div> <div id=""x-box""> <p class=""title-text"">X<p> </div> <div id=""b-box""> <p class=""title-text"">B</p></div> <br> <div style='float: left;padding-left:30px;'><p>Press '1' for A</p></div><div style='float: right;padding-right:30px;'><p>Press '0' for B</p> </div> </div></div>","null","","","","","","","","","","","","","",""
"3211","","test","audio-keyboard-response","27","319726","0.0-8.0-1.0","5f330e4efbd63510972cffd1","condB","","resources/audio/wordStim/S9_AI_23_bxa_Step-5.wav","48","","","","","AI","resources/audio/wordStim/S9_AI_23_bxa_Step-5.wav","S9","23","bxa","5","CN","1","0","false"
"null","","fixation","html-keyboard-response","28","320729","0.0-8.0-0.1","5f330e4efbd63510972cffd1","condB","","<div class=""vertical-center"" style='width:60%;'><p style='font-weight:bold;'>Does the middle word sound more like the first word (A) or the last word (B)?</p> <br> <div class=""container""> <div id=""a-box""> <p class=""title-text"">A</h3></p> </div> <div id=""x-box""> <p class=""title-text"">X<p> </div> <div id=""b-box""> <p class=""title-text"">B</p></div> <br> <div style='float: left;padding-left:30px;'><p>Press '1' for A</p></div><div style='float: right;padding-right:30px;'><p>Press '0' for B</p> </div> </div></div>","null","","","","","","","","","","","","","",""
"3429","","test","audio-keyboard-response","29","324156","0.0-8.0-1.1","5f330e4efbd63510972cffd1","condB","","resources/audio/wordStim/S9_AU_13_axb_Step-2.wav","49","","","","","AU","resources/audio/wordStim/S9_AU_13_axb_Step-2.wav","S9","13","axb","2","CN","0","1","false"
"null","","fixation","html-keyboard-response","30","325158","0.0-8.0-0.2","5f330e4efbd63510972cffd1","condB","","<div class=""vertical-center"" style='width:60%;'><p style='font-weight:bold;'>Does the middle word sound more like the first word (A) or the last word (B)?</p> <br> <div class=""container""> <div id=""a-box""> <p class=""title-text"">A</h3></p> </div> <div id=""x-box""> <p class=""title-text"">X<p> </div> <div id=""b-box""> <p class=""title-text"">B</p></div> <br> <div style='float: left;padding-left:30px;'><p>Press '1' for A</p></div><div style='float: right;padding-right:30px;'><p>Press '0' for B</p> </div> </div></div>","null","","","","","","","","","","","","","",""
"3400","","test","audio-keyboard-response","31","328554","0.0-8.0-1.2","5f330e4efbd63510972cffd1","condB","","resources/audio/wordStim/S9_AI_27_axb_Step-4.wav","49","","","","","AI","resources/audio/wordStim/S9_AI_27_axb_Step-4.wav","S9","27","axb","4","CN","0","1","false"
"null","","fixation","html-keyboard-response","32","329558","0.0-8.0-0.3","5f330e4efbd63510972cffd1","condB","","<div class=""vertical-center"" style='width:60%;'><p style='font-weight:bold;'>Does the middle word sound more like the first word (A) or the last word (B)?</p> <br> <div class=""container""> <div id=""a-box""> <p class=""title-text"">A</h3></p> </div> <div id=""x-box""> <p class=""title-text"">X<p> </div> <div id=""b-box""> <p class=""title-text"">B</p></div> <br> <div style='float: left;padding-left:30px;'><p>Press '1' for A</p></div><div style='float: right;padding-right:30px;'><p>Press '0' for B</p> </div> </div></div>","null","","","","","","","","","","","","","",""
"3251","","test","audio-keyboard-response","33","332809","0.0-8.0-1.3","5f330e4efbd63510972cffd1","condB","","resources/audio/wordStim/S3_AI_28_bxa_Step-3.wav","49","","","","","AI","resources/audio/wordStim/S3_AI_28_bxa_Step-3.wav","S3","28","bxa","3","MI","1","1","true"
"null","","fixation","html-keyboard-response","34","333813","0.0-8.0-0.4","5f330e4efbd63510972cffd1","condB","","<div class=""vertical-center"" style='width:60%;'><p style='font-weight:bold;'>Does the middle word sound more like the first word (A) or the last word (B)?</p> <br> <div class=""container""> <div id=""a-box""> <p class=""title-text"">A</h3></p> </div> <div id=""x-box""> <p class=""title-text"">X<p> </div> <div id=""b-box""> <p class=""title-text"">B</p></div> <br> <div style='float: left;padding-left:30px;'><p>Press '1' for A</p></div><div style='float: right;padding-right:30px;'><p>Press '0' for B</p> </div> </div></div>","null","","","","","","","","","","","","","",""
"3312","","test","audio-keyboard-response","35","337126","0.0-8.0-1.4","5f330e4efbd63510972cffd1","condB","","resources/audio/wordStim/S9_AI_24_bxa_Step-3.wav","49","","","","","AI","resources/audio/wordStim/S9_AI_24_bxa_Step-3.wav","S9","24","bxa","3","CN","1","1","true"
"null","","fixation","html-keyboard-response","36","338130","0.0-8.0-0.5","5f330e4efbd63510972cffd1","condB","","<div class=""vertical-center"" style='width:60%;'><p style='font-weight:bold;'>Does the middle word sound more like the first word (A) or the last word (B)?</p> <br> <div class=""container""> <div id=""a-box""> <p class=""title-text"">A</h3></p> </div> <div id=""x-box""> <p class=""title-text"">X<p> </div> <div id=""b-box""> <p class=""title-text"">B</p></div> <br> <div style='float: left;padding-left:30px;'><p>Press '1' for A</p></div><div style='float: right;padding-right:30px;'><p>Press '0' for B</p> </div> </div></div>","null","","","","","","","","","","","","","",""
"2840","","test","audio-keyboard-response","37","340977","0.0-8.0-1.5","5f330e4efbd63510972cffd1","condB","","resources/audio/wordStim/S9_AU_16_axb_Step-6.wav","49","","","","","AU","resources/audio/wordStim/S9_AU_16_axb_Step-6.wav","S9","16","axb","6","CN","0","1","false"
"null","","fixation","html-keyboard-response","38","341980","0.0-8.0-0.6","5f330e4efbd63510972cffd1","condB","","<div class=""vertical-center"" style='width:60%;'><p style='font-weight:bold;'>Does the middle word sound more like the first word (A) or the last word (B)?</p> <br> <div class=""container""> <div id=""a-box""> <p class=""title-text"">A</h3></p> </div> <div id=""x-box""> <p class=""title-text"">X<p> </div> <div id=""b-box""> <p class=""title-text"">B</p></div> <br> <div style='float: left;padding-left:30px;'><p>Press '1' for A</p></div><div style='float: right;padding-right:30px;'><p>Press '0' for B</p> </div> </div></div>","null","","","","","","","","","","","","","",""
"3371","","test","audio-keyboard-response","39","345357","0.0-8.0-1.6","5f330e4efbd63510972cffd1","condB","","resources/audio/wordStim/S3_AU_14_bxa_Step-5.wav","49","","","","","AU","resources/audio/wordStim/S3_AU_14_bxa_Step-5.wav","S3","14","bxa","5","MI","1","1","true"
"null","","fixation","html-keyboard-response","40","346360","0.0-8.0-0.7","5f330e4efbd63510972cffd1","condB","","<div class=""vertical-center"" style='width:60%;'><p style='font-weight:bold;'>Does the middle word sound more like the first word (A) or the last word (B)?</p> <br> <div class=""container""> <div id=""a-box""> <p class=""title-text"">A</h3></p> </div> <div id=""x-box""> <p class=""title-text"">X<p> </div> <div id=""b-box""> <p class=""title-text"">B</p></div> <br> <div style='float: left;padding-left:30px;'><p>Press '1' for A</p></div><div style='float: right;padding-right:30px;'><p>Press '0' for B</p> </div> </div></div>","null","","","","","","","","","","","","","",""
"4259","","test","audio-keyboard-response","41","350631","0.0-8.0-1.7","5f330e4efbd63510972cffd1","condB","","resources/audio/wordStim/S9_AU_13_bxa_Step-7.wav","48","","","","","AU","resources/audio/wordStim/S9_AU_13_bxa_Step-7.wav","S9","13","bxa","7","CN","1","0","false"
"null","","fixation","html-keyboard-response","42","351635","0.0-8.0-0.8","5f330e4efbd63510972cffd1","condB","","<div class=""vertical-center"" style='width:60%;'><p style='font-weight:bold;'>Does the middle word sound more like the first word (A) or the last word (B)?</p> <br> <div class=""container""> <div id=""a-box""> <p class=""title-text"">A</h3></p> </div> <div id=""x-box""> <p class=""title-text"">X<p> </div> <div id=""b-box""> <p class=""title-text"">B</p></div> <br> <div style='float: left;padding-left:30px;'><p>Press '1' for A</p></div><div style='float: right;padding-right:30px;'><p>Press '0' for B</p> </div> </div></div>","null","","","","","","","","","","","","","",""
"3269","","test","audio-keyboard-response","43","354904","0.0-8.0-1.8","5f330e4efbd63510972cffd1","condB","","resources/audio/wordStim/S3_AU_15_bxa_Step-7.wav","49","","","","","AU","resources/audio/wordStim/S3_AU_15_bxa_Step-7.wav","S3","15","bxa","7","MI","1","1","true"
"null","","fixation","html-keyboard-response","44","355909","0.0-8.0-0.9","5f330e4efbd63510972cffd1","condB","","<div class=""vertical-center"" style='width:60%;'><p style='font-weight:bold;'>Does the middle word sound more like the first word (A) or the last word (B)?</p> <br> <div class=""container""> <div id=""a-box""> <p class=""title-text"">A</h3></p> </div> <div id=""x-box""> <p class=""title-text"">X<p> </div> <div id=""b-box""> <p class=""title-text"">B</p></div> <br> <div style='float: left;padding-left:30px;'><p>Press '1' for A</p></div><div style='float: right;padding-right:30px;'><p>Press '0' for B</p> </div> </div></div>","null","","","","","","","","","","","","","",""
"3520","","test","audio-keyboard-response","45","359425","0.0-8.0-1.9","5f330e4efbd63510972cffd1","condB","","resources/audio/wordStim/S3_AI_29_axb_Step-8.wav","49","","","","","AI","resources/audio/wordStim/S3_AI_29_axb_Step-8.wav","S3","29","axb","8","MI","0","1","false"
"null","","fixation","html-keyboard-response","46","360427","0.0-8.0-0.10","5f330e4efbd63510972cffd1","condB","","<div class=""vertical-center"" style='width:60%;'><p style='font-weight:bold;'>Does the middle word sound more like the first word (A) or the last word (B)?</p> <br> <div class=""container""> <div id=""a-box""> <p class=""title-text"">A</h3></p> </div> <div id=""x-box""> <p class=""title-text"">X<p> </div> <div id=""b-box""> <p class=""title-text"">B</p></div> <br> <div style='float: left;padding-left:30px;'><p>Press '1' for A</p></div><div style='float: right;padding-right:30px;'><p>Press '0' for B</p> </div> </div></div>","null","","","","","","","","","","","","","",""
"3240","","test","audio-keyboard-response","47","363667","0.0-8.0-1.10","5f330e4efbd63510972cffd1","condB","","resources/audio/wordStim/S9_AU_11_axb_Step-4.wav","49","","","","","AU","resources/audio/wordStim/S9_AU_11_axb_Step-4.wav","S9","11","axb","4","CN","0","1","false"
"null","","fixation","html-keyboard-response","48","364669","0.0-8.0-0.11","5f330e4efbd63510972cffd1","condB","","<div class=""vertical-center"" style='width:60%;'><p style='font-weight:bold;'>Does the middle word sound more like the first word (A) or the last word (B)?</p> <br> <div class=""container""> <div id=""a-box""> <p class=""title-text"">A</h3></p> </div> <div id=""x-box""> <p class=""title-text"">X<p> </div> <div id=""b-box""> <p class=""title-text"">B</p></div> <br> <div style='float: left;padding-left:30px;'><p>Press '1' for A</p></div><div style='float: right;padding-right:30px;'><p>Press '0' for B</p> </div> </div></div>","null","","","","","","","","","","","","","",""
"2869","","test","audio-keyboard-response","49","367546","0.0-8.0-1.11","5f330e4efbd63510972cffd1","condB","","resources/audio/wordStim/S9_AU_20_bxa_Step-9.wav","49","","","","","AU","resources/audio/wordStim/S9_AU_20_bxa_Step-9.wav","S9","20","bxa","9","CN","1","1","true"
"null","","fixation","html-keyboard-response","50","368550","0.0-8.0-0.12","5f330e4efbd63510972cffd1","condB","","<div class=""vertical-center"" style='width:60%;'><p style='font-weight:bold;'>Does the middle word sound more like the first word (A) or the last word (B)?</p> <br> <div class=""container""> <div id=""a-box""> <p class=""title-text"">A</h3></p> </div> <div id=""x-box""> <p class=""title-text"">X<p> </div> <div id=""b-box""> <p class=""title-text"">B</p></div> <br> <div style='float: left;padding-left:30px;'><p>Press '1' for A</p></div><div style='float: right;padding-right:30px;'><p>Press '0' for B</p> </div> </div></div>","null","","","","","","","","","","","","","",""
"2760","","test","audio-keyboard-response","51","371304","0.0-8.0-1.12","5f330e4efbd63510972cffd1","condB","","resources/audio/wordStim/S3_AI_28_axb_Step-2.wav","49","","","","","AI","resources/audio/wordStim/S3_AI_28_axb_Step-2.wav","S3","28","axb","2","MI","0","1","false"
"null","","fixation","html-keyboard-response","52","372310","0.0-8.0-0.13","5f330e4efbd63510972cffd1","condB","","<div class=""vertical-center"" style='width:60%;'><p style='font-weight:bold;'>Does the middle word sound more like the first word (A) or the last word (B)?</p> <br> <div class=""container""> <div id=""a-box""> <p class=""title-text"">A</h3></p> </div> <div id=""x-box""> <p class=""title-text"">X<p> </div> <div id=""b-box""> <p class=""title-text"">B</p></div> <br> <div style='float: left;padding-left:30px;'><p>Press '1' for A</p></div><div style='float: right;padding-right:30px;'><p>Press '0' for B</p> </div> </div></div>","null","","","","","","","","","","","","","",""
"3749","","test","audio-keyboard-response","53","376065","0.0-8.0-1.13","5f330e4efbd63510972cffd1","condB","","resources/audio/wordStim/S3_AI_25_axb_Step-8.wav","49","","","","","AI","resources/audio/wordStim/S3_AI_25_axb_Step-8.wav","S3","25","axb","8","MI","0","1","false"
"null","","fixation","html-keyboard-response","54","377068","0.0-8.0-0.14","5f330e4efbd63510972cffd1","condB","","<div class=""vertical-center"" style='width:60%;'><p style='font-weight:bold;'>Does the middle word sound more like the first word (A) or the last word (B)?</p> <br> <div class=""container""> <div id=""a-box""> <p class=""title-text"">A</h3></p> </div> <div id=""x-box""> <p class=""title-text"">X<p> </div> <div id=""b-box""> <p class=""title-text"">B</p></div> <br> <div style='float: left;padding-left:30px;'><p>Press '1' for A</p></div><div style='float: right;padding-right:30px;'><p>Press '0' for B</p> </div> </div></div>","null","","","","","","","","","","","","","",""
"2851","","test","audio-keyboard-response","55","379914","0.0-8.0-1.14","5f330e4efbd63510972cffd1","condB","","resources/audio/wordStim/S3_AU_11_axb_Step-2.wav","49","","","","","AU","resources/audio/wordStim/S3_AU_11_axb_Step-2.wav","S3","11","axb","2","MI","0","1","false"
"null","","fixation","html-keyboard-response","56","380917","0.0-8.0-0.15","5f330e4efbd63510972cffd1","condB","","<div class=""vertical-center"" style='width:60%;'><p style='font-weight:bold;'>Does the middle word sound more like the first word (A) or the last word (B)?</p> <br> <div class=""container""> <div id=""a-box""> <p class=""title-text"">A</h3></p> </div> <div id=""x-box""> <p class=""title-text"">X<p> </div> <div id=""b-box""> <p class=""title-text"">B</p></div> <br> <div style='float: left;padding-left:30px;'><p>Press '1' for A</p></div><div style='float: right;padding-right:30px;'><p>Press '0' for B</p> </div> </div></div>","null","","","","","","","","","","","","","",""
"4029","","test","audio-keyboard-response","57","384949","0.0-8.0-1.15","5f330e4efbd63510972cffd1","condB","","resources/audio/wordStim/S3_AU_16_bxa_Step-5.wav","49","","","","","AU","resources/audio/wordStim/S3_AU_16_bxa_Step-5.wav","S3","16","bxa","5","MI","1","1","true"
"null","","fixation","html-keyboard-response","58","385953","0.0-8.0-0.16","5f330e4efbd63510972cffd1","condB","","<div class=""vertical-center"" style='width:60%;'><p style='font-weight:bold;'>Does the middle word sound more like the first word (A) or the last word (B)?</p> <br> <div class=""container""> <div id=""a-box""> <p class=""title-text"">A</h3></p> </div> <div id=""x-box""> <p class=""title-text"">X<p> </div> <div id=""b-box""> <p class=""title-text"">B</p></div> <br> <div style='float: left;padding-left:30px;'><p>Press '1' for A</p></div><div style='float: right;padding-right:30px;'><p>Press '0' for B</p> </div> </div></div>","null","","","","","","","","","","","","","",""
"3419","","test","audio-keyboard-response","59","389371","0.0-8.0-1.16","5f330e4efbd63510972cffd1","condB","","resources/audio/wordStim/S3_AI_30_axb_Step-2.wav","49","","","","","AI","resources/audio/wordStim/S3_AI_30_axb_Step-2.wav","S3","30","axb","2","MI","0","1","false"
"null","","fixation","html-keyboard-response","60","390374","0.0-8.0-0.17","5f330e4efbd63510972cffd1","condB","","<div class=""vertical-center"" style='width:60%;'><p style='font-weight:bold;'>Does the middle word sound more like the first word (A) or the last word (B)?</p> <br> <div class=""container""> <div id=""a-box""> <p class=""title-text"">A</h3></p> </div> <div id=""x-box""> <p class=""title-text"">X<p> </div> <div id=""b-box""> <p class=""title-text"">B</p></div> <br> <div style='float: left;padding-left:30px;'><p>Press '1' for A</p></div><div style='float: right;padding-right:30px;'><p>Press '0' for B</p> </div> </div></div>","null","","","","","","","","","","","","","",""
"4011","","test","audio-keyboard-response","61","394383","0.0-8.0-1.17","5f330e4efbd63510972cffd1","condB","","resources/audio/wordStim/S9_AU_11_axb_Step-6.wav","49","","","","","AU","resources/audio/wordStim/S9_AU_11_axb_Step-6.wav","S9","11","axb","6","CN","0","1","false"
"null","","fixation","html-keyboard-response","62","395385","0.0-8.0-0.18","5f330e4efbd63510972cffd1","condB","","<div class=""vertical-center"" style='width:60%;'><p style='font-weight:bold;'>Does the middle word sound more like the first word (A) or the last word (B)?</p> <br> <div class=""container""> <div id=""a-box""> <p class=""title-text"">A</h3></p> </div> <div id=""x-box""> <p class=""title-text"">X<p> </div> <div id=""b-box""> <p class=""title-text"">B</p></div> <br> <div style='float: left;padding-left:30px;'><p>Press '1' for A</p></div><div style='float: right;padding-right:30px;'><p>Press '0' for B</p> </div> </div></div>","null","","","","","","","","","","","","","",""
"3341","","test","audio-keyboard-response","63","398728","0.0-8.0-1.18","5f330e4efbd63510972cffd1","condB","","resources/audio/wordStim/S9_AI_30_bxa_Step-5.wav","49","","","","","AI","resources/audio/wordStim/S9_AI_30_bxa_Step-5.wav","S9","30","bxa","5","CN","1","1","true"
"null","","fixation","html-keyboard-response","64","399731","0.0-8.0-0.19","5f330e4efbd63510972cffd1","condB","","<div class=""vertical-center"" style='width:60%;'><p style='font-weight:bold;'>Does the middle word sound more like the first word (A) or the last word (B)?</p> <br> <div class=""container""> <div id=""a-box""> <p class=""title-text"">A</h3></p> </div> <div id=""x-box""> <p class=""title-text"">X<p> </div> <div id=""b-box""> <p class=""title-text"">B</p></div> <br> <div style='float: left;padding-left:30px;'><p>Press '1' for A</p></div><div style='float: right;padding-right:30px;'><p>Press '0' for B</p> </div> </div></div>","null","","","","","","","","","","","","","",""
"3552","","test","audio-keyboard-response","65","403284","0.0-8.0-1.19","5f330e4efbd63510972cffd1","condB","","resources/audio/wordStim/S3_AU_15_axb_Step-2.wav","48","","","","","AU","resources/audio/wordStim/S3_AU_15_axb_Step-2.wav","S3","15","axb","2","MI","0","0","true"
"null","","fixation","html-keyboard-response","66","404286","0.0-8.0-0.20","5f330e4efbd63510972cffd1","condB","","<div class=""vertical-center"" style='width:60%;'><p style='font-weight:bold;'>Does the middle word sound more like the first word (A) or the last word (B)?</p> <br> <div class=""container""> <div id=""a-box""> <p class=""title-text"">A</h3></p> </div> <div id=""x-box""> <p class=""title-text"">X<p> </div> <div id=""b-box""> <p class=""title-text"">B</p></div> <br> <div style='float: left;padding-left:30px;'><p>Press '1' for A</p></div><div style='float: right;padding-right:30px;'><p>Press '0' for B</p> </div> </div></div>","null","","","","","","","","","","","","","",""
"3429","","test","audio-keyboard-response","67","407714","0.0-8.0-1.20","5f330e4efbd63510972cffd1","condB","","resources/audio/wordStim/S3_AU_18_axb_Step-4.wav","49","","","","","AU","resources/audio/wordStim/S3_AU_18_axb_Step-4.wav","S3","18","axb","4","MI","0","1","false"
"null","","fixation","html-keyboard-response","68","408716","0.0-8.0-0.21","5f330e4efbd63510972cffd1","condB","","<div class=""vertical-center"" style='width:60%;'><p style='font-weight:bold;'>Does the middle word sound more like the first word (A) or the last word (B)?</p> <br> <div class=""container""> <div id=""a-box""> <p class=""title-text"">A</h3></p> </div> <div id=""x-box""> <p class=""title-text"">X<p> </div> <div id=""b-box""> <p class=""title-text"">B</p></div> <br> <div style='float: left;padding-left:30px;'><p>Press '1' for A</p></div><div style='float: right;padding-right:30px;'><p>Press '0' for B</p> </div> </div></div>","null","","","","","","","","","","","","","",""
"3800","","test","audio-keyboard-response","69","412521","0.0-8.0-1.21","5f330e4efbd63510972cffd1","condB","","resources/audio/wordStim/S9_AU_14_bxa_Step-3.wav","49","","","","","AU","resources/audio/wordStim/S9_AU_14_bxa_Step-3.wav","S9","14","bxa","3","CN","1","1","true"
"null","","fixation","html-keyboard-response","70","413524","0.0-8.0-0.22","5f330e4efbd63510972cffd1","condB","","<div class=""vertical-center"" style='width:60%;'><p style='font-weight:bold;'>Does the middle word sound more like the first word (A) or the last word (B)?</p> <br> <div class=""container""> <div id=""a-box""> <p class=""title-text"">A</h3></p> </div> <div id=""x-box""> <p class=""title-text"">X<p> </div> <div id=""b-box""> <p class=""title-text"">B</p></div> <br> <div style='float: left;padding-left:30px;'><p>Press '1' for A</p></div><div style='float: right;padding-right:30px;'><p>Press '0' for B</p> </div> </div></div>","null","","","","","","","","","","","","","",""
"2589","","test","audio-keyboard-response","71","416118","0.0-8.0-1.22","5f330e4efbd63510972cffd1","condB","","resources/audio/wordStim/S3_AU_19_axb_Step-4.wav","49","","","","","AU","resources/audio/wordStim/S3_AU_19_axb_Step-4.wav","S3","19","axb","4","MI","0","1","false"
"null","","fixation","html-keyboard-response","72","417123","0.0-8.0-0.23","5f330e4efbd63510972cffd1","condB","","<div class=""vertical-center"" style='width:60%;'><p style='font-weight:bold;'>Does the middle word sound more like the first word (A) or the last word (B)?</p> <br> <div class=""container""> <div id=""a-box""> <p class=""title-text"">A</h3></p> </div> <div id=""x-box""> <p class=""title-text"">X<p> </div> <div id=""b-box""> <p class=""title-text"">B</p></div> <br> <div style='float: left;padding-left:30px;'><p>Press '1' for A</p></div><div style='float: right;padding-right:30px;'><p>Press '0' for B</p> </div> </div></div>","null","","","","","","","","","","","","","",""
"3189","","test","audio-keyboard-response","73","420311","0.0-8.0-1.23","5f330e4efbd63510972cffd1","condB","","resources/audio/wordStim/S9_AI_30_bxa_Step-9.wav","49","","","","","AI","resources/audio/wordStim/S9_AI_30_bxa_Step-9.wav","S9","30","bxa","9","CN","1","1","true"
"null","","fixation","html-keyboard-response","74","421314","0.0-8.0-0.24","5f330e4efbd63510972cffd1","condB","","<div class=""vertical-center"" style='width:60%;'><p style='font-weight:bold;'>Does the middle word sound more like the first word (A) or the last word (B)?</p> <br> <div class=""container""> <div id=""a-box""> <p class=""title-text"">A</h3></p> </div> <div id=""x-box""> <p class=""title-text"">X<p> </div> <div id=""b-box""> <p class=""title-text"">B</p></div> <br> <div style='float: left;padding-left:30px;'><p>Press '1' for A</p></div><div style='float: right;padding-right:30px;'><p>Press '0' for B</p> </div> </div></div>","null","","","","","","","","","","","","","",""
"2579","","test","audio-keyboard-response","75","423892","0.0-8.0-1.24","5f330e4efbd63510972cffd1","condB","","resources/audio/wordStim/S3_AI_25_bxa_Step-10.wav","49","","","","","AI","resources/audio/wordStim/S3_AI_25_bxa_Step-10.wav","S3","25","bxa","10","MI","1","1","true"
"null","","fixation","html-keyboard-response","76","424895","0.0-8.0-0.25","5f330e4efbd63510972cffd1","condB","","<div class=""vertical-center"" style='width:60%;'><p style='font-weight:bold;'>Does the middle word sound more like the first word (A) or the last word (B)?</p> <br> <div class=""container""> <div id=""a-box""> <p class=""title-text"">A</h3></p> </div> <div id=""x-box""> <p class=""title-text"">X<p> </div> <div id=""b-box""> <p class=""title-text"">B</p></div> <br> <div style='float: left;padding-left:30px;'><p>Press '1' for A</p></div><div style='float: right;padding-right:30px;'><p>Press '0' for B</p> </div> </div></div>","null","","","","","","","","","","","","","",""
"3211","","test","audio-keyboard-response","77","428102","0.0-8.0-1.25","5f330e4efbd63510972cffd1","condB","","resources/audio/wordStim/S3_AI_22_axb_Step-6.wav","48","","","","","AI","resources/audio/wordStim/S3_AI_22_axb_Step-6.wav","S3","22","axb","6","MI","0","0","true"
"null","","fixation","html-keyboard-response","78","429104","0.0-8.0-0.26","5f330e4efbd63510972cffd1","condB","","<div class=""vertical-center"" style='width:60%;'><p style='font-weight:bold;'>Does the middle word sound more like the first word (A) or the last word (B)?</p> <br> <div class=""container""> <div id=""a-box""> <p class=""title-text"">A</h3></p> </div> <div id=""x-box""> <p class=""title-text"">X<p> </div> <div id=""b-box""> <p class=""title-text"">B</p></div> <br> <div style='float: left;padding-left:30px;'><p>Press '1' for A</p></div><div style='float: right;padding-right:30px;'><p>Press '0' for B</p> </div> </div></div>","null","","","","","","","","","","","","","",""
"3040","","test","audio-keyboard-response","79","432146","0.0-8.0-1.26","5f330e4efbd63510972cffd1","condB","","resources/audio/wordStim/S9_AU_20_axb_Step-6.wav","49","","","","","AU","resources/audio/wordStim/S9_AU_20_axb_Step-6.wav","S9","20","axb","6","CN","0","1","false"
"4696.229999884963","","break","html-keyboard-response","80","437344","0.0-8.0-2.26-0.26","5f330e4efbd63510972cffd1","condB","","<div class=""vertical-center""><p>Feel free to take a break!</p><i>When you're ready to continue, press SPACE to begin the next trial.</i></p></div>","32","","","","","","","","","","","","","",""
"null","","fixation","html-keyboard-response","81","437847","0.0-8.0-0.27","5f330e4efbd63510972cffd1","condB","","<div class=""vertical-center"" style='width:60%;'><p style='font-weight:bold;'>Does the middle word sound more like the first word (A) or the last word (B)?</p> <br> <div class=""container""> <div id=""a-box""> <p class=""title-text"">A</h3></p> </div> <div id=""x-box""> <p class=""title-text"">X<p> </div> <div id=""b-box""> <p class=""title-text"">B</p></div> <br> <div style='float: left;padding-left:30px;'><p>Press '1' for A</p></div><div style='float: right;padding-right:30px;'><p>Press '0' for B</p> </div> </div></div>","null","","","","","","","","","","","","","",""
"3099","","test","audio-keyboard-response","82","440941","0.0-8.0-1.27","5f330e4efbd63510972cffd1","condB","","resources/audio/wordStim/S9_AU_11_axb_Step-8.wav","48","","","","","AU","resources/audio/wordStim/S9_AU_11_axb_Step-8.wav","S9","11","axb","8","CN","0","0","true"
"null","","fixation","html-keyboard-response","83","441945","0.0-8.0-0.28","5f330e4efbd63510972cffd1","condB","","<div class=""vertical-center"" style='width:60%;'><p style='font-weight:bold;'>Does the middle word sound more like the first word (A) or the last word (B)?</p> <br> <div class=""container""> <div id=""a-box""> <p class=""title-text"">A</h3></p> </div> <div id=""x-box""> <p class=""title-text"">X<p> </div> <div id=""b-box""> <p class=""title-text"">B</p></div> <br> <div style='float: left;padding-left:30px;'><p>Press '1' for A</p></div><div style='float: right;padding-right:30px;'><p>Press '0' for B</p> </div> </div></div>","null","","","","","","","","","","","","","",""
"3021","","test","audio-keyboard-response","84","444967","0.0-8.0-1.28","5f330e4efbd63510972cffd1","condB","","resources/audio/wordStim/S3_AI_22_bxa_Step-10.wav","49","","","","","AI","resources/audio/wordStim/S3_AI_22_bxa_Step-10.wav","S3","22","bxa","10","MI","1","1","true"
"null","","fixation","html-keyboard-response","85","445971","0.0-8.0-0.29","5f330e4efbd63510972cffd1","condB","","<div class=""vertical-center"" style='width:60%;'><p style='font-weight:bold;'>Does the middle word sound more like the first word (A) or the last word (B)?</p> <br> <div class=""container""> <div id=""a-box""> <p class=""title-text"">A</h3></p> </div> <div id=""x-box""> <p class=""title-text"">X<p> </div> <div id=""b-box""> <p class=""title-text"">B</p></div> <br> <div style='float: left;padding-left:30px;'><p>Press '1' for A</p></div><div style='float: right;padding-right:30px;'><p>Press '0' for B</p> </div> </div></div>","null","","","","","","","","","","","","","",""
"3200","","test","audio-keyboard-response","86","449179","0.0-8.0-1.29","5f330e4efbd63510972cffd1","condB","","resources/audio/wordStim/S9_AI_22_axb_Step-4.wav","49","","","","","AI","resources/audio/wordStim/S9_AI_22_axb_Step-4.wav","S9","22","axb","4","CN","0","1","false"
"null","","fixation","html-keyboard-response","87","450182","0.0-8.0-0.30","5f330e4efbd63510972cffd1","condB","","<div class=""vertical-center"" style='width:60%;'><p style='font-weight:bold;'>Does the middle word sound more like the first word (A) or the last word (B)?</p> <br> <div class=""container""> <div id=""a-box""> <p class=""title-text"">A</h3></p> </div> <div id=""x-box""> <p class=""title-text"">X<p> </div> <div id=""b-box""> <p class=""title-text"">B</p></div> <br> <div style='float: left;padding-left:30px;'><p>Press '1' for A</p></div><div style='float: right;padding-right:30px;'><p>Press '0' for B</p> </div> </div></div>","null","","","","","","","","","","","","","",""
"5760","","test","audio-keyboard-response","88","455945","0.0-8.0-1.30","5f330e4efbd63510972cffd1","condB","","resources/audio/wordStim/S3_AU_17_bxa_Step-7.wav","48","","","","","AU","resources/audio/wordStim/S3_AU_17_bxa_Step-7.wav","S3","17","bxa","7","MI","1","0","false"
"null","","fixation","html-keyboard-response","89","456948","0.0-8.0-0.31","5f330e4efbd63510972cffd1","condB","","<div class=""vertical-center"" style='width:60%;'><p style='font-weight:bold;'>Does the middle word sound more like the first word (A) or the last word (B)?</p> <br> <div class=""container""> <div id=""a-box""> <p class=""title-text"">A</h3></p> </div> <div id=""x-box""> <p class=""title-text"">X<p> </div> <div id=""b-box""> <p class=""title-text"">B</p></div> <br> <div style='float: left;padding-left:30px;'><p>Press '1' for A</p></div><div style='float: right;padding-right:30px;'><p>Press '0' for B</p> </div> </div></div>","null","","","","","","","","","","","","","",""
"5261","","test","audio-keyboard-response","90","462209","0.0-8.0-1.31","5f330e4efbd63510972cffd1","condB","","resources/audio/wordStim/S3_AU_11_bxa_Step-9.wav","49","","","","","AU","resources/audio/wordStim/S3_AU_11_bxa_Step-9.wav","S3","11","bxa","9","MI","1","1","true"
"null","","fixation","html-keyboard-response","91","463212","0.0-8.0-0.32","5f330e4efbd63510972cffd1","condB","","<div class=""vertical-center"" style='width:60%;'><p style='font-weight:bold;'>Does the middle word sound more like the first word (A) or the last word (B)?</p> <br> <div class=""container""> <div id=""a-box""> <p class=""title-text"">A</h3></p> </div> <div id=""x-box""> <p class=""title-text"">X<p> </div> <div id=""b-box""> <p class=""title-text"">B</p></div> <br> <div style='float: left;padding-left:30px;'><p>Press '1' for A</p></div><div style='float: right;padding-right:30px;'><p>Press '0' for B</p> </div> </div></div>","null","","","","","","","","","","","","","",""
"3621","","test","audio-keyboard-response","92","466837","0.0-8.0-1.32","5f330e4efbd63510972cffd1","condB","","resources/audio/wordStim/S3_AI_25_bxa_Step-9.wav","49","","","","","AI","resources/audio/wordStim/S3_AI_25_bxa_Step-9.wav","S3","25","bxa","9","MI","1","1","true"
"null","","fixation","html-keyboard-response","93","467840","0.0-8.0-0.33","5f330e4efbd63510972cffd1","condB","","<div class=""vertical-center"" style='width:60%;'><p style='font-weight:bold;'>Does the middle word sound more like the first word (A) or the last word (B)?</p> <br> <div class=""container""> <div id=""a-box""> <p class=""title-text"">A</h3></p> </div> <div id=""x-box""> <p class=""title-text"">X<p> </div> <div id=""b-box""> <p class=""title-text"">B</p></div> <br> <div style='float: left;padding-left:30px;'><p>Press '1' for A</p></div><div style='float: right;padding-right:30px;'><p>Press '0' for B</p> </div> </div></div>","null","","","","","","","","","","","","","",""
"3229","","test","audio-keyboard-response","94","471075","0.0-8.0-1.33","5f330e4efbd63510972cffd1","condB","","resources/audio/wordStim/S3_AU_19_bxa_Step-7.wav","48","","","","","AU","resources/audio/wordStim/S3_AU_19_bxa_Step-7.wav","S3","19","bxa","7","MI","1","0","false"
"null","","fixation","html-keyboard-response","95","472077","0.0-8.0-0.34","5f330e4efbd63510972cffd1","condB","","<div class=""vertical-center"" style='width:60%;'><p style='font-weight:bold;'>Does the middle word sound more like the first word (A) or the last word (B)?</p> <br> <div class=""container""> <div id=""a-box""> <p class=""title-text"">A</h3></p> </div> <div id=""x-box""> <p class=""title-text"">X<p> </div> <div id=""b-box""> <p class=""title-text"">B</p></div> <br> <div style='float: left;padding-left:30px;'><p>Press '1' for A</p></div><div style='float: right;padding-right:30px;'><p>Press '0' for B</p> </div> </div></div>","null","","","","","","","","","","","","","",""
"3000","","test","audio-keyboard-response","96","475079","0.0-8.0-1.34","5f330e4efbd63510972cffd1","condB","","resources/audio/wordStim/S9_AU_14_axb_Step-6.wav","48","","","","","AU","resources/audio/wordStim/S9_AU_14_axb_Step-6.wav","S9","14","axb","6","CN","0","0","true"
"null","","fixation","html-keyboard-response","97","476081","0.0-8.0-0.35","5f330e4efbd63510972cffd1","condB","","<div class=""vertical-center"" style='width:60%;'><p style='font-weight:bold;'>Does the middle word sound more like the first word (A) or the last word (B)?</p> <br> <div class=""container""> <div id=""a-box""> <p class=""title-text"">A</h3></p> </div> <div id=""x-box""> <p class=""title-text"">X<p> </div> <div id=""b-box""> <p class=""title-text"">B</p></div> <br> <div style='float: left;padding-left:30px;'><p>Press '1' for A</p></div><div style='float: right;padding-right:30px;'><p>Press '0' for B</p> </div> </div></div>","null","","","","","","","","","","","","","",""
"3760","","test","audio-keyboard-response","98","479846","0.0-8.0-1.35","5f330e4efbd63510972cffd1","condB","","resources/audio/wordStim/S3_AU_18_bxa_Step-7.wav","49","","","","","AU","resources/audio/wordStim/S3_AU_18_bxa_Step-7.wav","S3","18","bxa","7","MI","1","1","true"
"null","","fixation","html-keyboard-response","99","480849","0.0-8.0-0.36","5f330e4efbd63510972cffd1","condB","","<div class=""vertical-center"" style='width:60%;'><p style='font-weight:bold;'>Does the middle word sound more like the first word (A) or the last word (B)?</p> <br> <div class=""container""> <div id=""a-box""> <p class=""title-text"">A</h3></p> </div> <div id=""x-box""> <p class=""title-text"">X<p> </div> <div id=""b-box""> <p class=""title-text"">B</p></div> <br> <div style='float: left;padding-left:30px;'><p>Press '1' for A</p></div><div style='float: right;padding-right:30px;'><p>Press '0' for B</p> </div> </div></div>","null","","","","","","","","","","","","","",""
"3581","","test","audio-keyboard-response","100","484438","0.0-8.0-1.36","5f330e4efbd63510972cffd1","condB","","resources/audio/wordStim/S3_AU_17_axb_Step-8.wav","48","","","","","AU","resources/audio/wordStim/S3_AU_17_axb_Step-8.wav","S3","17","axb","8","MI","0","0","true"
"null","","fixation","html-keyboard-response","101","485440","0.0-8.0-0.37","5f330e4efbd63510972cffd1","condB","","<div class=""vertical-center"" style='width:60%;'><p style='font-weight:bold;'>Does the middle word sound more like the first word (A) or the last word (B)?</p> <br> <div class=""container""> <div id=""a-box""> <p class=""title-text"">A</h3></p> </div> <div id=""x-box""> <p class=""title-text"">X<p> </div> <div id=""b-box""> <p class=""title-text"">B</p></div> <br> <div style='float: left;padding-left:30px;'><p>Press '1' for A</p></div><div style='float: right;padding-right:30px;'><p>Press '0' for B</p> </div> </div></div>","null","","","","","","","","","","","","","",""
"3429","","test","audio-keyboard-response","102","488874","0.0-8.0-1.37","5f330e4efbd63510972cffd1","condB","","resources/audio/wordStim/S3_AU_15_bxa_Step-3.wav","49","","","","","AU","resources/audio/wordStim/S3_AU_15_bxa_Step-3.wav","S3","15","bxa","3","MI","1","1","true"
"null","","fixation","html-keyboard-response","103","489878","0.0-8.0-0.38","5f330e4efbd63510972cffd1","condB","","<div class=""vertical-center"" style='width:60%;'><p style='font-weight:bold;'>Does the middle word sound more like the first word (A) or the last word (B)?</p> <br> <div class=""container""> <div id=""a-box""> <p class=""title-text"">A</h3></p> </div> <div id=""x-box""> <p class=""title-text"">X<p> </div> <div id=""b-box""> <p class=""title-text"">B</p></div> <br> <div style='float: left;padding-left:30px;'><p>Press '1' for A</p></div><div style='float: right;padding-right:30px;'><p>Press '0' for B</p> </div> </div></div>","null","","","","","","","","","","","","","",""
"3048","","test","audio-keyboard-response","104","492935","0.0-8.0-1.38","5f330e4efbd63510972cffd1","condB","","resources/audio/wordStim/S9_AU_14_bxa_Step-7.wav","49","","","","","AU","resources/audio/wordStim/S9_AU_14_bxa_Step-7.wav","S9","14","bxa","7","CN","1","1","true"
"null","","fixation","html-keyboard-response","105","493938","0.0-8.0-0.39","5f330e4efbd63510972cffd1","condB","","<div class=""vertical-center"" style='width:60%;'><p style='font-weight:bold;'>Does the middle word sound more like the first word (A) or the last word (B)?</p> <br> <div class=""container""> <div id=""a-box""> <p class=""title-text"">A</h3></p> </div> <div id=""x-box""> <p class=""title-text"">X<p> </div> <div id=""b-box""> <p class=""title-text"">B</p></div> <br> <div style='float: left;padding-left:30px;'><p>Press '1' for A</p></div><div style='float: right;padding-right:30px;'><p>Press '0' for B</p> </div> </div></div>","null","","","","","","","","","","","","","",""
"3181","","test","audio-keyboard-response","106","497128","0.0-8.0-1.39","5f330e4efbd63510972cffd1","condB","","resources/audio/wordStim/S3_AI_23_axb_Step-2.wav","48","","","","","AI","resources/audio/wordStim/S3_AI_23_axb_Step-2.wav","S3","23","axb","2","MI","0","0","true"
"null","","fixation","html-keyboard-response","107","498131","0.0-8.0-0.40","5f330e4efbd63510972cffd1","condB","","<div class=""vertical-center"" style='width:60%;'><p style='font-weight:bold;'>Does the middle word sound more like the first word (A) or the last word (B)?</p> <br> <div class=""container""> <div id=""a-box""> <p class=""title-text"">A</h3></p> </div> <div id=""x-box""> <p class=""title-text"">X<p> </div> <div id=""b-box""> <p class=""title-text"">B</p></div> <br> <div style='float: left;padding-left:30px;'><p>Press '1' for A</p></div><div style='float: right;padding-right:30px;'><p>Press '0' for B</p> </div> </div></div>","null","","","","","","","","","","","","","",""
"2920","","test","audio-keyboard-response","108","501059","0.0-8.0-1.40","5f330e4efbd63510972cffd1","condB","","resources/audio/wordStim/S9_AU_14_axb_Step-2.wav","49","","","","","AU","resources/audio/wordStim/S9_AU_14_axb_Step-2.wav","S9","14","axb","2","CN","0","1","false"
"null","","fixation","html-keyboard-response","109","502065","0.0-8.0-0.41","5f330e4efbd63510972cffd1","condB","","<div class=""vertical-center"" style='width:60%;'><p style='font-weight:bold;'>Does the middle word sound more like the first word (A) or the last word (B)?</p> <br> <div class=""container""> <div id=""a-box""> <p class=""title-text"">A</h3></p> </div> <div id=""x-box""> <p class=""title-text"">X<p> </div> <div id=""b-box""> <p class=""title-text"">B</p></div> <br> <div style='float: left;padding-left:30px;'><p>Press '1' for A</p></div><div style='float: right;padding-right:30px;'><p>Press '0' for B</p> </div> </div></div>","null","","","","","","","","","","","","","",""
"2971","","test","audio-keyboard-response","110","505039","0.0-8.0-1.41","5f330e4efbd63510972cffd1","condB","","resources/audio/wordStim/S9_AI_27_axb_Step-8.wav","48","","","","","AI","resources/audio/wordStim/S9_AI_27_axb_Step-8.wav","S9","27","axb","8","CN","0","0","true"
"null","","fixation","html-keyboard-response","111","506042","0.0-8.0-0.42","5f330e4efbd63510972cffd1","condB","","<div class=""vertical-center"" style='width:60%;'><p style='font-weight:bold;'>Does the middle word sound more like the first word (A) or the last word (B)?</p> <br> <div class=""container""> <div id=""a-box""> <p class=""title-text"">A</h3></p> </div> <div id=""x-box""> <p class=""title-text"">X<p> </div> <div id=""b-box""> <p class=""title-text"">B</p></div> <br> <div style='float: left;padding-left:30px;'><p>Press '1' for A</p></div><div style='float: right;padding-right:30px;'><p>Press '0' for B</p> </div> </div></div>","null","","","","","","","","","","","","","",""
"3059","","test","audio-keyboard-response","112","509108","0.0-8.0-1.42","5f330e4efbd63510972cffd1","condB","","resources/audio/wordStim/S3_AI_30_bxa_Step-7.wav","49","","","","","AI","resources/audio/wordStim/S3_AI_30_bxa_Step-7.wav","S3","30","bxa","7","MI","1","1","true"
"null","","fixation","html-keyboard-response","113","510110","0.0-8.0-0.43","5f330e4efbd63510972cffd1","condB","","<div class=""vertical-center"" style='width:60%;'><p style='font-weight:bold;'>Does the middle word sound more like the first word (A) or the last word (B)?</p> <br> <div class=""container""> <div id=""a-box""> <p class=""title-text"">A</h3></p> </div> <div id=""x-box""> <p class=""title-text"">X<p> </div> <div id=""b-box""> <p class=""title-text"">B</p></div> <br> <div style='float: left;padding-left:30px;'><p>Press '1' for A</p></div><div style='float: right;padding-right:30px;'><p>Press '0' for B</p> </div> </div></div>","null","","","","","","","","","","","","","",""
"3229","","test","audio-keyboard-response","114","513343","0.0-8.0-1.43","5f330e4efbd63510972cffd1","condB","","resources/audio/wordStim/S3_AU_15_axb_Step-6.wav","48","","","","","AU","resources/audio/wordStim/S3_AU_15_axb_Step-6.wav","S3","15","axb","6","MI","0","0","true"
"null","","fixation","html-keyboard-response","115","514347","0.0-8.0-0.44","5f330e4efbd63510972cffd1","condB","","<div class=""vertical-center"" style='width:60%;'><p style='font-weight:bold;'>Does the middle word sound more like the first word (A) or the last word (B)?</p> <br> <div class=""container""> <div id=""a-box""> <p class=""title-text"">A</h3></p> </div> <div id=""x-box""> <p class=""title-text"">X<p> </div> <div id=""b-box""> <p class=""title-text"">B</p></div> <br> <div style='float: left;padding-left:30px;'><p>Press '1' for A</p></div><div style='float: right;padding-right:30px;'><p>Press '0' for B</p> </div> </div></div>","null","","","","","","","","","","","","","",""
"5971","","test","audio-keyboard-response","116","520319","0.0-8.0-1.44","5f330e4efbd63510972cffd1","condB","","resources/audio/wordStim/S9_AI_25_axb_Step-8.wav","48","","","","","AI","resources/audio/wordStim/S9_AI_25_axb_Step-8.wav","S9","25","axb","8","CN","0","0","true"
"null","","fixation","html-keyboard-response","117","521323","0.0-8.0-0.45","5f330e4efbd63510972cffd1","condB","","<div class=""vertical-center"" style='width:60%;'><p style='font-weight:bold;'>Does the middle word sound more like the first word (A) or the last word (B)?</p> <br> <div class=""container""> <div id=""a-box""> <p class=""title-text"">A</h3></p> </div> <div id=""x-box""> <p class=""title-text"">X<p> </div> <div id=""b-box""> <p class=""title-text"">B</p></div> <br> <div style='float: left;padding-left:30px;'><p>Press '1' for A</p></div><div style='float: right;padding-right:30px;'><p>Press '0' for B</p> </div> </div></div>","null","","","","","","","","","","","","","",""
"2779","","test","audio-keyboard-response","118","524108","0.0-8.0-1.45","5f330e4efbd63510972cffd1","condB","","resources/audio/wordStim/S3_AU_14_bxa_Step-9.wav","49","","","","","AU","resources/audio/wordStim/S3_AU_14_bxa_Step-9.wav","S3","14","bxa","9","MI","1","1","true"
"null","","fixation","html-keyboard-response","119","525113","0.0-8.0-0.46","5f330e4efbd63510972cffd1","condB","","<div class=""vertical-center"" style='width:60%;'><p style='font-weight:bold;'>Does the middle word sound more like the first word (A) or the last word (B)?</p> <br> <div class=""container""> <div id=""a-box""> <p class=""title-text"">A</h3></p> </div> <div id=""x-box""> <p class=""title-text"">X<p> </div> <div id=""b-box""> <p class=""title-text"">B</p></div> <br> <div style='float: left;padding-left:30px;'><p>Press '1' for A</p></div><div style='float: right;padding-right:30px;'><p>Press '0' for B</p> </div> </div></div>","null","","","","","","","","","","","","","",""
"5491","","test","audio-keyboard-response","120","530605","0.0-8.0-1.46","5f330e4efbd63510972cffd1","condB","","resources/audio/wordStim/S9_AI_30_bxa_Step-10.wav","49","","","","","AI","resources/audio/wordStim/S9_AI_30_bxa_Step-10.wav","S9","30","bxa","10","CN","1","1","true"
"null","","fixation","html-keyboard-response","121","531610","0.0-8.0-0.47","5f330e4efbd63510972cffd1","condB","","<div class=""vertical-center"" style='width:60%;'><p style='font-weight:bold;'>Does the middle word sound more like the first word (A) or the last word (B)?</p> <br> <div class=""container""> <div id=""a-box""> <p class=""title-text"">A</h3></p> </div> <div id=""x-box""> <p class=""title-text"">X<p> </div> <div id=""b-box""> <p class=""title-text"">B</p></div> <br> <div style='float: left;padding-left:30px;'><p>Press '1' for A</p></div><div style='float: right;padding-right:30px;'><p>Press '0' for B</p> </div> </div></div>","null","","","","","","","","","","","","","",""
"2771","","test","audio-keyboard-response","122","534384","0.0-8.0-1.47","5f330e4efbd63510972cffd1","condB","","resources/audio/wordStim/S9_AI_30_bxa_Step-3.wav","48","","","","","AI","resources/audio/wordStim/S9_AI_30_bxa_Step-3.wav","S9","30","bxa","3","CN","1","0","false"
"null","","fixation","html-keyboard-response","123","535387","0.0-8.0-0.48","5f330e4efbd63510972cffd1","condB","","<div class=""vertical-center"" style='width:60%;'><p style='font-weight:bold;'>Does the middle word sound more like the first word (A) or the last word (B)?</p> <br> <div class=""container""> <div id=""a-box""> <p class=""title-text"">A</h3></p> </div> <div id=""x-box""> <p class=""title-text"">X<p> </div> <div id=""b-box""> <p class=""title-text"">B</p></div> <br> <div style='float: left;padding-left:30px;'><p>Press '1' for A</p></div><div style='float: right;padding-right:30px;'><p>Press '0' for B</p> </div> </div></div>","null","","","","","","","","","","","","","",""
"3661","","test","audio-keyboard-response","124","539042","0.0-8.0-1.48","5f330e4efbd63510972cffd1","condB","","resources/audio/wordStim/S9_AU_18_bxa_Step-3.wav","48","","","","","AU","resources/audio/wordStim/S9_AU_18_bxa_Step-3.wav","S9","18","bxa","3","CN","1","0","false"
"null","","fixation","html-keyboard-response","125","540045","0.0-8.0-0.49","5f330e4efbd63510972cffd1","condB","","<div class=""vertical-center"" style='width:60%;'><p style='font-weight:bold;'>Does the middle word sound more like the first word (A) or the last word (B)?</p> <br> <div class=""container""> <div id=""a-box""> <p class=""title-text"">A</h3></p> </div> <div id=""x-box""> <p class=""title-text"">X<p> </div> <div id=""b-box""> <p class=""title-text"">B</p></div> <br> <div style='float: left;padding-left:30px;'><p>Press '1' for A</p></div><div style='float: right;padding-right:30px;'><p>Press '0' for B</p> </div> </div></div>","null","","","","","","","","","","","","","",""
"2949","","test","audio-keyboard-response","126","542994","0.0-8.0-1.49","5f330e4efbd63510972cffd1","condB","","resources/audio/wordStim/S9_AU_20_axb_Step-8.wav","48","","","","","AU","resources/audio/wordStim/S9_AU_20_axb_Step-8.wav","S9","20","axb","8","CN","0","0","true"
"null","","fixation","html-keyboard-response","127","543998","0.0-8.0-0.50","5f330e4efbd63510972cffd1","condB","","<div class=""vertical-center"" style='width:60%;'><p style='font-weight:bold;'>Does the middle word sound more like the first word (A) or the last word (B)?</p> <br> <div class=""container""> <div id=""a-box""> <p class=""title-text"">A</h3></p> </div> <div id=""x-box""> <p class=""title-text"">X<p> </div> <div id=""b-box""> <p class=""title-text"">B</p></div> <br> <div style='float: left;padding-left:30px;'><p>Press '1' for A</p></div><div style='float: right;padding-right:30px;'><p>Press '0' for B</p> </div> </div></div>","null","","","","","","","","","","","","","",""
"3640","","test","audio-keyboard-response","128","547636","0.0-8.0-1.50","5f330e4efbd63510972cffd1","condB","","resources/audio/wordStim/S3_AU_17_axb_Step-2.wav","49","","","","","AU","resources/audio/wordStim/S3_AU_17_axb_Step-2.wav","S3","17","axb","2","MI","0","1","false"
"null","","fixation","html-keyboard-response","129","548638","0.0-8.0-0.51","5f330e4efbd63510972cffd1","condB","","<div class=""vertical-center"" style='width:60%;'><p style='font-weight:bold;'>Does the middle word sound more like the first word (A) or the last word (B)?</p> <br> <div class=""container""> <div id=""a-box""> <p class=""title-text"">A</h3></p> </div> <div id=""x-box""> <p class=""title-text"">X<p> </div> <div id=""b-box""> <p class=""title-text"">B</p></div> <br> <div style='float: left;padding-left:30px;'><p>Press '1' for A</p></div><div style='float: right;padding-right:30px;'><p>Press '0' for B</p> </div> </div></div>","null","","","","","","","","","","","","","",""
"2949","","test","audio-keyboard-response","130","551600","0.0-8.0-1.51","5f330e4efbd63510972cffd1","condB","","resources/audio/wordStim/S9_AU_17_bxa_Step-7.wav","49","","","","","AU","resources/audio/wordStim/S9_AU_17_bxa_Step-7.wav","S9","17","bxa","7","CN","1","1","true"
"null","","fixation","html-keyboard-response","131","552603","0.0-8.0-0.52","5f330e4efbd63510972cffd1","condB","","<div class=""vertical-center"" style='width:60%;'><p style='font-weight:bold;'>Does the middle word sound more like the first word (A) or the last word (B)?</p> <br> <div class=""container""> <div id=""a-box""> <p class=""title-text"">A</h3></p> </div> <div id=""x-box""> <p class=""title-text"">X<p> </div> <div id=""b-box""> <p class=""title-text"">B</p></div> <br> <div style='float: left;padding-left:30px;'><p>Press '1' for A</p></div><div style='float: right;padding-right:30px;'><p>Press '0' for B</p> </div> </div></div>","null","","","","","","","","","","","","","",""
"3200","","test","audio-keyboard-response","132","555802","0.0-8.0-1.52","5f330e4efbd63510972cffd1","condB","","resources/audio/wordStim/S9_AI_27_axb_Step-6.wav","48","","","","","AI","resources/audio/wordStim/S9_AI_27_axb_Step-6.wav","S9","27","axb","6","CN","0","0","true"
"null","","fixation","html-keyboard-response","133","556804","0.0-8.0-0.53","5f330e4efbd63510972cffd1","condB","","<div class=""vertical-center"" style='width:60%;'><p style='font-weight:bold;'>Does the middle word sound more like the first word (A) or the last word (B)?</p> <br> <div class=""container""> <div id=""a-box""> <p class=""title-text"">A</h3></p> </div> <div id=""x-box""> <p class=""title-text"">X<p> </div> <div id=""b-box""> <p class=""title-text"">B</p></div> <br> <div style='float: left;padding-left:30px;'><p>Press '1' for A</p></div><div style='float: right;padding-right:30px;'><p>Press '0' for B</p> </div> </div></div>","null","","","","","","","","","","","","","",""
"3139","","test","audio-keyboard-response","134","559948","0.0-8.0-1.53","5f330e4efbd63510972cffd1","condB","","resources/audio/wordStim/S9_AU_18_axb_Step-8.wav","48","","","","","AU","resources/audio/wordStim/S9_AU_18_axb_Step-8.wav","S9","18","axb","8","CN","0","0","true"
"5200.860000215471","","break","html-keyboard-response","135","565651","0.0-8.0-2.53-0.53","5f330e4efbd63510972cffd1","condB","","<div class=""vertical-center""><p>Feel free to take a break!</p><i>When you're ready to continue, press SPACE to begin the next trial.</i></p></div>","32","","","","","","","","","","","","","",""
"null","","fixation","html-keyboard-response","136","566153","0.0-8.0-0.54","5f330e4efbd63510972cffd1","condB","","<div class=""vertical-center"" style='width:60%;'><p style='font-weight:bold;'>Does the middle word sound more like the first word (A) or the last word (B)?</p> <br> <div class=""container""> <div id=""a-box""> <p class=""title-text"">A</h3></p> </div> <div id=""x-box""> <p class=""title-text"">X<p> </div> <div id=""b-box""> <p class=""title-text"">B</p></div> <br> <div style='float: left;padding-left:30px;'><p>Press '1' for A</p></div><div style='float: right;padding-right:30px;'><p>Press '0' for B</p> </div> </div></div>","null","","","","","","","","","","","","","",""
"3389","","test","audio-keyboard-response","137","569545","0.0-8.0-1.54","5f330e4efbd63510972cffd1","condB","","resources/audio/wordStim/S3_AU_20_axb_Step-8.wav","49","","","","","AU","resources/audio/wordStim/S3_AU_20_axb_Step-8.wav","S3","20","axb","8","MI","0","1","false"
"null","","fixation","html-keyboard-response","138","570548","0.0-8.0-0.55","5f330e4efbd63510972cffd1","condB","","<div class=""vertical-center"" style='width:60%;'><p style='font-weight:bold;'>Does the middle word sound more like the first word (A) or the last word (B)?</p> <br> <div class=""container""> <div id=""a-box""> <p class=""title-text"">A</h3></p> </div> <div id=""x-box""> <p class=""title-text"">X<p> </div> <div id=""b-box""> <p class=""title-text"">B</p></div> <br> <div style='float: left;padding-left:30px;'><p>Press '1' for A</p></div><div style='float: right;padding-right:30px;'><p>Press '0' for B</p> </div> </div></div>","null","","","","","","","","","","","","","",""
"2829","","test","audio-keyboard-response","139","573373","0.0-8.0-1.55","5f330e4efbd63510972cffd1","condB","","resources/audio/wordStim/S9_AI_23_bxa_Step-7.wav","49","","","","","AI","resources/audio/wordStim/S9_AI_23_bxa_Step-7.wav","S9","23","bxa","7","CN","1","1","true"
"null","","fixation","html-keyboard-response","140","574375","0.0-8.0-0.56","5f330e4efbd63510972cffd1","condB","","<div class=""vertical-center"" style='width:60%;'><p style='font-weight:bold;'>Does the middle word sound more like the first word (A) or the last word (B)?</p> <br> <div class=""container""> <div id=""a-box""> <p class=""title-text"">A</h3></p> </div> <div id=""x-box""> <p class=""title-text"">X<p> </div> <div id=""b-box""> <p class=""title-text"">B</p></div> <br> <div style='float: left;padding-left:30px;'><p>Press '1' for A</p></div><div style='float: right;padding-right:30px;'><p>Press '0' for B</p> </div> </div></div>","null","","","","","","","","","","","","","",""
"2931","","test","audio-keyboard-response","141","577307","0.0-8.0-1.56","5f330e4efbd63510972cffd1","condB","","resources/audio/wordStim/S9_AI_27_bxa_Step-7.wav","49","","","","","AI","resources/audio/wordStim/S9_AI_27_bxa_Step-7.wav","S9","27","bxa","7","CN","1","1","true"
"null","","fixation","html-keyboard-response","142","578310","0.0-8.0-0.57","5f330e4efbd63510972cffd1","condB","","<div class=""vertical-center"" style='width:60%;'><p style='font-weight:bold;'>Does the middle word sound more like the first word (A) or the last word (B)?</p> <br> <div class=""container""> <div id=""a-box""> <p class=""title-text"">A</h3></p> </div> <div id=""x-box""> <p class=""title-text"">X<p> </div> <div id=""b-box""> <p class=""title-text"">B</p></div> <br> <div style='float: left;padding-left:30px;'><p>Press '1' for A</p></div><div style='float: right;padding-right:30px;'><p>Press '0' for B</p> </div> </div></div>","null","","","","","","","","","","","","","",""
"2909","","test","audio-keyboard-response","143","581230","0.0-8.0-1.57","5f330e4efbd63510972cffd1","condB","","resources/audio/wordStim/S9_AU_14_bxa_Step-10.wav","49","","","","","AU","resources/audio/wordStim/S9_AU_14_bxa_Step-10.wav","S9","14","bxa","10","CN","1","1","true"
"null","","fixation","html-keyboard-response","144","582234","0.0-8.0-0.58","5f330e4efbd63510972cffd1","condB","","<div class=""vertical-center"" style='width:60%;'><p style='font-weight:bold;'>Does the middle word sound more like the first word (A) or the last word (B)?</p> <br> <div class=""container""> <div id=""a-box""> <p class=""title-text"">A</h3></p> </div> <div id=""x-box""> <p class=""title-text"">X<p> </div> <div id=""b-box""> <p class=""title-text"">B</p></div> <br> <div style='float: left;padding-left:30px;'><p>Press '1' for A</p></div><div style='float: right;padding-right:30px;'><p>Press '0' for B</p> </div> </div></div>","null","","","","","","","","","","","","","",""
"3371","","test","audio-keyboard-response","145","585609","0.0-8.0-1.58","5f330e4efbd63510972cffd1","condB","","resources/audio/wordStim/S3_AI_22_bxa_Step-5.wav","49","","","","","AI","resources/audio/wordStim/S3_AI_22_bxa_Step-5.wav","S3","22","bxa","5","MI","1","1","true"
"null","","fixation","html-keyboard-response","146","586612","0.0-8.0-0.59","5f330e4efbd63510972cffd1","condB","","<div class=""vertical-center"" style='width:60%;'><p style='font-weight:bold;'>Does the middle word sound more like the first word (A) or the last word (B)?</p> <br> <div class=""container""> <div id=""a-box""> <p class=""title-text"">A</h3></p> </div> <div id=""x-box""> <p class=""title-text"">X<p> </div> <div id=""b-box""> <p class=""title-text"">B</p></div> <br> <div style='float: left;padding-left:30px;'><p>Press '1' for A</p></div><div style='float: right;padding-right:30px;'><p>Press '0' for B</p> </div> </div></div>","null","","","","","","","","","","","","","",""
"3971","","test","audio-keyboard-response","147","590587","0.0-8.0-1.59","5f330e4efbd63510972cffd1","condB","","resources/audio/wordStim/S3_AU_17_bxa_Step-5.wav","48","","","","","AU","resources/audio/wordStim/S3_AU_17_bxa_Step-5.wav","S3","17","bxa","5","MI","1","0","false"
"null","","fixation","html-keyboard-response","148","591589","0.0-8.0-0.60","5f330e4efbd63510972cffd1","condB","","<div class=""vertical-center"" style='width:60%;'><p style='font-weight:bold;'>Does the middle word sound more like the first word (A) or the last word (B)?</p> <br> <div class=""container""> <div id=""a-box""> <p class=""title-text"">A</h3></p> </div> <div id=""x-box""> <p class=""title-text"">X<p> </div> <div id=""b-box""> <p class=""title-text"">B</p></div> <br> <div style='float: left;padding-left:30px;'><p>Press '1' for A</p></div><div style='float: right;padding-right:30px;'><p>Press '0' for B</p> </div> </div></div>","null","","","","","","","","","","","","","",""
"2989","","test","audio-keyboard-response","149","594584","0.0-8.0-1.60","5f330e4efbd63510972cffd1","condB","","resources/audio/wordStim/S3_AU_19_bxa_Step-9.wav","49","","","","","AU","resources/audio/wordStim/S3_AU_19_bxa_Step-9.wav","S3","19","bxa","9","MI","1","1","true"
"null","","fixation","html-keyboard-response","150","595587","0.0-8.0-0.61","5f330e4efbd63510972cffd1","condB","","<div class=""vertical-center"" style='width:60%;'><p style='font-weight:bold;'>Does the middle word sound more like the first word (A) or the last word (B)?</p> <br> <div class=""container""> <div id=""a-box""> <p class=""title-text"">A</h3></p> </div> <div id=""x-box""> <p class=""title-text"">X<p> </div> <div id=""b-box""> <p class=""title-text"">B</p></div> <br> <div style='float: left;padding-left:30px;'><p>Press '1' for A</p></div><div style='float: right;padding-right:30px;'><p>Press '0' for B</p> </div> </div></div>","null","","","","","","","","","","","","","",""
"2971","","test","audio-keyboard-response","151","598556","0.0-8.0-1.61","5f330e4efbd63510972cffd1","condB","","resources/audio/wordStim/S3_AI_30_axb_Step-6.wav","48","","","","","AI","resources/audio/wordStim/S3_AI_30_axb_Step-6.wav","S3","30","axb","6","MI","0","0","true"
"null","","fixation","html-keyboard-response","152","599558","0.0-8.0-0.62","5f330e4efbd63510972cffd1","condB","","<div class=""vertical-center"" style='width:60%;'><p style='font-weight:bold;'>Does the middle word sound more like the first word (A) or the last word (B)?</p> <br> <div class=""container""> <div id=""a-box""> <p class=""title-text"">A</h3></p> </div> <div id=""x-box""> <p class=""title-text"">X<p> </div> <div id=""b-box""> <p class=""title-text"">B</p></div> <br> <div style='float: left;padding-left:30px;'><p>Press '1' for A</p></div><div style='float: right;padding-right:30px;'><p>Press '0' for B</p> </div> </div></div>","null","","","","","","","","","","","","","",""
"2939","","test","audio-keyboard-response","153","602494","0.0-8.0-1.62","5f330e4efbd63510972cffd1","condB","","resources/audio/wordStim/S3_AU_14_bxa_Step-7.wav","49","","","","","AU","resources/audio/wordStim/S3_AU_14_bxa_Step-7.wav","S3","14","bxa","7","MI","1","1","true"
"null","","fixation","html-keyboard-response","154","603499","0.0-8.0-0.63","5f330e4efbd63510972cffd1","condB","","<div class=""vertical-center"" style='width:60%;'><p style='font-weight:bold;'>Does the middle word sound more like the first word (A) or the last word (B)?</p> <br> <div class=""container""> <div id=""a-box""> <p class=""title-text"">A</h3></p> </div> <div id=""x-box""> <p class=""title-text"">X<p> </div> <div id=""b-box""> <p class=""title-text"">B</p></div> <br> <div style='float: left;padding-left:30px;'><p>Press '1' for A</p></div><div style='float: right;padding-right:30px;'><p>Press '0' for B</p> </div> </div></div>","null","","","","","","","","","","","","","",""
"3080","","test","audio-keyboard-response","155","606574","0.0-8.0-1.63","5f330e4efbd63510972cffd1","condB","","resources/audio/wordStim/S9_AI_23_axb_Step-6.wav","48","","","","","AI","resources/audio/wordStim/S9_AI_23_axb_Step-6.wav","S9","23","axb","6","CN","0","0","true"
"null","","fixation","html-keyboard-response","156","607576","0.0-8.0-0.64","5f330e4efbd63510972cffd1","condB","","<div class=""vertical-center"" style='width:60%;'><p style='font-weight:bold;'>Does the middle word sound more like the first word (A) or the last word (B)?</p> <br> <div class=""container""> <div id=""a-box""> <p class=""title-text"">A</h3></p> </div> <div id=""x-box""> <p class=""title-text"">X<p> </div> <div id=""b-box""> <p class=""title-text"">B</p></div> <br> <div style='float: left;padding-left:30px;'><p>Press '1' for A</p></div><div style='float: right;padding-right:30px;'><p>Press '0' for B</p> </div> </div></div>","null","","","","","","","","","","","","","",""
"3032","","test","audio-keyboard-response","157","610604","0.0-8.0-1.64","5f330e4efbd63510972cffd1","condB","","resources/audio/wordStim/S3_AI_28_axb_Step-8.wav","48","","","","","AI","resources/audio/wordStim/S3_AI_28_axb_Step-8.wav","S3","28","axb","8","MI","0","0","true"
"null","","fixation","html-keyboard-response","158","611606","0.0-8.0-0.65","5f330e4efbd63510972cffd1","condB","","<div class=""vertical-center"" style='width:60%;'><p style='font-weight:bold;'>Does the middle word sound more like the first word (A) or the last word (B)?</p> <br> <div class=""container""> <div id=""a-box""> <p class=""title-text"">A</h3></p> </div> <div id=""x-box""> <p class=""title-text"">X<p> </div> <div id=""b-box""> <p class=""title-text"">B</p></div> <br> <div style='float: left;padding-left:30px;'><p>Press '1' for A</p></div><div style='float: right;padding-right:30px;'><p>Press '0' for B</p> </div> </div></div>","null","","","","","","","","","","","","","",""
"3179","","test","audio-keyboard-response","159","614788","0.0-8.0-1.65","5f330e4efbd63510972cffd1","condB","","resources/audio/wordStim/S9_AI_29_bxa_Step-9.wav","49","","","","","AI","resources/audio/wordStim/S9_AI_29_bxa_Step-9.wav","S9","29","bxa","9","CN","1","1","true"
"null","","fixation","html-keyboard-response","160","615791","0.0-8.0-0.66","5f330e4efbd63510972cffd1","condB","","<div class=""vertical-center"" style='width:60%;'><p style='font-weight:bold;'>Does the middle word sound more like the first word (A) or the last word (B)?</p> <br> <div class=""container""> <div id=""a-box""> <p class=""title-text"">A</h3></p> </div> <div id=""x-box""> <p class=""title-text"">X<p> </div> <div id=""b-box""> <p class=""title-text"">B</p></div> <br> <div style='float: left;padding-left:30px;'><p>Press '1' for A</p></div><div style='float: right;padding-right:30px;'><p>Press '0' for B</p> </div> </div></div>","null","","","","","","","","","","","","","",""
"3109","","test","audio-keyboard-response","161","618910","0.0-8.0-1.66","5f330e4efbd63510972cffd1","condB","","resources/audio/wordStim/S9_AU_20_bxa_Step-3.wav","48","","","","","AU","resources/audio/wordStim/S9_AU_20_bxa_Step-3.wav","S9","20","bxa","3","CN","1","0","false"
"null","","fixation","html-keyboard-response","162","619912","0.0-8.0-0.67","5f330e4efbd63510972cffd1","condB","","<div class=""vertical-center"" style='width:60%;'><p style='font-weight:bold;'>Does the middle word sound more like the first word (A) or the last word (B)?</p> <br> <div class=""container""> <div id=""a-box""> <p class=""title-text"">A</h3></p> </div> <div id=""x-box""> <p class=""title-text"">X<p> </div> <div id=""b-box""> <p class=""title-text"">B</p></div> <br> <div style='float: left;padding-left:30px;'><p>Press '1' for A</p></div><div style='float: right;padding-right:30px;'><p>Press '0' for B</p> </div> </div></div>","null","","","","","","","","","","","","","",""
"3840","","test","audio-keyboard-response","163","623754","0.0-8.0-1.67","5f330e4efbd63510972cffd1","condB","","resources/audio/wordStim/S3_AI_28_axb_Step-6.wav","49","","","","","AI","resources/audio/wordStim/S3_AI_28_axb_Step-6.wav","S3","28","axb","6","MI","0","1","false"
"null","","fixation","html-keyboard-response","164","624757","0.0-8.0-0.68","5f330e4efbd63510972cffd1","condB","","<div class=""vertical-center"" style='width:60%;'><p style='font-weight:bold;'>Does the middle word sound more like the first word (A) or the last word (B)?</p> <br> <div class=""container""> <div id=""a-box""> <p class=""title-text"">A</h3></p> </div> <div id=""x-box""> <p class=""title-text"">X<p> </div> <div id=""b-box""> <p class=""title-text"">B</p></div> <br> <div style='float: left;padding-left:30px;'><p>Press '1' for A</p></div><div style='float: right;padding-right:30px;'><p>Press '0' for B</p> </div> </div></div>","null","","","","","","","","","","","","","",""
"3080","","test","audio-keyboard-response","165","627833","0.0-8.0-1.68","5f330e4efbd63510972cffd1","condB","","resources/audio/wordStim/S9_AU_16_bxa_Step-10.wav","49","","","","","AU","resources/audio/wordStim/S9_AU_16_bxa_Step-10.wav","S9","16","bxa","10","CN","1","1","true"
"null","","fixation","html-keyboard-response","166","628836","0.0-8.0-0.69","5f330e4efbd63510972cffd1","condB","","<div class=""vertical-center"" style='width:60%;'><p style='font-weight:bold;'>Does the middle word sound more like the first word (A) or the last word (B)?</p> <br> <div class=""container""> <div id=""a-box""> <p class=""title-text"">A</h3></p> </div> <div id=""x-box""> <p class=""title-text"">X<p> </div> <div id=""b-box""> <p class=""title-text"">B</p></div> <br> <div style='float: left;padding-left:30px;'><p>Press '1' for A</p></div><div style='float: right;padding-right:30px;'><p>Press '0' for B</p> </div> </div></div>","null","","","","","","","","","","","","","",""
"3269","","test","audio-keyboard-response","167","632110","0.0-8.0-1.69","5f330e4efbd63510972cffd1","condB","","resources/audio/wordStim/S9_AU_17_axb_Step-4.wav","49","","","","","AU","resources/audio/wordStim/S9_AU_17_axb_Step-4.wav","S9","17","axb","4","CN","0","1","false"
"null","","fixation","html-keyboard-response","168","633113","0.0-8.0-0.70","5f330e4efbd63510972cffd1","condB","","<div class=""vertical-center"" style='width:60%;'><p style='font-weight:bold;'>Does the middle word sound more like the first word (A) or the last word (B)?</p> <br> <div class=""container""> <div id=""a-box""> <p class=""title-text"">A</h3></p> </div> <div id=""x-box""> <p class=""title-text"">X<p> </div> <div id=""b-box""> <p class=""title-text"">B</p></div> <br> <div style='float: left;padding-left:30px;'><p>Press '1' for A</p></div><div style='float: right;padding-right:30px;'><p>Press '0' for B</p> </div> </div></div>","null","","","","","","","","","","","","","",""
"2789","","test","audio-keyboard-response","169","635907","0.0-8.0-1.70","5f330e4efbd63510972cffd1","condB","","resources/audio/wordStim/S9_AI_24_axb_Step-2.wav","48","","","","","AI","resources/audio/wordStim/S9_AI_24_axb_Step-2.wav","S9","24","axb","2","CN","0","0","true"
"null","","fixation","html-keyboard-response","170","636911","0.0-8.0-0.71","5f330e4efbd63510972cffd1","condB","","<div class=""vertical-center"" style='width:60%;'><p style='font-weight:bold;'>Does the middle word sound more like the first word (A) or the last word (B)?</p> <br> <div class=""container""> <div id=""a-box""> <p class=""title-text"">A</h3></p> </div> <div id=""x-box""> <p class=""title-text"">X<p> </div> <div id=""b-box""> <p class=""title-text"">B</p></div> <br> <div style='float: left;padding-left:30px;'><p>Press '1' for A</p></div><div style='float: right;padding-right:30px;'><p>Press '0' for B</p> </div> </div></div>","null","","","","","","","","","","","","","",""
"2720","","test","audio-keyboard-response","171","639635","0.0-8.0-1.71","5f330e4efbd63510972cffd1","condB","","resources/audio/wordStim/S9_AU_13_axb_Step-8.wav","48","","","","","AU","resources/audio/wordStim/S9_AU_13_axb_Step-8.wav","S9","13","axb","8","CN","0","0","true"
"null","","fixation","html-keyboard-response","172","640640","0.0-8.0-0.72","5f330e4efbd63510972cffd1","condB","","<div class=""vertical-center"" style='width:60%;'><p style='font-weight:bold;'>Does the middle word sound more like the first word (A) or the last word (B)?</p> <br> <div class=""container""> <div id=""a-box""> <p class=""title-text"">A</h3></p> </div> <div id=""x-box""> <p class=""title-text"">X<p> </div> <div id=""b-box""> <p class=""title-text"">B</p></div> <br> <div style='float: left;padding-left:30px;'><p>Press '1' for A</p></div><div style='float: right;padding-right:30px;'><p>Press '0' for B</p> </div> </div></div>","null","","","","","","","","","","","","","",""
"3069","","test","audio-keyboard-response","173","643714","0.0-8.0-1.72","5f330e4efbd63510972cffd1","condB","","resources/audio/wordStim/S9_AU_13_axb_Step-6.wav","49","","","","","AU","resources/audio/wordStim/S9_AU_13_axb_Step-6.wav","S9","13","axb","6","CN","0","1","false"
"null","","fixation","html-keyboard-response","174","644717","0.0-8.0-0.73","5f330e4efbd63510972cffd1","condB","","<div class=""vertical-center"" style='width:60%;'><p style='font-weight:bold;'>Does the middle word sound more like the first word (A) or the last word (B)?</p> <br> <div class=""container""> <div id=""a-box""> <p class=""title-text"">A</h3></p> </div> <div id=""x-box""> <p class=""title-text"">X<p> </div> <div id=""b-box""> <p class=""title-text"">B</p></div> <br> <div style='float: left;padding-left:30px;'><p>Press '1' for A</p></div><div style='float: right;padding-right:30px;'><p>Press '0' for B</p> </div> </div></div>","null","","","","","","","","","","","","","",""
"4189","","test","audio-keyboard-response","175","648911","0.0-8.0-1.73","5f330e4efbd63510972cffd1","condB","","resources/audio/wordStim/S3_AU_16_axb_Step-6.wav","49","","","","","AU","resources/audio/wordStim/S3_AU_16_axb_Step-6.wav","S3","16","axb","6","MI","0","1","false"
"null","","fixation","html-keyboard-response","176","649915","0.0-8.0-0.74","5f330e4efbd63510972cffd1","condB","","<div class=""vertical-center"" style='width:60%;'><p style='font-weight:bold;'>Does the middle word sound more like the first word (A) or the last word (B)?</p> <br> <div class=""container""> <div id=""a-box""> <p class=""title-text"">A</h3></p> </div> <div id=""x-box""> <p class=""title-text"">X<p> </div> <div id=""b-box""> <p class=""title-text"">B</p></div> <br> <div style='float: left;padding-left:30px;'><p>Press '1' for A</p></div><div style='float: right;padding-right:30px;'><p>Press '0' for B</p> </div> </div></div>","null","","","","","","","","","","","","","",""
"2931","","test","audio-keyboard-response","177","652843","0.0-8.0-1.74","5f330e4efbd63510972cffd1","condB","","resources/audio/wordStim/S9_AU_17_axb_Step-2.wav","49","","","","","AU","resources/audio/wordStim/S9_AU_17_axb_Step-2.wav","S9","17","axb","2","CN","0","1","false"
"null","","fixation","html-keyboard-response","178","653845","0.0-8.0-0.75","5f330e4efbd63510972cffd1","condB","","<div class=""vertical-center"" style='width:60%;'><p style='font-weight:bold;'>Does the middle word sound more like the first word (A) or the last word (B)?</p> <br> <div class=""container""> <div id=""a-box""> <p class=""title-text"">A</h3></p> </div> <div id=""x-box""> <p class=""title-text"">X<p> </div> <div id=""b-box""> <p class=""title-text"">B</p></div> <br> <div style='float: left;padding-left:30px;'><p>Press '1' for A</p></div><div style='float: right;padding-right:30px;'><p>Press '0' for B</p> </div> </div></div>","null","","","","","","","","","","","","","",""
"2579","","test","audio-keyboard-response","179","656422","0.0-8.0-1.75","5f330e4efbd63510972cffd1","condB","","resources/audio/wordStim/S3_AI_30_axb_Step-4.wav","48","","","","","AI","resources/audio/wordStim/S3_AI_30_axb_Step-4.wav","S3","30","axb","4","MI","0","0","true"
"null","","fixation","html-keyboard-response","180","657426","0.0-8.0-0.76","5f330e4efbd63510972cffd1","condB","","<div class=""vertical-center"" style='width:60%;'><p style='font-weight:bold;'>Does the middle word sound more like the first word (A) or the last word (B)?</p> <br> <div class=""container""> <div id=""a-box""> <p class=""title-text"">A</h3></p> </div> <div id=""x-box""> <p class=""title-text"">X<p> </div> <div id=""b-box""> <p class=""title-text"">B</p></div> <br> <div style='float: left;padding-left:30px;'><p>Press '1' for A</p></div><div style='float: right;padding-right:30px;'><p>Press '0' for B</p> </div> </div></div>","null","","","","","","","","","","","","","",""
"2861","","test","audio-keyboard-response","181","660286","0.0-8.0-1.76","5f330e4efbd63510972cffd1","condB","","resources/audio/wordStim/S9_AU_14_bxa_Step-5.wav","49","","","","","AU","resources/audio/wordStim/S9_AU_14_bxa_Step-5.wav","S9","14","bxa","5","CN","1","1","true"
"null","","fixation","html-keyboard-response","182","661289","0.0-8.0-0.77","5f330e4efbd63510972cffd1","condB","","<div class=""vertical-center"" style='width:60%;'><p style='font-weight:bold;'>Does the middle word sound more like the first word (A) or the last word (B)?</p> <br> <div class=""container""> <div id=""a-box""> <p class=""title-text"">A</h3></p> </div> <div id=""x-box""> <p class=""title-text"">X<p> </div> <div id=""b-box""> <p class=""title-text"">B</p></div> <br> <div style='float: left;padding-left:30px;'><p>Press '1' for A</p></div><div style='float: right;padding-right:30px;'><p>Press '0' for B</p> </div> </div></div>","null","","","","","","","","","","","","","",""
"4011","","test","audio-keyboard-response","183","665312","0.0-8.0-1.77","5f330e4efbd63510972cffd1","condB","","resources/audio/wordStim/S3_AI_25_axb_Step-2.wav","48","","","","","AI","resources/audio/wordStim/S3_AI_25_axb_Step-2.wav","S3","25","axb","2","MI","0","0","true"
"null","","fixation","html-keyboard-response","184","666315","0.0-8.0-0.78","5f330e4efbd63510972cffd1","condB","","<div class=""vertical-center"" style='width:60%;'><p style='font-weight:bold;'>Does the middle word sound more like the first word (A) or the last word (B)?</p> <br> <div class=""container""> <div id=""a-box""> <p class=""title-text"">A</h3></p> </div> <div id=""x-box""> <p class=""title-text"">X<p> </div> <div id=""b-box""> <p class=""title-text"">B</p></div> <br> <div style='float: left;padding-left:30px;'><p>Press '1' for A</p></div><div style='float: right;padding-right:30px;'><p>Press '0' for B</p> </div> </div></div>","null","","","","","","","","","","","","","",""
"2600","","test","audio-keyboard-response","185","668921","0.0-8.0-1.78","5f330e4efbd63510972cffd1","condB","","resources/audio/wordStim/S9_AU_17_bxa_Step-3.wav","48","","","","","AU","resources/audio/wordStim/S9_AU_17_bxa_Step-3.wav","S9","17","bxa","3","CN","1","0","false"
"null","","fixation","html-keyboard-response","186","669924","0.0-8.0-0.79","5f330e4efbd63510972cffd1","condB","","<div class=""vertical-center"" style='width:60%;'><p style='font-weight:bold;'>Does the middle word sound more like the first word (A) or the last word (B)?</p> <br> <div class=""container""> <div id=""a-box""> <p class=""title-text"">A</h3></p> </div> <div id=""x-box""> <p class=""title-text"">X<p> </div> <div id=""b-box""> <p class=""title-text"">B</p></div> <br> <div style='float: left;padding-left:30px;'><p>Press '1' for A</p></div><div style='float: right;padding-right:30px;'><p>Press '0' for B</p> </div> </div></div>","null","","","","","","","","","","","","","",""
"2688","","test","audio-keyboard-response","187","672617","0.0-8.0-1.79","5f330e4efbd63510972cffd1","condB","","resources/audio/wordStim/S9_AU_17_axb_Step-8.wav","48","","","","","AU","resources/audio/wordStim/S9_AU_17_axb_Step-8.wav","S9","17","axb","8","CN","0","0","true"
"null","","fixation","html-keyboard-response","188","673620","0.0-8.0-0.80","5f330e4efbd63510972cffd1","condB","","<div class=""vertical-center"" style='width:60%;'><p style='font-weight:bold;'>Does the middle word sound more like the first word (A) or the last word (B)?</p> <br> <div class=""container""> <div id=""a-box""> <p class=""title-text"">A</h3></p> </div> <div id=""x-box""> <p class=""title-text"">X<p> </div> <div id=""b-box""> <p class=""title-text"">B</p></div> <br> <div style='float: left;padding-left:30px;'><p>Press '1' for A</p></div><div style='float: right;padding-right:30px;'><p>Press '0' for B</p> </div> </div></div>","null","","","","","","","","","","","","","",""
"3709","","test","audio-keyboard-response","189","677334","0.0-8.0-1.80","5f330e4efbd63510972cffd1","condB","","resources/audio/wordStim/S9_AU_14_axb_Step-8.wav","48","","","","","AU","resources/audio/wordStim/S9_AU_14_axb_Step-8.wav","S9","14","axb","8","CN","0","0","true"
"1800.5750002339482","","break","html-keyboard-response","190","679636","0.0-8.0-2.80-0.80","5f330e4efbd63510972cffd1","condB","","<div class=""vertical-center""><p>Feel free to take a break!</p><i>When you're ready to continue, press SPACE to begin the next trial.</i></p></div>","32","","","","","","","","","","","","","",""
"null","","fixation","html-keyboard-response","191","680138","0.0-8.0-0.81","5f330e4efbd63510972cffd1","condB","","<div class=""vertical-center"" style='width:60%;'><p style='font-weight:bold;'>Does the middle word sound more like the first word (A) or the last word (B)?</p> <br> <div class=""container""> <div id=""a-box""> <p class=""title-text"">A</h3></p> </div> <div id=""x-box""> <p class=""title-text"">X<p> </div> <div id=""b-box""> <p class=""title-text"">B</p></div> <br> <div style='float: left;padding-left:30px;'><p>Press '1' for A</p></div><div style='float: right;padding-right:30px;'><p>Press '0' for B</p> </div> </div></div>","null","","","","","","","","","","","","","",""
"2331","","test","audio-keyboard-response","192","682465","0.0-8.0-1.81","5f330e4efbd63510972cffd1","condB","","resources/audio/wordStim/S9_AU_13_bxa_Step-5.wav","48","","","","","AU","resources/audio/wordStim/S9_AU_13_bxa_Step-5.wav","S9","13","bxa","5","CN","1","0","false"
"null","","fixation","html-keyboard-response","193","683467","0.0-8.0-0.82","5f330e4efbd63510972cffd1","condB","","<div class=""vertical-center"" style='width:60%;'><p style='font-weight:bold;'>Does the middle word sound more like the first word (A) or the last word (B)?</p> <br> <div class=""container""> <div id=""a-box""> <p class=""title-text"">A</h3></p> </div> <div id=""x-box""> <p class=""title-text"">X<p> </div> <div id=""b-box""> <p class=""title-text"">B</p></div> <br> <div style='float: left;padding-left:30px;'><p>Press '1' for A</p></div><div style='float: right;padding-right:30px;'><p>Press '0' for B</p> </div> </div></div>","null","","","","","","","","","","","","","",""
"3069","","test","audio-keyboard-response","194","686539","0.0-8.0-1.82","5f330e4efbd63510972cffd1","condB","","resources/audio/wordStim/S9_AU_18_axb_Step-4.wav","49","","","","","AU","resources/audio/wordStim/S9_AU_18_axb_Step-4.wav","S9","18","axb","4","CN","0","1","false"
"null","","fixation","html-keyboard-response","195","687542","0.0-8.0-0.83","5f330e4efbd63510972cffd1","condB","","<div class=""vertical-center"" style='width:60%;'><p style='font-weight:bold;'>Does the middle word sound more like the first word (A) or the last word (B)?</p> <br> <div class=""container""> <div id=""a-box""> <p class=""title-text"">A</h3></p> </div> <div id=""x-box""> <p class=""title-text"">X<p> </div> <div id=""b-box""> <p class=""title-text"">B</p></div> <br> <div style='float: left;padding-left:30px;'><p>Press '1' for A</p></div><div style='float: right;padding-right:30px;'><p>Press '0' for B</p> </div> </div></div>","null","","","","","","","","","","","","","",""
"3309","","test","audio-keyboard-response","196","690860","0.0-8.0-1.83","5f330e4efbd63510972cffd1","condB","","resources/audio/wordStim/S9_AI_29_axb_Step-4.wav","48","","","","","AI","resources/audio/wordStim/S9_AI_29_axb_Step-4.wav","S9","29","axb","4","CN","0","0","true"
"null","","fixation","html-keyboard-response","197","691863","0.0-8.0-0.84","5f330e4efbd63510972cffd1","condB","","<div class=""vertical-center"" style='width:60%;'><p style='font-weight:bold;'>Does the middle word sound more like the first word (A) or the last word (B)?</p> <br> <div class=""container""> <div id=""a-box""> <p class=""title-text"">A</h3></p> </div> <div id=""x-box""> <p class=""title-text"">X<p> </div> <div id=""b-box""> <p class=""title-text"">B</p></div> <br> <div style='float: left;padding-left:30px;'><p>Press '1' for A</p></div><div style='float: right;padding-right:30px;'><p>Press '0' for B</p> </div> </div></div>","null","","","","","","","","","","","","","",""
"2381","","test","audio-keyboard-response","198","694250","0.0-8.0-1.84","5f330e4efbd63510972cffd1","condB","","resources/audio/wordStim/S3_AU_15_bxa_Step-5.wav","48","","","","","AU","resources/audio/wordStim/S3_AU_15_bxa_Step-5.wav","S3","15","bxa","5","MI","1","0","false"
"null","","fixation","html-keyboard-response","199","695252","0.0-8.0-0.85","5f330e4efbd63510972cffd1","condB","","<div class=""vertical-center"" style='width:60%;'><p style='font-weight:bold;'>Does the middle word sound more like the first word (A) or the last word (B)?</p> <br> <div class=""container""> <div id=""a-box""> <p class=""title-text"">A</h3></p> </div> <div id=""x-box""> <p class=""title-text"">X<p> </div> <div id=""b-box""> <p class=""title-text"">B</p></div> <br> <div style='float: left;padding-left:30px;'><p>Press '1' for A</p></div><div style='float: right;padding-right:30px;'><p>Press '0' for B</p> </div> </div></div>","null","","","","","","","","","","","","","",""
"3021","","test","audio-keyboard-response","200","698280","0.0-8.0-1.85","5f330e4efbd63510972cffd1","condB","","resources/audio/wordStim/S9_AU_19_bxa_Step-5.wav","48","","","","","AU","resources/audio/wordStim/S9_AU_19_bxa_Step-5.wav","S9","19","bxa","5","CN","1","0","false"
"null","","fixation","html-keyboard-response","201","699283","0.0-8.0-0.86","5f330e4efbd63510972cffd1","condB","","<div class=""vertical-center"" style='width:60%;'><p style='font-weight:bold;'>Does the middle word sound more like the first word (A) or the last word (B)?</p> <br> <div class=""container""> <div id=""a-box""> <p class=""title-text"">A</h3></p> </div> <div id=""x-box""> <p class=""title-text"">X<p> </div> <div id=""b-box""> <p class=""title-text"">B</p></div> <br> <div style='float: left;padding-left:30px;'><p>Press '1' for A</p></div><div style='float: right;padding-right:30px;'><p>Press '0' for B</p> </div> </div></div>","null","","","","","","","","","","","","","",""
"3059","","test","audio-keyboard-response","202","702342","0.0-8.0-1.86","5f330e4efbd63510972cffd1","condB","","resources/audio/wordStim/S9_AU_13_axb_Step-4.wav","49","","","","","AU","resources/audio/wordStim/S9_AU_13_axb_Step-4.wav","S9","13","axb","4","CN","0","1","false"
"null","","fixation","html-keyboard-response","203","703346","0.0-8.0-0.87","5f330e4efbd63510972cffd1","condB","","<div class=""vertical-center"" style='width:60%;'><p style='font-weight:bold;'>Does the middle word sound more like the first word (A) or the last word (B)?</p> <br> <div class=""container""> <div id=""a-box""> <p class=""title-text"">A</h3></p> </div> <div id=""x-box""> <p class=""title-text"">X<p> </div> <div id=""b-box""> <p class=""title-text"">B</p></div> <br> <div style='float: left;padding-left:30px;'><p>Press '1' for A</p></div><div style='float: right;padding-right:30px;'><p>Press '0' for B</p> </div> </div></div>","null","","","","","","","","","","","","","",""
"2069","","test","audio-keyboard-response","204","705412","0.0-8.0-1.87","5f330e4efbd63510972cffd1","condB","","resources/audio/wordStim/S3_AU_19_axb_Step-8.wav","48","","","","","AU","resources/audio/wordStim/S3_AU_19_axb_Step-8.wav","S3","19","axb","8","MI","0","0","true"
"null","","fixation","html-keyboard-response","205","706416","0.0-8.0-0.88","5f330e4efbd63510972cffd1","condB","","<div class=""vertical-center"" style='width:60%;'><p style='font-weight:bold;'>Does the middle word sound more like the first word (A) or the last word (B)?</p> <br> <div class=""container""> <div id=""a-box""> <p class=""title-text"">A</h3></p> </div> <div id=""x-box""> <p class=""title-text"">X<p> </div> <div id=""b-box""> <p class=""title-text"">B</p></div> <br> <div style='float: left;padding-left:30px;'><p>Press '1' for A</p></div><div style='float: right;padding-right:30px;'><p>Press '0' for B</p> </div> </div></div>","null","","","","","","","","","","","","","",""
"2181","","test","audio-keyboard-response","206","708594","0.0-8.0-1.88","5f330e4efbd63510972cffd1","condB","","resources/audio/wordStim/S9_AI_25_bxa_Step-3.wav","48","","","","","AI","resources/audio/wordStim/S9_AI_25_bxa_Step-3.wav","S9","25","bxa","3","CN","1","0","false"
"null","","fixation","html-keyboard-response","207","709597","0.0-8.0-0.89","5f330e4efbd63510972cffd1","condB","","<div class=""vertical-center"" style='width:60%;'><p style='font-weight:bold;'>Does the middle word sound more like the first word (A) or the last word (B)?</p> <br> <div class=""container""> <div id=""a-box""> <p class=""title-text"">A</h3></p> </div> <div id=""x-box""> <p class=""title-text"">X<p> </div> <div id=""b-box""> <p class=""title-text"">B</p></div> <br> <div style='float: left;padding-left:30px;'><p>Press '1' for A</p></div><div style='float: right;padding-right:30px;'><p>Press '0' for B</p> </div> </div></div>","null","","","","","","","","","","","","","",""
"3560","","test","audio-keyboard-response","208","713159","0.0-8.0-1.89","5f330e4efbd63510972cffd1","condB","","resources/audio/wordStim/S3_AI_29_bxa_Step-9.wav","48","","","","","AI","resources/audio/wordStim/S3_AI_29_bxa_Step-9.wav","S3","29","bxa","9","MI","1","0","false"
"null","","fixation","html-keyboard-response","209","714161","0.0-8.0-0.90","5f330e4efbd63510972cffd1","condB","","<div class=""vertical-center"" style='width:60%;'><p style='font-weight:bold;'>Does the middle word sound more like the first word (A) or the last word (B)?</p> <br> <div class=""container""> <div id=""a-box""> <p class=""title-text"">A</h3></p> </div> <div id=""x-box""> <p class=""title-text"">X<p> </div> <div id=""b-box""> <p class=""title-text"">B</p></div> <br> <div style='float: left;padding-left:30px;'><p>Press '1' for A</p></div><div style='float: right;padding-right:30px;'><p>Press '0' for B</p> </div> </div></div>","null","","","","","","","","","","","","","",""
"3379","","test","audio-keyboard-response","210","717551","0.0-8.0-1.90","5f330e4efbd63510972cffd1","condB","","resources/audio/wordStim/S9_AU_11_axb_Step-2.wav","49","","","","","AU","resources/audio/wordStim/S9_AU_11_axb_Step-2.wav","S9","11","axb","2","CN","0","1","false"
"null","","fixation","html-keyboard-response","211","718555","0.0-8.0-0.91","5f330e4efbd63510972cffd1","condB","","<div class=""vertical-center"" style='width:60%;'><p style='font-weight:bold;'>Does the middle word sound more like the first word (A) or the last word (B)?</p> <br> <div class=""container""> <div id=""a-box""> <p class=""title-text"">A</h3></p> </div> <div id=""x-box""> <p class=""title-text"">X<p> </div> <div id=""b-box""> <p class=""title-text"">B</p></div> <br> <div style='float: left;padding-left:30px;'><p>Press '1' for A</p></div><div style='float: right;padding-right:30px;'><p>Press '0' for B</p> </div> </div></div>","null","","","","","","","","","","","","","",""
"3131","","test","audio-keyboard-response","212","721687","0.0-8.0-1.91","5f330e4efbd63510972cffd1","condB","","resources/audio/wordStim/S9_AI_24_bxa_Step-7.wav","48","","","","","AI","resources/audio/wordStim/S9_AI_24_bxa_Step-7.wav","S9","24","bxa","7","CN","1","0","false"
"null","","fixation","html-keyboard-response","213","722689","0.0-8.0-0.92","5f330e4efbd63510972cffd1","condB","","<div class=""vertical-center"" style='width:60%;'><p style='font-weight:bold;'>Does the middle word sound more like the first word (A) or the last word (B)?</p> <br> <div class=""container""> <div id=""a-box""> <p class=""title-text"">A</h3></p> </div> <div id=""x-box""> <p class=""title-text"">X<p> </div> <div id=""b-box""> <p class=""title-text"">B</p></div> <br> <div style='float: left;padding-left:30px;'><p>Press '1' for A</p></div><div style='float: right;padding-right:30px;'><p>Press '0' for B</p> </div> </div></div>","null","","","","","","","","","","","","","",""
"3019","","test","audio-keyboard-response","214","725710","0.0-8.0-1.92","5f330e4efbd63510972cffd1","condB","","resources/audio/wordStim/S9_AU_19_bxa_Step-9.wav","49","","","","","AU","resources/audio/wordStim/S9_AU_19_bxa_Step-9.wav","S9","19","bxa","9","CN","1","1","true"
