"rt","url","trial_role","trial_type","trial_index","time_elapsed","internal_node_id","participantId","condition","view_history","stimulus","key_press","button_pressed","correct_answer","correct_response","success","vowel","wordStim","speaker","sentNum","order","step","speakerIdentity","raised_answer","key_response","raised_response"
"25256.890000018757","micr.con.consent.html","consent","external-html","0","25412","0.0-0.0","5f3ac2069abe0e153b9aa1a4","condB","","","","","","","","","","","","","","","","",""
"47456.83000003919","","instructions","instructions","1","72874","0.0-1.0","5f3ac2069abe0e153b9aa1a4","condB","[{""page_index"":0,""viewing_time"":18352.140000031795},{""page_index"":1,""viewing_time"":16387.705000001006},{""page_index"":2,""viewing_time"":12716.199999966193}]","","","","","","","","","","","","","","","",""
"null","","fixation","html-keyboard-response","2","73377","0.0-2.0-0.0","5f3ac2069abe0e153b9aa1a4","condB","","<div class=""vertical-center"" style=""font-size:60px;"">+</div>","null","","","","","","","","","","","","","",""
"4513.510000018869","","tonetest","audio-button-response","3","77896","0.0-2.0-1.0","5f3ac2069abe0e153b9aa1a4","condB","","../../src/audio/toneTest_5.wav","","0","0","true","","","","","","","","","","",""
"null","","fixation","html-keyboard-response","4","78398","0.0-2.0-0.1","5f3ac2069abe0e153b9aa1a4","condB","","<div class=""vertical-center"" style=""font-size:60px;"">+</div>","null","","","","","","","","","","","","","",""
"4323.554999951739","","tonetest","audio-button-response","5","82723","0.0-2.0-1.1","5f3ac2069abe0e153b9aa1a4","condB","","../../src/audio/toneTest_5.wav","","0","0","true","","","","","","","","","","",""
"null","","fixation","html-keyboard-response","6","83225","0.0-2.0-0.2","5f3ac2069abe0e153b9aa1a4","condB","","<div class=""vertical-center"" style=""font-size:60px;"">+</div>","null","","","","","","","","","","","","","",""
"3709.214999980759","","tonetest","audio-button-response","7","86935","0.0-2.0-1.2","5f3ac2069abe0e153b9aa1a4","condB","","../../src/audio/toneTest_4.wav","","1","1","true","","","","","","","","","","",""
"null","","fixation","html-keyboard-response","8","87436","0.0-2.0-0.3","5f3ac2069abe0e153b9aa1a4","condB","","<div class=""vertical-center"" style=""font-size:60px;"">+</div>","null","","","","","","","","","","","","","",""
"3670.70000001695","","tonetest","audio-button-response","9","91109","0.0-2.0-1.3","5f3ac2069abe0e153b9aa1a4","condB","","../../src/audio/toneTest_2.wav","","1","1","true","","","","","","","","","","",""
"null","","fixation","html-keyboard-response","10","91610","0.0-2.0-0.4","5f3ac2069abe0e153b9aa1a4","condB","","<div class=""vertical-center"" style=""font-size:60px;"">+</div>","null","","","","","","","","","","","","","",""
"3831.5200000070035","","tonetest","audio-button-response","11","95443","0.0-2.0-1.4","5f3ac2069abe0e153b9aa1a4","condB","","../../src/audio/toneTest_6.wav","","0","0","true","","","","","","","","","","",""
"null","","fixation","html-keyboard-response","12","95945","0.0-2.0-0.5","5f3ac2069abe0e153b9aa1a4","condB","","<div class=""vertical-center"" style=""font-size:60px;"">+</div>","null","","","","","","","","","","","","","",""
"3565.874999971129","","tonetest","audio-button-response","13","99512","0.0-2.0-1.5","5f3ac2069abe0e153b9aa1a4","condB","","../../src/audio/toneTest_1.wav","","2","2","true","","","","","","","","","","",""
"3412.469999981113","","instructions","html-keyboard-response","14","102926","0.0-3.0","5f3ac2069abe0e153b9aa1a4","condB","","<div class=""vertical-center""><p><b>Your score was 6/6.</b></p><p>If you scored below 6, please ensure that you are wearing properly functioning headphones and in a quiet location free of distractions.</p><p><i>To continue to the main experiment, press SPACE.</i></p></div>","32","","","","","","","","","","","","","",""
"","","","fullscreen","15","127592","0.0-4.0","5f3ac2069abe0e153b9aa1a4","condB","","","","","","","true","","","","","","","","","",""
"21541.689999983646","","instructions","instructions","16","149135","0.0-5.0","5f3ac2069abe0e153b9aa1a4","condB","[{""page_index"":0,""viewing_time"":21541.539999947418}]","","","","","","","","","","","","","","","",""
"null","","fixation","html-keyboard-response","17","149637","0.0-6.0-0.0","5f3ac2069abe0e153b9aa1a4","condB","","<div class=""vertical-center"" style='width:60%;'><p style='font-weight:bold;'>Does the middle word sound more like the first word (A) or the last word (B)?</p> <br> <div class=""container""> <div id=""a-box""> <p class=""title-text"">A</h3></p> </div> <div id=""x-box""> <p class=""title-text"">X<p> </div> <div id=""b-box""> <p class=""title-text"">B</p></div> <br> <div style='float: left;padding-left:30px;'><p>Press '1' for A</p></div><div style='float: right;padding-right:30px;'><p>Press '0' for B</p> </div> </div></div>","null","","","","","","","","","","","","","",""
"18155","","practice","audio-keyboard-response","18","167888","0.0-6.0-1.0","5f3ac2069abe0e153b9aa1a4","condB","","resources/audio/practiceStim/S1_AU_14_bxa_Step-6.wav","48","","","","","","","","","","","","","",""
"null","","fixation","html-keyboard-response","19","168892","0.0-6.0-0.1","5f3ac2069abe0e153b9aa1a4","condB","","<div class=""vertical-center"" style='width:60%;'><p style='font-weight:bold;'>Does the middle word sound more like the first word (A) or the last word (B)?</p> <br> <div class=""container""> <div id=""a-box""> <p class=""title-text"">A</h3></p> </div> <div id=""x-box""> <p class=""title-text"">X<p> </div> <div id=""b-box""> <p class=""title-text"">B</p></div> <br> <div style='float: left;padding-left:30px;'><p>Press '1' for A</p></div><div style='float: right;padding-right:30px;'><p>Press '0' for B</p> </div> </div></div>","null","","","","","","","","","","","","","",""
"4907","","practice","audio-keyboard-response","20","173800","0.0-6.0-1.1","5f3ac2069abe0e153b9aa1a4","condB","","resources/audio/practiceStim/S1_AU_14_axb_Step-6.wav","49","","","","","","","","","","","","","",""
"null","","fixation","html-keyboard-response","21","174806","0.0-6.0-0.2","5f3ac2069abe0e153b9aa1a4","condB","","<div class=""vertical-center"" style='width:60%;'><p style='font-weight:bold;'>Does the middle word sound more like the first word (A) or the last word (B)?</p> <br> <div class=""container""> <div id=""a-box""> <p class=""title-text"">A</h3></p> </div> <div id=""x-box""> <p class=""title-text"">X<p> </div> <div id=""b-box""> <p class=""title-text"">B</p></div> <br> <div style='float: left;padding-left:30px;'><p>Press '1' for A</p></div><div style='float: right;padding-right:30px;'><p>Press '0' for B</p> </div> </div></div>","null","","","","","","","","","","","","","",""
"3397","","practice","audio-keyboard-response","22","178206","0.0-6.0-1.2","5f3ac2069abe0e153b9aa1a4","condB","","resources/audio/practiceStim/S1_AI_21_axb_Step-6.wav","49","","","","","","","","","","","","","",""
"null","","fixation","html-keyboard-response","23","179208","0.0-6.0-0.3","5f3ac2069abe0e153b9aa1a4","condB","","<div class=""vertical-center"" style='width:60%;'><p style='font-weight:bold;'>Does the middle word sound more like the first word (A) or the last word (B)?</p> <br> <div class=""container""> <div id=""a-box""> <p class=""title-text"">A</h3></p> </div> <div id=""x-box""> <p class=""title-text"">X<p> </div> <div id=""b-box""> <p class=""title-text"">B</p></div> <br> <div style='float: left;padding-left:30px;'><p>Press '1' for A</p></div><div style='float: right;padding-right:30px;'><p>Press '0' for B</p> </div> </div></div>","null","","","","","","","","","","","","","",""
"3755","","practice","audio-keyboard-response","24","182965","0.0-6.0-1.3","5f3ac2069abe0e153b9aa1a4","condB","","resources/audio/practiceStim/S1_AI_21_bxa_Step-6.wav","49","","","","","","","","","","","","","",""
"2096.750000026077","","instructions","instructions","25","185564","0.0-7.0","5f3ac2069abe0e153b9aa1a4","condB","[{""page_index"":0,""viewing_time"":2096.610000007786}]","","","","","","","","","","","","","","","",""
"null","","fixation","html-keyboard-response","26","186065","0.0-8.0-0.0","5f3ac2069abe0e153b9aa1a4","condB","","<div class=""vertical-center"" style='width:60%;'><p style='font-weight:bold;'>Does the middle word sound more like the first word (A) or the last word (B)?</p> <br> <div class=""container""> <div id=""a-box""> <p class=""title-text"">A</h3></p> </div> <div id=""x-box""> <p class=""title-text"">X<p> </div> <div id=""b-box""> <p class=""title-text"">B</p></div> <br> <div style='float: left;padding-left:30px;'><p>Press '1' for A</p></div><div style='float: right;padding-right:30px;'><p>Press '0' for B</p> </div> </div></div>","null","","","","","","","","","","","","","",""
"4955","","test","audio-keyboard-response","27","191021","0.0-8.0-1.0","5f3ac2069abe0e153b9aa1a4","condB","","resources/audio/wordStim/S3_AI_28_bxa_Step-7.wav","49","","","","","AI","resources/audio/wordStim/S3_AI_28_bxa_Step-7.wav","S3","28","bxa","7","MI","1","1","true"
"null","","fixation","html-keyboard-response","28","192027","0.0-8.0-0.1","5f3ac2069abe0e153b9aa1a4","condB","","<div class=""vertical-center"" style='width:60%;'><p style='font-weight:bold;'>Does the middle word sound more like the first word (A) or the last word (B)?</p> <br> <div class=""container""> <div id=""a-box""> <p class=""title-text"">A</h3></p> </div> <div id=""x-box""> <p class=""title-text"">X<p> </div> <div id=""b-box""> <p class=""title-text"">B</p></div> <br> <div style='float: left;padding-left:30px;'><p>Press '1' for A</p></div><div style='float: right;padding-right:30px;'><p>Press '0' for B</p> </div> </div></div>","null","","","","","","","","","","","","","",""
"4832","","test","audio-keyboard-response","29","196862","0.0-8.0-1.1","5f3ac2069abe0e153b9aa1a4","condB","","resources/audio/wordStim/S9_AI_22_axb_Step-8.wav","48","","","","","AI","resources/audio/wordStim/S9_AI_22_axb_Step-8.wav","S9","22","axb","8","CN","0","0","true"
"null","","fixation","html-keyboard-response","30","197865","0.0-8.0-0.2","5f3ac2069abe0e153b9aa1a4","condB","","<div class=""vertical-center"" style='width:60%;'><p style='font-weight:bold;'>Does the middle word sound more like the first word (A) or the last word (B)?</p> <br> <div class=""container""> <div id=""a-box""> <p class=""title-text"">A</h3></p> </div> <div id=""x-box""> <p class=""title-text"">X<p> </div> <div id=""b-box""> <p class=""title-text"">B</p></div> <br> <div style='float: left;padding-left:30px;'><p>Press '1' for A</p></div><div style='float: right;padding-right:30px;'><p>Press '0' for B</p> </div> </div></div>","null","","","","","","","","","","","","","",""
"3429","","test","audio-keyboard-response","31","201294","0.0-8.0-1.2","5f3ac2069abe0e153b9aa1a4","condB","","resources/audio/wordStim/S9_AI_23_axb_Step-6.wav","49","","","","","AI","resources/audio/wordStim/S9_AI_23_axb_Step-6.wav","S9","23","axb","6","CN","0","1","false"
"null","","fixation","html-keyboard-response","32","202300","0.0-8.0-0.3","5f3ac2069abe0e153b9aa1a4","condB","","<div class=""vertical-center"" style='width:60%;'><p style='font-weight:bold;'>Does the middle word sound more like the first word (A) or the last word (B)?</p> <br> <div class=""container""> <div id=""a-box""> <p class=""title-text"">A</h3></p> </div> <div id=""x-box""> <p class=""title-text"">X<p> </div> <div id=""b-box""> <p class=""title-text"">B</p></div> <br> <div style='float: left;padding-left:30px;'><p>Press '1' for A</p></div><div style='float: right;padding-right:30px;'><p>Press '0' for B</p> </div> </div></div>","null","","","","","","","","","","","","","",""
"315","","test","audio-keyboard-response","33","202618","0.0-8.0-1.3","5f3ac2069abe0e153b9aa1a4","condB","","resources/audio/wordStim/S9_AU_16_bxa_Step-3.wav","49","","","","","AU","resources/audio/wordStim/S9_AU_16_bxa_Step-3.wav","S9","16","bxa","3","CN","1","1","true"
"null","","fixation","html-keyboard-response","34","203623","0.0-8.0-0.4","5f3ac2069abe0e153b9aa1a4","condB","","<div class=""vertical-center"" style='width:60%;'><p style='font-weight:bold;'>Does the middle word sound more like the first word (A) or the last word (B)?</p> <br> <div class=""container""> <div id=""a-box""> <p class=""title-text"">A</h3></p> </div> <div id=""x-box""> <p class=""title-text"">X<p> </div> <div id=""b-box""> <p class=""title-text"">B</p></div> <br> <div style='float: left;padding-left:30px;'><p>Press '1' for A</p></div><div style='float: right;padding-right:30px;'><p>Press '0' for B</p> </div> </div></div>","null","","","","","","","","","","","","","",""
"4331","","test","audio-keyboard-response","35","207954","0.0-8.0-1.4","5f3ac2069abe0e153b9aa1a4","condB","","resources/audio/wordStim/S3_AU_11_axb_Step-4.wav","48","","","","","AU","resources/audio/wordStim/S3_AU_11_axb_Step-4.wav","S3","11","axb","4","MI","0","0","true"
"null","","fixation","html-keyboard-response","36","208956","0.0-8.0-0.5","5f3ac2069abe0e153b9aa1a4","condB","","<div class=""vertical-center"" style='width:60%;'><p style='font-weight:bold;'>Does the middle word sound more like the first word (A) or the last word (B)?</p> <br> <div class=""container""> <div id=""a-box""> <p class=""title-text"">A</h3></p> </div> <div id=""x-box""> <p class=""title-text"">X<p> </div> <div id=""b-box""> <p class=""title-text"">B</p></div> <br> <div style='float: left;padding-left:30px;'><p>Press '1' for A</p></div><div style='float: right;padding-right:30px;'><p>Press '0' for B</p> </div> </div></div>","null","","","","","","","","","","","","","",""
"4416","","test","audio-keyboard-response","37","213377","0.0-8.0-1.5","5f3ac2069abe0e153b9aa1a4","condB","","resources/audio/wordStim/S9_AI_30_axb_Step-2.wav","49","","","","","AI","resources/audio/wordStim/S9_AI_30_axb_Step-2.wav","S9","30","axb","2","CN","0","1","false"
"null","","fixation","html-keyboard-response","38","214380","0.0-8.0-0.6","5f3ac2069abe0e153b9aa1a4","condB","","<div class=""vertical-center"" style='width:60%;'><p style='font-weight:bold;'>Does the middle word sound more like the first word (A) or the last word (B)?</p> <br> <div class=""container""> <div id=""a-box""> <p class=""title-text"">A</h3></p> </div> <div id=""x-box""> <p class=""title-text"">X<p> </div> <div id=""b-box""> <p class=""title-text"">B</p></div> <br> <div style='float: left;padding-left:30px;'><p>Press '1' for A</p></div><div style='float: right;padding-right:30px;'><p>Press '0' for B</p> </div> </div></div>","null","","","","","","","","","","","","","",""
"3291","","test","audio-keyboard-response","39","217674","0.0-8.0-1.6","5f3ac2069abe0e153b9aa1a4","condB","","resources/audio/wordStim/S9_AU_14_axb_Step-2.wav","49","","","","","AU","resources/audio/wordStim/S9_AU_14_axb_Step-2.wav","S9","14","axb","2","CN","0","1","false"
"null","","fixation","html-keyboard-response","40","218680","0.0-8.0-0.7","5f3ac2069abe0e153b9aa1a4","condB","","<div class=""vertical-center"" style='width:60%;'><p style='font-weight:bold;'>Does the middle word sound more like the first word (A) or the last word (B)?</p> <br> <div class=""container""> <div id=""a-box""> <p class=""title-text"">A</h3></p> </div> <div id=""x-box""> <p class=""title-text"">X<p> </div> <div id=""b-box""> <p class=""title-text"">B</p></div> <br> <div style='float: left;padding-left:30px;'><p>Press '1' for A</p></div><div style='float: right;padding-right:30px;'><p>Press '0' for B</p> </div> </div></div>","null","","","","","","","","","","","","","",""
"4683","","test","audio-keyboard-response","41","223364","0.0-8.0-1.7","5f3ac2069abe0e153b9aa1a4","condB","","resources/audio/wordStim/S3_AU_16_axb_Step-8.wav","49","","","","","AU","resources/audio/wordStim/S3_AU_16_axb_Step-8.wav","S3","16","axb","8","MI","0","1","false"
"null","","fixation","html-keyboard-response","42","224370","0.0-8.0-0.8","5f3ac2069abe0e153b9aa1a4","condB","","<div class=""vertical-center"" style='width:60%;'><p style='font-weight:bold;'>Does the middle word sound more like the first word (A) or the last word (B)?</p> <br> <div class=""container""> <div id=""a-box""> <p class=""title-text"">A</h3></p> </div> <div id=""x-box""> <p class=""title-text"">X<p> </div> <div id=""b-box""> <p class=""title-text"">B</p></div> <br> <div style='float: left;padding-left:30px;'><p>Press '1' for A</p></div><div style='float: right;padding-right:30px;'><p>Press '0' for B</p> </div> </div></div>","null","","","","","","","","","","","","","",""
"3632","","test","audio-keyboard-response","43","228004","0.0-8.0-1.8","5f3ac2069abe0e153b9aa1a4","condB","","resources/audio/wordStim/S3_AI_29_axb_Step-2.wav","49","","","","","AI","resources/audio/wordStim/S3_AI_29_axb_Step-2.wav","S3","29","axb","2","MI","0","1","false"
"null","","fixation","html-keyboard-response","44","229009","0.0-8.0-0.9","5f3ac2069abe0e153b9aa1a4","condB","","<div class=""vertical-center"" style='width:60%;'><p style='font-weight:bold;'>Does the middle word sound more like the first word (A) or the last word (B)?</p> <br> <div class=""container""> <div id=""a-box""> <p class=""title-text"">A</h3></p> </div> <div id=""x-box""> <p class=""title-text"">X<p> </div> <div id=""b-box""> <p class=""title-text"">B</p></div> <br> <div style='float: left;padding-left:30px;'><p>Press '1' for A</p></div><div style='float: right;padding-right:30px;'><p>Press '0' for B</p> </div> </div></div>","null","","","","","","","","","","","","","",""
"4048","","test","audio-keyboard-response","45","233058","0.0-8.0-1.9","5f3ac2069abe0e153b9aa1a4","condB","","resources/audio/wordStim/S9_AI_24_bxa_Step-3.wav","48","","","","","AI","resources/audio/wordStim/S9_AI_24_bxa_Step-3.wav","S9","24","bxa","3","CN","1","0","false"
"null","","fixation","html-keyboard-response","46","234061","0.0-8.0-0.10","5f3ac2069abe0e153b9aa1a4","condB","","<div class=""vertical-center"" style='width:60%;'><p style='font-weight:bold;'>Does the middle word sound more like the first word (A) or the last word (B)?</p> <br> <div class=""container""> <div id=""a-box""> <p class=""title-text"">A</h3></p> </div> <div id=""x-box""> <p class=""title-text"">X<p> </div> <div id=""b-box""> <p class=""title-text"">B</p></div> <br> <div style='float: left;padding-left:30px;'><p>Press '1' for A</p></div><div style='float: right;padding-right:30px;'><p>Press '0' for B</p> </div> </div></div>","null","","","","","","","","","","","","","",""
"3424","","test","audio-keyboard-response","47","237485","0.0-8.0-1.10","5f3ac2069abe0e153b9aa1a4","condB","","resources/audio/wordStim/S3_AI_30_axb_Step-2.wav","49","","","","","AI","resources/audio/wordStim/S3_AI_30_axb_Step-2.wav","S3","30","axb","2","MI","0","1","false"
"null","","fixation","html-keyboard-response","48","238488","0.0-8.0-0.11","5f3ac2069abe0e153b9aa1a4","condB","","<div class=""vertical-center"" style='width:60%;'><p style='font-weight:bold;'>Does the middle word sound more like the first word (A) or the last word (B)?</p> <br> <div class=""container""> <div id=""a-box""> <p class=""title-text"">A</h3></p> </div> <div id=""x-box""> <p class=""title-text"">X<p> </div> <div id=""b-box""> <p class=""title-text"">B</p></div> <br> <div style='float: left;padding-left:30px;'><p>Press '1' for A</p></div><div style='float: right;padding-right:30px;'><p>Press '0' for B</p> </div> </div></div>","null","","","","","","","","","","","","","",""
"3227","","test","audio-keyboard-response","49","241717","0.0-8.0-1.11","5f3ac2069abe0e153b9aa1a4","condB","","resources/audio/wordStim/S3_AI_28_bxa_Step-3.wav","48","","","","","AI","resources/audio/wordStim/S3_AI_28_bxa_Step-3.wav","S3","28","bxa","3","MI","1","0","false"
"null","","fixation","html-keyboard-response","50","242722","0.0-8.0-0.12","5f3ac2069abe0e153b9aa1a4","condB","","<div class=""vertical-center"" style='width:60%;'><p style='font-weight:bold;'>Does the middle word sound more like the first word (A) or the last word (B)?</p> <br> <div class=""container""> <div id=""a-box""> <p class=""title-text"">A</h3></p> </div> <div id=""x-box""> <p class=""title-text"">X<p> </div> <div id=""b-box""> <p class=""title-text"">B</p></div> <br> <div style='float: left;padding-left:30px;'><p>Press '1' for A</p></div><div style='float: right;padding-right:30px;'><p>Press '0' for B</p> </div> </div></div>","null","","","","","","","","","","","","","",""
"3232","","test","audio-keyboard-response","51","245958","0.0-8.0-1.12","5f3ac2069abe0e153b9aa1a4","condB","","resources/audio/wordStim/S3_AU_15_axb_Step-8.wav","48","","","","","AU","resources/audio/wordStim/S3_AU_15_axb_Step-8.wav","S3","15","axb","8","MI","0","0","true"
"null","","fixation","html-keyboard-response","52","246962","0.0-8.0-0.13","5f3ac2069abe0e153b9aa1a4","condB","","<div class=""vertical-center"" style='width:60%;'><p style='font-weight:bold;'>Does the middle word sound more like the first word (A) or the last word (B)?</p> <br> <div class=""container""> <div id=""a-box""> <p class=""title-text"">A</h3></p> </div> <div id=""x-box""> <p class=""title-text"">X<p> </div> <div id=""b-box""> <p class=""title-text"">B</p></div> <br> <div style='float: left;padding-left:30px;'><p>Press '1' for A</p></div><div style='float: right;padding-right:30px;'><p>Press '0' for B</p> </div> </div></div>","null","","","","","","","","","","","","","",""
"2677","","test","audio-keyboard-response","53","249641","0.0-8.0-1.13","5f3ac2069abe0e153b9aa1a4","condB","","resources/audio/wordStim/S3_AI_21_bxa_Step-5.wav","49","","","","","AI","resources/audio/wordStim/S3_AI_21_bxa_Step-5.wav","S3","21","bxa","5","MI","1","1","true"
"null","","fixation","html-keyboard-response","54","250647","0.0-8.0-0.14","5f3ac2069abe0e153b9aa1a4","condB","","<div class=""vertical-center"" style='width:60%;'><p style='font-weight:bold;'>Does the middle word sound more like the first word (A) or the last word (B)?</p> <br> <div class=""container""> <div id=""a-box""> <p class=""title-text"">A</h3></p> </div> <div id=""x-box""> <p class=""title-text"">X<p> </div> <div id=""b-box""> <p class=""title-text"">B</p></div> <br> <div style='float: left;padding-left:30px;'><p>Press '1' for A</p></div><div style='float: right;padding-right:30px;'><p>Press '0' for B</p> </div> </div></div>","null","","","","","","","","","","","","","",""
"2928","","test","audio-keyboard-response","55","253576","0.0-8.0-1.14","5f3ac2069abe0e153b9aa1a4","condB","","resources/audio/wordStim/S3_AU_15_axb_Step-2.wav","49","","","","","AU","resources/audio/wordStim/S3_AU_15_axb_Step-2.wav","S3","15","axb","2","MI","0","1","false"
"null","","fixation","html-keyboard-response","56","254578","0.0-8.0-0.15","5f3ac2069abe0e153b9aa1a4","condB","","<div class=""vertical-center"" style='width:60%;'><p style='font-weight:bold;'>Does the middle word sound more like the first word (A) or the last word (B)?</p> <br> <div class=""container""> <div id=""a-box""> <p class=""title-text"">A</h3></p> </div> <div id=""x-box""> <p class=""title-text"">X<p> </div> <div id=""b-box""> <p class=""title-text"">B</p></div> <br> <div style='float: left;padding-left:30px;'><p>Press '1' for A</p></div><div style='float: right;padding-right:30px;'><p>Press '0' for B</p> </div> </div></div>","null","","","","","","","","","","","","","",""
"3632","","test","audio-keyboard-response","57","258211","0.0-8.0-1.15","5f3ac2069abe0e153b9aa1a4","condB","","resources/audio/wordStim/S3_AI_30_bxa_Step-5.wav","49","","","","","AI","resources/audio/wordStim/S3_AI_30_bxa_Step-5.wav","S3","30","bxa","5","MI","1","1","true"
"null","","fixation","html-keyboard-response","58","259213","0.0-8.0-0.16","5f3ac2069abe0e153b9aa1a4","condB","","<div class=""vertical-center"" style='width:60%;'><p style='font-weight:bold;'>Does the middle word sound more like the first word (A) or the last word (B)?</p> <br> <div class=""container""> <div id=""a-box""> <p class=""title-text"">A</h3></p> </div> <div id=""x-box""> <p class=""title-text"">X<p> </div> <div id=""b-box""> <p class=""title-text"">B</p></div> <br> <div style='float: left;padding-left:30px;'><p>Press '1' for A</p></div><div style='float: right;padding-right:30px;'><p>Press '0' for B</p> </div> </div></div>","null","","","","","","","","","","","","","",""
"3707","","test","audio-keyboard-response","59","262923","0.0-8.0-1.16","5f3ac2069abe0e153b9aa1a4","condB","","resources/audio/wordStim/S9_AI_27_axb_Step-8.wav","48","","","","","AI","resources/audio/wordStim/S9_AI_27_axb_Step-8.wav","S9","27","axb","8","CN","0","0","true"
"null","","fixation","html-keyboard-response","60","263927","0.0-8.0-0.17","5f3ac2069abe0e153b9aa1a4","condB","","<div class=""vertical-center"" style='width:60%;'><p style='font-weight:bold;'>Does the middle word sound more like the first word (A) or the last word (B)?</p> <br> <div class=""container""> <div id=""a-box""> <p class=""title-text"">A</h3></p> </div> <div id=""x-box""> <p class=""title-text"">X<p> </div> <div id=""b-box""> <p class=""title-text"">B</p></div> <br> <div style='float: left;padding-left:30px;'><p>Press '1' for A</p></div><div style='float: right;padding-right:30px;'><p>Press '0' for B</p> </div> </div></div>","null","","","","","","","","","","","","","",""
"3067","","test","audio-keyboard-response","61","266996","0.0-8.0-1.17","5f3ac2069abe0e153b9aa1a4","condB","","resources/audio/wordStim/S9_AU_16_bxa_Step-9.wav","49","","","","","AU","resources/audio/wordStim/S9_AU_16_bxa_Step-9.wav","S9","16","bxa","9","CN","1","1","true"
"null","","fixation","html-keyboard-response","62","268002","0.0-8.0-0.18","5f3ac2069abe0e153b9aa1a4","condB","","<div class=""vertical-center"" style='width:60%;'><p style='font-weight:bold;'>Does the middle word sound more like the first word (A) or the last word (B)?</p> <br> <div class=""container""> <div id=""a-box""> <p class=""title-text"">A</h3></p> </div> <div id=""x-box""> <p class=""title-text"">X<p> </div> <div id=""b-box""> <p class=""title-text"">B</p></div> <br> <div style='float: left;padding-left:30px;'><p>Press '1' for A</p></div><div style='float: right;padding-right:30px;'><p>Press '0' for B</p> </div> </div></div>","null","","","","","","","","","","","","","",""
"3499","","test","audio-keyboard-response","63","271502","0.0-8.0-1.18","5f3ac2069abe0e153b9aa1a4","condB","","resources/audio/wordStim/S3_AU_16_axb_Step-2.wav","49","","","","","AU","resources/audio/wordStim/S3_AU_16_axb_Step-2.wav","S3","16","axb","2","MI","0","1","false"
"null","","fixation","html-keyboard-response","64","272504","0.0-8.0-0.19","5f3ac2069abe0e153b9aa1a4","condB","","<div class=""vertical-center"" style='width:60%;'><p style='font-weight:bold;'>Does the middle word sound more like the first word (A) or the last word (B)?</p> <br> <div class=""container""> <div id=""a-box""> <p class=""title-text"">A</h3></p> </div> <div id=""x-box""> <p class=""title-text"">X<p> </div> <div id=""b-box""> <p class=""title-text"">B</p></div> <br> <div style='float: left;padding-left:30px;'><p>Press '1' for A</p></div><div style='float: right;padding-right:30px;'><p>Press '0' for B</p> </div> </div></div>","null","","","","","","","","","","","","","",""
"3291","","test","audio-keyboard-response","65","275797","0.0-8.0-1.19","5f3ac2069abe0e153b9aa1a4","condB","","resources/audio/wordStim/S3_AI_22_axb_Step-6.wav","49","","","","","AI","resources/audio/wordStim/S3_AI_22_axb_Step-6.wav","S3","22","axb","6","MI","0","1","false"
"null","","fixation","html-keyboard-response","66","276803","0.0-8.0-0.20","5f3ac2069abe0e153b9aa1a4","condB","","<div class=""vertical-center"" style='width:60%;'><p style='font-weight:bold;'>Does the middle word sound more like the first word (A) or the last word (B)?</p> <br> <div class=""container""> <div id=""a-box""> <p class=""title-text"">A</h3></p> </div> <div id=""x-box""> <p class=""title-text"">X<p> </div> <div id=""b-box""> <p class=""title-text"">B</p></div> <br> <div style='float: left;padding-left:30px;'><p>Press '1' for A</p></div><div style='float: right;padding-right:30px;'><p>Press '0' for B</p> </div> </div></div>","null","","","","","","","","","","","","","",""
"3056","","test","audio-keyboard-response","67","279860","0.0-8.0-1.20","5f3ac2069abe0e153b9aa1a4","condB","","resources/audio/wordStim/S3_AU_20_axb_Step-2.wav","49","","","","","AU","resources/audio/wordStim/S3_AU_20_axb_Step-2.wav","S3","20","axb","2","MI","0","1","false"
"null","","fixation","html-keyboard-response","68","280864","0.0-8.0-0.21","5f3ac2069abe0e153b9aa1a4","condB","","<div class=""vertical-center"" style='width:60%;'><p style='font-weight:bold;'>Does the middle word sound more like the first word (A) or the last word (B)?</p> <br> <div class=""container""> <div id=""a-box""> <p class=""title-text"">A</h3></p> </div> <div id=""x-box""> <p class=""title-text"">X<p> </div> <div id=""b-box""> <p class=""title-text"">B</p></div> <br> <div style='float: left;padding-left:30px;'><p>Press '1' for A</p></div><div style='float: right;padding-right:30px;'><p>Press '0' for B</p> </div> </div></div>","null","","","","","","","","","","","","","",""
"3531","","test","audio-keyboard-response","69","284395","0.0-8.0-1.21","5f3ac2069abe0e153b9aa1a4","condB","","resources/audio/wordStim/S3_AU_17_axb_Step-6.wav","49","","","","","AU","resources/audio/wordStim/S3_AU_17_axb_Step-6.wav","S3","17","axb","6","MI","0","1","false"
"null","","fixation","html-keyboard-response","70","285400","0.0-8.0-0.22","5f3ac2069abe0e153b9aa1a4","condB","","<div class=""vertical-center"" style='width:60%;'><p style='font-weight:bold;'>Does the middle word sound more like the first word (A) or the last word (B)?</p> <br> <div class=""container""> <div id=""a-box""> <p class=""title-text"">A</h3></p> </div> <div id=""x-box""> <p class=""title-text"">X<p> </div> <div id=""b-box""> <p class=""title-text"">B</p></div> <br> <div style='float: left;padding-left:30px;'><p>Press '1' for A</p></div><div style='float: right;padding-right:30px;'><p>Press '0' for B</p> </div> </div></div>","null","","","","","","","","","","","","","",""
"4251","","test","audio-keyboard-response","71","289655","0.0-8.0-1.22","5f3ac2069abe0e153b9aa1a4","condB","","resources/audio/wordStim/S3_AI_23_bxa_Step-5.wav","48","","","","","AI","resources/audio/wordStim/S3_AI_23_bxa_Step-5.wav","S3","23","bxa","5","MI","1","0","false"
"null","","fixation","html-keyboard-response","72","290659","0.0-8.0-0.23","5f3ac2069abe0e153b9aa1a4","condB","","<div class=""vertical-center"" style='width:60%;'><p style='font-weight:bold;'>Does the middle word sound more like the first word (A) or the last word (B)?</p> <br> <div class=""container""> <div id=""a-box""> <p class=""title-text"">A</h3></p> </div> <div id=""x-box""> <p class=""title-text"">X<p> </div> <div id=""b-box""> <p class=""title-text"">B</p></div> <br> <div style='float: left;padding-left:30px;'><p>Press '1' for A</p></div><div style='float: right;padding-right:30px;'><p>Press '0' for B</p> </div> </div></div>","null","","","","","","","","","","","","","",""
"4549","","test","audio-keyboard-response","73","295209","0.0-8.0-1.23","5f3ac2069abe0e153b9aa1a4","condB","","resources/audio/wordStim/S3_AU_11_axb_Step-6.wav","48","","","","","AU","resources/audio/wordStim/S3_AU_11_axb_Step-6.wav","S3","11","axb","6","MI","0","0","true"
"null","","fixation","html-keyboard-response","74","296211","0.0-8.0-0.24","5f3ac2069abe0e153b9aa1a4","condB","","<div class=""vertical-center"" style='width:60%;'><p style='font-weight:bold;'>Does the middle word sound more like the first word (A) or the last word (B)?</p> <br> <div class=""container""> <div id=""a-box""> <p class=""title-text"">A</h3></p> </div> <div id=""x-box""> <p class=""title-text"">X<p> </div> <div id=""b-box""> <p class=""title-text"">B</p></div> <br> <div style='float: left;padding-left:30px;'><p>Press '1' for A</p></div><div style='float: right;padding-right:30px;'><p>Press '0' for B</p> </div> </div></div>","null","","","","","","","","","","","","","",""
"3483","","test","audio-keyboard-response","75","299696","0.0-8.0-1.24","5f3ac2069abe0e153b9aa1a4","condB","","resources/audio/wordStim/S9_AU_14_axb_Step-6.wav","49","","","","","AU","resources/audio/wordStim/S9_AU_14_axb_Step-6.wav","S9","14","axb","6","CN","0","1","false"
"null","","fixation","html-keyboard-response","76","300701","0.0-8.0-0.25","5f3ac2069abe0e153b9aa1a4","condB","","<div class=""vertical-center"" style='width:60%;'><p style='font-weight:bold;'>Does the middle word sound more like the first word (A) or the last word (B)?</p> <br> <div class=""container""> <div id=""a-box""> <p class=""title-text"">A</h3></p> </div> <div id=""x-box""> <p class=""title-text"">X<p> </div> <div id=""b-box""> <p class=""title-text"">B</p></div> <br> <div style='float: left;padding-left:30px;'><p>Press '1' for A</p></div><div style='float: right;padding-right:30px;'><p>Press '0' for B</p> </div> </div></div>","null","","","","","","","","","","","","","",""
"3595","","test","audio-keyboard-response","77","304300","0.0-8.0-1.25","5f3ac2069abe0e153b9aa1a4","condB","","resources/audio/wordStim/S9_AU_18_axb_Step-4.wav","49","","","","","AU","resources/audio/wordStim/S9_AU_18_axb_Step-4.wav","S9","18","axb","4","CN","0","1","false"
"null","","fixation","html-keyboard-response","78","305304","0.0-8.0-0.26","5f3ac2069abe0e153b9aa1a4","condB","","<div class=""vertical-center"" style='width:60%;'><p style='font-weight:bold;'>Does the middle word sound more like the first word (A) or the last word (B)?</p> <br> <div class=""container""> <div id=""a-box""> <p class=""title-text"">A</h3></p> </div> <div id=""x-box""> <p class=""title-text"">X<p> </div> <div id=""b-box""> <p class=""title-text"">B</p></div> <br> <div style='float: left;padding-left:30px;'><p>Press '1' for A</p></div><div style='float: right;padding-right:30px;'><p>Press '0' for B</p> </div> </div></div>","null","","","","","","","","","","","","","",""
"3701","","test","audio-keyboard-response","79","309009","0.0-8.0-1.26","5f3ac2069abe0e153b9aa1a4","condB","","resources/audio/wordStim/S3_AU_16_bxa_Step-7.wav","49","","","","","AU","resources/audio/wordStim/S3_AU_16_bxa_Step-7.wav","S3","16","bxa","7","MI","1","1","true"
"1476.8299999996088","","break","html-keyboard-response","80","310988","0.0-8.0-2.26-0.26","5f3ac2069abe0e153b9aa1a4","condB","","<div class=""vertical-center""><p>Feel free to take a break!</p><i>When you're ready to continue, press SPACE to begin the next trial.</i></p></div>","32","","","","","","","","","","","","","",""
"null","","fixation","html-keyboard-response","81","311489","0.0-8.0-0.27","5f3ac2069abe0e153b9aa1a4","condB","","<div class=""vertical-center"" style='width:60%;'><p style='font-weight:bold;'>Does the middle word sound more like the first word (A) or the last word (B)?</p> <br> <div class=""container""> <div id=""a-box""> <p class=""title-text"">A</h3></p> </div> <div id=""x-box""> <p class=""title-text"">X<p> </div> <div id=""b-box""> <p class=""title-text"">B</p></div> <br> <div style='float: left;padding-left:30px;'><p>Press '1' for A</p></div><div style='float: right;padding-right:30px;'><p>Press '0' for B</p> </div> </div></div>","null","","","","","","","","","","","","","",""
"2784","","test","audio-keyboard-response","82","314274","0.0-8.0-1.27","5f3ac2069abe0e153b9aa1a4","condB","","resources/audio/wordStim/S3_AU_19_axb_Step-4.wav","49","","","","","AU","resources/audio/wordStim/S3_AU_19_axb_Step-4.wav","S3","19","axb","4","MI","0","1","false"
"null","","fixation","html-keyboard-response","83","315277","0.0-8.0-0.28","5f3ac2069abe0e153b9aa1a4","condB","","<div class=""vertical-center"" style='width:60%;'><p style='font-weight:bold;'>Does the middle word sound more like the first word (A) or the last word (B)?</p> <br> <div class=""container""> <div id=""a-box""> <p class=""title-text"">A</h3></p> </div> <div id=""x-box""> <p class=""title-text"">X<p> </div> <div id=""b-box""> <p class=""title-text"">B</p></div> <br> <div style='float: left;padding-left:30px;'><p>Press '1' for A</p></div><div style='float: right;padding-right:30px;'><p>Press '0' for B</p> </div> </div></div>","null","","","","","","","","","","","","","",""
"3040","","test","audio-keyboard-response","84","318318","0.0-8.0-1.28","5f3ac2069abe0e153b9aa1a4","condB","","resources/audio/wordStim/S3_AI_23_bxa_Step-7.wav","48","","","","","AI","resources/audio/wordStim/S3_AI_23_bxa_Step-7.wav","S3","23","bxa","7","MI","1","0","false"
"null","","fixation","html-keyboard-response","85","319320","0.0-8.0-0.29","5f3ac2069abe0e153b9aa1a4","condB","","<div class=""vertical-center"" style='width:60%;'><p style='font-weight:bold;'>Does the middle word sound more like the first word (A) or the last word (B)?</p> <br> <div class=""container""> <div id=""a-box""> <p class=""title-text"">A</h3></p> </div> <div id=""x-box""> <p class=""title-text"">X<p> </div> <div id=""b-box""> <p class=""title-text"">B</p></div> <br> <div style='float: left;padding-left:30px;'><p>Press '1' for A</p></div><div style='float: right;padding-right:30px;'><p>Press '0' for B</p> </div> </div></div>","null","","","","","","","","","","","","","",""
"2731","","test","audio-keyboard-response","86","322052","0.0-8.0-1.29","5f3ac2069abe0e153b9aa1a4","condB","","resources/audio/wordStim/S9_AI_27_bxa_Step-9.wav","49","","","","","AI","resources/audio/wordStim/S9_AI_27_bxa_Step-9.wav","S9","27","bxa","9","CN","1","1","true"
"null","","fixation","html-keyboard-response","87","323054","0.0-8.0-0.30","5f3ac2069abe0e153b9aa1a4","condB","","<div class=""vertical-center"" style='width:60%;'><p style='font-weight:bold;'>Does the middle word sound more like the first word (A) or the last word (B)?</p> <br> <div class=""container""> <div id=""a-box""> <p class=""title-text"">A</h3></p> </div> <div id=""x-box""> <p class=""title-text"">X<p> </div> <div id=""b-box""> <p class=""title-text"">B</p></div> <br> <div style='float: left;padding-left:30px;'><p>Press '1' for A</p></div><div style='float: right;padding-right:30px;'><p>Press '0' for B</p> </div> </div></div>","null","","","","","","","","","","","","","",""
"4155","","test","audio-keyboard-response","88","327211","0.0-8.0-1.30","5f3ac2069abe0e153b9aa1a4","condB","","resources/audio/wordStim/S9_AI_25_bxa_Step-5.wav","49","","","","","AI","resources/audio/wordStim/S9_AI_25_bxa_Step-5.wav","S9","25","bxa","5","CN","1","1","true"
"null","","fixation","html-keyboard-response","89","328215","0.0-8.0-0.31","5f3ac2069abe0e153b9aa1a4","condB","","<div class=""vertical-center"" style='width:60%;'><p style='font-weight:bold;'>Does the middle word sound more like the first word (A) or the last word (B)?</p> <br> <div class=""container""> <div id=""a-box""> <p class=""title-text"">A</h3></p> </div> <div id=""x-box""> <p class=""title-text"">X<p> </div> <div id=""b-box""> <p class=""title-text"">B</p></div> <br> <div style='float: left;padding-left:30px;'><p>Press '1' for A</p></div><div style='float: right;padding-right:30px;'><p>Press '0' for B</p> </div> </div></div>","null","","","","","","","","","","","","","",""
"3883","","test","audio-keyboard-response","90","332104","0.0-8.0-1.31","5f3ac2069abe0e153b9aa1a4","condB","","resources/audio/wordStim/S3_AI_28_bxa_Step-5.wav","48","","","","","AI","resources/audio/wordStim/S3_AI_28_bxa_Step-5.wav","S3","28","bxa","5","MI","1","0","false"
"null","","fixation","html-keyboard-response","91","333109","0.0-8.0-0.32","5f3ac2069abe0e153b9aa1a4","condB","","<div class=""vertical-center"" style='width:60%;'><p style='font-weight:bold;'>Does the middle word sound more like the first word (A) or the last word (B)?</p> <br> <div class=""container""> <div id=""a-box""> <p class=""title-text"">A</h3></p> </div> <div id=""x-box""> <p class=""title-text"">X<p> </div> <div id=""b-box""> <p class=""title-text"">B</p></div> <br> <div style='float: left;padding-left:30px;'><p>Press '1' for A</p></div><div style='float: right;padding-right:30px;'><p>Press '0' for B</p> </div> </div></div>","null","","","","","","","","","","","","","",""
"2693","","test","audio-keyboard-response","92","335800","0.0-8.0-1.32","5f3ac2069abe0e153b9aa1a4","condB","","resources/audio/wordStim/S9_AU_17_bxa_Step-9.wav","49","","","","","AU","resources/audio/wordStim/S9_AU_17_bxa_Step-9.wav","S9","17","bxa","9","CN","1","1","true"
"null","","fixation","html-keyboard-response","93","336803","0.0-8.0-0.33","5f3ac2069abe0e153b9aa1a4","condB","","<div class=""vertical-center"" style='width:60%;'><p style='font-weight:bold;'>Does the middle word sound more like the first word (A) or the last word (B)?</p> <br> <div class=""container""> <div id=""a-box""> <p class=""title-text"">A</h3></p> </div> <div id=""x-box""> <p class=""title-text"">X<p> </div> <div id=""b-box""> <p class=""title-text"">B</p></div> <br> <div style='float: left;padding-left:30px;'><p>Press '1' for A</p></div><div style='float: right;padding-right:30px;'><p>Press '0' for B</p> </div> </div></div>","null","","","","","","","","","","","","","",""
"3307","","test","audio-keyboard-response","94","340112","0.0-8.0-1.33","5f3ac2069abe0e153b9aa1a4","condB","","resources/audio/wordStim/S3_AU_18_axb_Step-2.wav","49","","","","","AU","resources/audio/wordStim/S3_AU_18_axb_Step-2.wav","S3","18","axb","2","MI","0","1","false"
"null","","fixation","html-keyboard-response","95","341118","0.0-8.0-0.34","5f3ac2069abe0e153b9aa1a4","condB","","<div class=""vertical-center"" style='width:60%;'><p style='font-weight:bold;'>Does the middle word sound more like the first word (A) or the last word (B)?</p> <br> <div class=""container""> <div id=""a-box""> <p class=""title-text"">A</h3></p> </div> <div id=""x-box""> <p class=""title-text"">X<p> </div> <div id=""b-box""> <p class=""title-text"">B</p></div> <br> <div style='float: left;padding-left:30px;'><p>Press '1' for A</p></div><div style='float: right;padding-right:30px;'><p>Press '0' for B</p> </div> </div></div>","null","","","","","","","","","","","","","",""
"2939","","test","audio-keyboard-response","96","344057","0.0-8.0-1.34","5f3ac2069abe0e153b9aa1a4","condB","","resources/audio/wordStim/S9_AU_13_axb_Step-6.wav","49","","","","","AU","resources/audio/wordStim/S9_AU_13_axb_Step-6.wav","S9","13","axb","6","CN","0","1","false"
"null","","fixation","html-keyboard-response","97","345060","0.0-8.0-0.35","5f3ac2069abe0e153b9aa1a4","condB","","<div class=""vertical-center"" style='width:60%;'><p style='font-weight:bold;'>Does the middle word sound more like the first word (A) or the last word (B)?</p> <br> <div class=""container""> <div id=""a-box""> <p class=""title-text"">A</h3></p> </div> <div id=""x-box""> <p class=""title-text"">X<p> </div> <div id=""b-box""> <p class=""title-text"">B</p></div> <br> <div style='float: left;padding-left:30px;'><p>Press '1' for A</p></div><div style='float: right;padding-right:30px;'><p>Press '0' for B</p> </div> </div></div>","null","","","","","","","","","","","","","",""
"2949","","test","audio-keyboard-response","98","348010","0.0-8.0-1.35","5f3ac2069abe0e153b9aa1a4","condB","","resources/audio/wordStim/S9_AU_19_bxa_Step-9.wav","49","","","","","AU","resources/audio/wordStim/S9_AU_19_bxa_Step-9.wav","S9","19","bxa","9","CN","1","1","true"
"null","","fixation","html-keyboard-response","99","349012","0.0-8.0-0.36","5f3ac2069abe0e153b9aa1a4","condB","","<div class=""vertical-center"" style='width:60%;'><p style='font-weight:bold;'>Does the middle word sound more like the first word (A) or the last word (B)?</p> <br> <div class=""container""> <div id=""a-box""> <p class=""title-text"">A</h3></p> </div> <div id=""x-box""> <p class=""title-text"">X<p> </div> <div id=""b-box""> <p class=""title-text"">B</p></div> <br> <div style='float: left;padding-left:30px;'><p>Press '1' for A</p></div><div style='float: right;padding-right:30px;'><p>Press '0' for B</p> </div> </div></div>","null","","","","","","","","","","","","","",""
"2789","","test","audio-keyboard-response","100","351803","0.0-8.0-1.36","5f3ac2069abe0e153b9aa1a4","condB","","resources/audio/wordStim/S9_AU_16_bxa_Step-10.wav","49","","","","","AU","resources/audio/wordStim/S9_AU_16_bxa_Step-10.wav","S9","16","bxa","10","CN","1","1","true"
"null","","fixation","html-keyboard-response","101","352804","0.0-8.0-0.37","5f3ac2069abe0e153b9aa1a4","condB","","<div class=""vertical-center"" style='width:60%;'><p style='font-weight:bold;'>Does the middle word sound more like the first word (A) or the last word (B)?</p> <br> <div class=""container""> <div id=""a-box""> <p class=""title-text"">A</h3></p> </div> <div id=""x-box""> <p class=""title-text"">X<p> </div> <div id=""b-box""> <p class=""title-text"">B</p></div> <br> <div style='float: left;padding-left:30px;'><p>Press '1' for A</p></div><div style='float: right;padding-right:30px;'><p>Press '0' for B</p> </div> </div></div>","null","","","","","","","","","","","","","",""
"3344","","test","audio-keyboard-response","102","356149","0.0-8.0-1.37","5f3ac2069abe0e153b9aa1a4","condB","","resources/audio/wordStim/S9_AI_30_bxa_Step-3.wav","48","","","","","AI","resources/audio/wordStim/S9_AI_30_bxa_Step-3.wav","S9","30","bxa","3","CN","1","0","false"
"null","","fixation","html-keyboard-response","103","357153","0.0-8.0-0.38","5f3ac2069abe0e153b9aa1a4","condB","","<div class=""vertical-center"" style='width:60%;'><p style='font-weight:bold;'>Does the middle word sound more like the first word (A) or the last word (B)?</p> <br> <div class=""container""> <div id=""a-box""> <p class=""title-text"">A</h3></p> </div> <div id=""x-box""> <p class=""title-text"">X<p> </div> <div id=""b-box""> <p class=""title-text"">B</p></div> <br> <div style='float: left;padding-left:30px;'><p>Press '1' for A</p></div><div style='float: right;padding-right:30px;'><p>Press '0' for B</p> </div> </div></div>","null","","","","","","","","","","","","","",""
"3307","","test","audio-keyboard-response","104","360462","0.0-8.0-1.38","5f3ac2069abe0e153b9aa1a4","condB","","resources/audio/wordStim/S3_AU_18_axb_Step-6.wav","49","","","","","AU","resources/audio/wordStim/S3_AU_18_axb_Step-6.wav","S3","18","axb","6","MI","0","1","false"
"null","","fixation","html-keyboard-response","105","361465","0.0-8.0-0.39","5f3ac2069abe0e153b9aa1a4","condB","","<div class=""vertical-center"" style='width:60%;'><p style='font-weight:bold;'>Does the middle word sound more like the first word (A) or the last word (B)?</p> <br> <div class=""container""> <div id=""a-box""> <p class=""title-text"">A</h3></p> </div> <div id=""x-box""> <p class=""title-text"">X<p> </div> <div id=""b-box""> <p class=""title-text"">B</p></div> <br> <div style='float: left;padding-left:30px;'><p>Press '1' for A</p></div><div style='float: right;padding-right:30px;'><p>Press '0' for B</p> </div> </div></div>","null","","","","","","","","","","","","","",""
"3445","","test","audio-keyboard-response","106","364912","0.0-8.0-1.39","5f3ac2069abe0e153b9aa1a4","condB","","resources/audio/wordStim/S9_AU_16_bxa_Step-7.wav","49","","","","","AU","resources/audio/wordStim/S9_AU_16_bxa_Step-7.wav","S9","16","bxa","7","CN","1","1","true"
"null","","fixation","html-keyboard-response","107","365918","0.0-8.0-0.40","5f3ac2069abe0e153b9aa1a4","condB","","<div class=""vertical-center"" style='width:60%;'><p style='font-weight:bold;'>Does the middle word sound more like the first word (A) or the last word (B)?</p> <br> <div class=""container""> <div id=""a-box""> <p class=""title-text"">A</h3></p> </div> <div id=""x-box""> <p class=""title-text"">X<p> </div> <div id=""b-box""> <p class=""title-text"">B</p></div> <br> <div style='float: left;padding-left:30px;'><p>Press '1' for A</p></div><div style='float: right;padding-right:30px;'><p>Press '0' for B</p> </div> </div></div>","null","","","","","","","","","","","","","",""
"3435","","test","audio-keyboard-response","108","369356","0.0-8.0-1.40","5f3ac2069abe0e153b9aa1a4","condB","","resources/audio/wordStim/S3_AI_23_axb_Step-6.wav","48","","","","","AI","resources/audio/wordStim/S3_AI_23_axb_Step-6.wav","S3","23","axb","6","MI","0","0","true"
"null","","fixation","html-keyboard-response","109","370361","0.0-8.0-0.41","5f3ac2069abe0e153b9aa1a4","condB","","<div class=""vertical-center"" style='width:60%;'><p style='font-weight:bold;'>Does the middle word sound more like the first word (A) or the last word (B)?</p> <br> <div class=""container""> <div id=""a-box""> <p class=""title-text"">A</h3></p> </div> <div id=""x-box""> <p class=""title-text"">X<p> </div> <div id=""b-box""> <p class=""title-text"">B</p></div> <br> <div style='float: left;padding-left:30px;'><p>Press '1' for A</p></div><div style='float: right;padding-right:30px;'><p>Press '0' for B</p> </div> </div></div>","null","","","","","","","","","","","","","",""
"2672","","test","audio-keyboard-response","110","373035","0.0-8.0-1.41","5f3ac2069abe0e153b9aa1a4","condB","","resources/audio/wordStim/S3_AI_21_bxa_Step-7.wav","49","","","","","AI","resources/audio/wordStim/S3_AI_21_bxa_Step-7.wav","S3","21","bxa","7","MI","1","1","true"
"null","","fixation","html-keyboard-response","111","374040","0.0-8.0-0.42","5f3ac2069abe0e153b9aa1a4","condB","","<div class=""vertical-center"" style='width:60%;'><p style='font-weight:bold;'>Does the middle word sound more like the first word (A) or the last word (B)?</p> <br> <div class=""container""> <div id=""a-box""> <p class=""title-text"">A</h3></p> </div> <div id=""x-box""> <p class=""title-text"">X<p> </div> <div id=""b-box""> <p class=""title-text"">B</p></div> <br> <div style='float: left;padding-left:30px;'><p>Press '1' for A</p></div><div style='float: right;padding-right:30px;'><p>Press '0' for B</p> </div> </div></div>","null","","","","","","","","","","","","","",""
"2816","","test","audio-keyboard-response","112","376858","0.0-8.0-1.42","5f3ac2069abe0e153b9aa1a4","condB","","resources/audio/wordStim/S9_AU_16_axb_Step-4.wav","49","","","","","AU","resources/audio/wordStim/S9_AU_16_axb_Step-4.wav","S9","16","axb","4","CN","0","1","false"
"null","","fixation","html-keyboard-response","113","377860","0.0-8.0-0.43","5f3ac2069abe0e153b9aa1a4","condB","","<div class=""vertical-center"" style='width:60%;'><p style='font-weight:bold;'>Does the middle word sound more like the first word (A) or the last word (B)?</p> <br> <div class=""container""> <div id=""a-box""> <p class=""title-text"">A</h3></p> </div> <div id=""x-box""> <p class=""title-text"">X<p> </div> <div id=""b-box""> <p class=""title-text"">B</p></div> <br> <div style='float: left;padding-left:30px;'><p>Press '1' for A</p></div><div style='float: right;padding-right:30px;'><p>Press '0' for B</p> </div> </div></div>","null","","","","","","","","","","","","","",""
"2965","","test","audio-keyboard-response","114","380827","0.0-8.0-1.43","5f3ac2069abe0e153b9aa1a4","condB","","resources/audio/wordStim/S9_AI_23_bxa_Step-5.wav","48","","","","","AI","resources/audio/wordStim/S9_AI_23_bxa_Step-5.wav","S9","23","bxa","5","CN","1","0","false"
"null","","fixation","html-keyboard-response","115","381832","0.0-8.0-0.44","5f3ac2069abe0e153b9aa1a4","condB","","<div class=""vertical-center"" style='width:60%;'><p style='font-weight:bold;'>Does the middle word sound more like the first word (A) or the last word (B)?</p> <br> <div class=""container""> <div id=""a-box""> <p class=""title-text"">A</h3></p> </div> <div id=""x-box""> <p class=""title-text"">X<p> </div> <div id=""b-box""> <p class=""title-text"">B</p></div> <br> <div style='float: left;padding-left:30px;'><p>Press '1' for A</p></div><div style='float: right;padding-right:30px;'><p>Press '0' for B</p> </div> </div></div>","null","","","","","","","","","","","","","",""
"3355","","test","audio-keyboard-response","116","385190","0.0-8.0-1.44","5f3ac2069abe0e153b9aa1a4","condB","","resources/audio/wordStim/S9_AI_29_axb_Step-4.wav","49","","","","","AI","resources/audio/wordStim/S9_AI_29_axb_Step-4.wav","S9","29","axb","4","CN","0","1","false"
"null","","fixation","html-keyboard-response","117","386193","0.0-8.0-0.45","5f3ac2069abe0e153b9aa1a4","condB","","<div class=""vertical-center"" style='width:60%;'><p style='font-weight:bold;'>Does the middle word sound more like the first word (A) or the last word (B)?</p> <br> <div class=""container""> <div id=""a-box""> <p class=""title-text"">A</h3></p> </div> <div id=""x-box""> <p class=""title-text"">X<p> </div> <div id=""b-box""> <p class=""title-text"">B</p></div> <br> <div style='float: left;padding-left:30px;'><p>Press '1' for A</p></div><div style='float: right;padding-right:30px;'><p>Press '0' for B</p> </div> </div></div>","null","","","","","","","","","","","","","",""
"2933","","test","audio-keyboard-response","118","389126","0.0-8.0-1.45","5f3ac2069abe0e153b9aa1a4","condB","","resources/audio/wordStim/S3_AI_25_bxa_Step-9.wav","48","","","","","AI","resources/audio/wordStim/S3_AI_25_bxa_Step-9.wav","S3","25","bxa","9","MI","1","0","false"
"null","","fixation","html-keyboard-response","119","390130","0.0-8.0-0.46","5f3ac2069abe0e153b9aa1a4","condB","","<div class=""vertical-center"" style='width:60%;'><p style='font-weight:bold;'>Does the middle word sound more like the first word (A) or the last word (B)?</p> <br> <div class=""container""> <div id=""a-box""> <p class=""title-text"">A</h3></p> </div> <div id=""x-box""> <p class=""title-text"">X<p> </div> <div id=""b-box""> <p class=""title-text"">B</p></div> <br> <div style='float: left;padding-left:30px;'><p>Press '1' for A</p></div><div style='float: right;padding-right:30px;'><p>Press '0' for B</p> </div> </div></div>","null","","","","","","","","","","","","","",""
"2661","","test","audio-keyboard-response","120","392788","0.0-8.0-1.46","5f3ac2069abe0e153b9aa1a4","condB","","resources/audio/wordStim/S3_AU_14_axb_Step-2.wav","49","","","","","AU","resources/audio/wordStim/S3_AU_14_axb_Step-2.wav","S3","14","axb","2","MI","0","1","false"
"null","","fixation","html-keyboard-response","121","393794","0.0-8.0-0.47","5f3ac2069abe0e153b9aa1a4","condB","","<div class=""vertical-center"" style='width:60%;'><p style='font-weight:bold;'>Does the middle word sound more like the first word (A) or the last word (B)?</p> <br> <div class=""container""> <div id=""a-box""> <p class=""title-text"">A</h3></p> </div> <div id=""x-box""> <p class=""title-text"">X<p> </div> <div id=""b-box""> <p class=""title-text"">B</p></div> <br> <div style='float: left;padding-left:30px;'><p>Press '1' for A</p></div><div style='float: right;padding-right:30px;'><p>Press '0' for B</p> </div> </div></div>","null","","","","","","","","","","","","","",""
"2549","","test","audio-keyboard-response","122","396343","0.0-8.0-1.47","5f3ac2069abe0e153b9aa1a4","condB","","resources/audio/wordStim/S3_AU_14_bxa_Step-3.wav","48","","","","","AU","resources/audio/wordStim/S3_AU_14_bxa_Step-3.wav","S3","14","bxa","3","MI","1","0","false"
"null","","fixation","html-keyboard-response","123","397348","0.0-8.0-0.48","5f3ac2069abe0e153b9aa1a4","condB","","<div class=""vertical-center"" style='width:60%;'><p style='font-weight:bold;'>Does the middle word sound more like the first word (A) or the last word (B)?</p> <br> <div class=""container""> <div id=""a-box""> <p class=""title-text"">A</h3></p> </div> <div id=""x-box""> <p class=""title-text"">X<p> </div> <div id=""b-box""> <p class=""title-text"">B</p></div> <br> <div style='float: left;padding-left:30px;'><p>Press '1' for A</p></div><div style='float: right;padding-right:30px;'><p>Press '0' for B</p> </div> </div></div>","null","","","","","","","","","","","","","",""
"4715","","test","audio-keyboard-response","124","402065","0.0-8.0-1.48","5f3ac2069abe0e153b9aa1a4","condB","","resources/audio/wordStim/S3_AI_22_bxa_Step-3.wav","48","","","","","AI","resources/audio/wordStim/S3_AI_22_bxa_Step-3.wav","S3","22","bxa","3","MI","1","0","false"
"null","","fixation","html-keyboard-response","125","403071","0.0-8.0-0.49","5f3ac2069abe0e153b9aa1a4","condB","","<div class=""vertical-center"" style='width:60%;'><p style='font-weight:bold;'>Does the middle word sound more like the first word (A) or the last word (B)?</p> <br> <div class=""container""> <div id=""a-box""> <p class=""title-text"">A</h3></p> </div> <div id=""x-box""> <p class=""title-text"">X<p> </div> <div id=""b-box""> <p class=""title-text"">B</p></div> <br> <div style='float: left;padding-left:30px;'><p>Press '1' for A</p></div><div style='float: right;padding-right:30px;'><p>Press '0' for B</p> </div> </div></div>","null","","","","","","","","","","","","","",""
"2640","","test","audio-keyboard-response","126","405714","0.0-8.0-1.49","5f3ac2069abe0e153b9aa1a4","condB","","resources/audio/wordStim/S9_AI_23_axb_Step-2.wav","49","","","","","AI","resources/audio/wordStim/S9_AI_23_axb_Step-2.wav","S9","23","axb","2","CN","0","1","false"
"null","","fixation","html-keyboard-response","127","406719","0.0-8.0-0.50","5f3ac2069abe0e153b9aa1a4","condB","","<div class=""vertical-center"" style='width:60%;'><p style='font-weight:bold;'>Does the middle word sound more like the first word (A) or the last word (B)?</p> <br> <div class=""container""> <div id=""a-box""> <p class=""title-text"">A</h3></p> </div> <div id=""x-box""> <p class=""title-text"">X<p> </div> <div id=""b-box""> <p class=""title-text"">B</p></div> <br> <div style='float: left;padding-left:30px;'><p>Press '1' for A</p></div><div style='float: right;padding-right:30px;'><p>Press '0' for B</p> </div> </div></div>","null","","","","","","","","","","","","","",""
"2560","","test","audio-keyboard-response","128","409284","0.0-8.0-1.50","5f3ac2069abe0e153b9aa1a4","condB","","resources/audio/wordStim/S9_AU_20_axb_Step-8.wav","48","","","","","AU","resources/audio/wordStim/S9_AU_20_axb_Step-8.wav","S9","20","axb","8","CN","0","0","true"
"null","","fixation","html-keyboard-response","129","410287","0.0-8.0-0.51","5f3ac2069abe0e153b9aa1a4","condB","","<div class=""vertical-center"" style='width:60%;'><p style='font-weight:bold;'>Does the middle word sound more like the first word (A) or the last word (B)?</p> <br> <div class=""container""> <div id=""a-box""> <p class=""title-text"">A</h3></p> </div> <div id=""x-box""> <p class=""title-text"">X<p> </div> <div id=""b-box""> <p class=""title-text"">B</p></div> <br> <div style='float: left;padding-left:30px;'><p>Press '1' for A</p></div><div style='float: right;padding-right:30px;'><p>Press '0' for B</p> </div> </div></div>","null","","","","","","","","","","","","","",""
"2859","","test","audio-keyboard-response","130","413147","0.0-8.0-1.51","5f3ac2069abe0e153b9aa1a4","condB","","resources/audio/wordStim/S9_AU_18_axb_Step-6.wav","49","","","","","AU","resources/audio/wordStim/S9_AU_18_axb_Step-6.wav","S9","18","axb","6","CN","0","1","false"
"null","","fixation","html-keyboard-response","131","414149","0.0-8.0-0.52","5f3ac2069abe0e153b9aa1a4","condB","","<div class=""vertical-center"" style='width:60%;'><p style='font-weight:bold;'>Does the middle word sound more like the first word (A) or the last word (B)?</p> <br> <div class=""container""> <div id=""a-box""> <p class=""title-text"">A</h3></p> </div> <div id=""x-box""> <p class=""title-text"">X<p> </div> <div id=""b-box""> <p class=""title-text"">B</p></div> <br> <div style='float: left;padding-left:30px;'><p>Press '1' for A</p></div><div style='float: right;padding-right:30px;'><p>Press '0' for B</p> </div> </div></div>","null","","","","","","","","","","","","","",""
"3168","","test","audio-keyboard-response","132","417321","0.0-8.0-1.52","5f3ac2069abe0e153b9aa1a4","condB","","resources/audio/wordStim/S9_AU_14_axb_Step-4.wav","48","","","","","AU","resources/audio/wordStim/S9_AU_14_axb_Step-4.wav","S9","14","axb","4","CN","0","0","true"
"null","","fixation","html-keyboard-response","133","418325","0.0-8.0-0.53","5f3ac2069abe0e153b9aa1a4","condB","","<div class=""vertical-center"" style='width:60%;'><p style='font-weight:bold;'>Does the middle word sound more like the first word (A) or the last word (B)?</p> <br> <div class=""container""> <div id=""a-box""> <p class=""title-text"">A</h3></p> </div> <div id=""x-box""> <p class=""title-text"">X<p> </div> <div id=""b-box""> <p class=""title-text"">B</p></div> <br> <div style='float: left;padding-left:30px;'><p>Press '1' for A</p></div><div style='float: right;padding-right:30px;'><p>Press '0' for B</p> </div> </div></div>","null","","","","","","","","","","","","","",""
"3717","","test","audio-keyboard-response","134","422043","0.0-8.0-1.53","5f3ac2069abe0e153b9aa1a4","condB","","resources/audio/wordStim/S9_AI_29_bxa_Step-5.wav","49","","","","","AI","resources/audio/wordStim/S9_AI_29_bxa_Step-5.wav","S9","29","bxa","5","CN","1","1","true"
"1447.394999966491","","break","html-keyboard-response","135","423992","0.0-8.0-2.53-0.53","5f3ac2069abe0e153b9aa1a4","condB","","<div class=""vertical-center""><p>Feel free to take a break!</p><i>When you're ready to continue, press SPACE to begin the next trial.</i></p></div>","32","","","","","","","","","","","","","",""
"null","","fixation","html-keyboard-response","136","424495","0.0-8.0-0.54","5f3ac2069abe0e153b9aa1a4","condB","","<div class=""vertical-center"" style='width:60%;'><p style='font-weight:bold;'>Does the middle word sound more like the first word (A) or the last word (B)?</p> <br> <div class=""container""> <div id=""a-box""> <p class=""title-text"">A</h3></p> </div> <div id=""x-box""> <p class=""title-text"">X<p> </div> <div id=""b-box""> <p class=""title-text"">B</p></div> <br> <div style='float: left;padding-left:30px;'><p>Press '1' for A</p></div><div style='float: right;padding-right:30px;'><p>Press '0' for B</p> </div> </div></div>","null","","","","","","","","","","","","","",""
"2912","","test","audio-keyboard-response","137","427409","0.0-8.0-1.54","5f3ac2069abe0e153b9aa1a4","condB","","resources/audio/wordStim/S3_AI_22_bxa_Step-10.wav","49","","","","","AI","resources/audio/wordStim/S3_AI_22_bxa_Step-10.wav","S3","22","bxa","10","MI","1","1","true"
"null","","fixation","html-keyboard-response","138","428412","0.0-8.0-0.55","5f3ac2069abe0e153b9aa1a4","condB","","<div class=""vertical-center"" style='width:60%;'><p style='font-weight:bold;'>Does the middle word sound more like the first word (A) or the last word (B)?</p> <br> <div class=""container""> <div id=""a-box""> <p class=""title-text"">A</h3></p> </div> <div id=""x-box""> <p class=""title-text"">X<p> </div> <div id=""b-box""> <p class=""title-text"">B</p></div> <br> <div style='float: left;padding-left:30px;'><p>Press '1' for A</p></div><div style='float: right;padding-right:30px;'><p>Press '0' for B</p> </div> </div></div>","null","","","","","","","","","","","","","",""
"3051","","test","audio-keyboard-response","139","431462","0.0-8.0-1.55","5f3ac2069abe0e153b9aa1a4","condB","","resources/audio/wordStim/S9_AI_25_axb_Step-6.wav","49","","","","","AI","resources/audio/wordStim/S9_AI_25_axb_Step-6.wav","S9","25","axb","6","CN","0","1","false"
"null","","fixation","html-keyboard-response","140","432468","0.0-8.0-0.56","5f3ac2069abe0e153b9aa1a4","condB","","<div class=""vertical-center"" style='width:60%;'><p style='font-weight:bold;'>Does the middle word sound more like the first word (A) or the last word (B)?</p> <br> <div class=""container""> <div id=""a-box""> <p class=""title-text"">A</h3></p> </div> <div id=""x-box""> <p class=""title-text"">X<p> </div> <div id=""b-box""> <p class=""title-text"">B</p></div> <br> <div style='float: left;padding-left:30px;'><p>Press '1' for A</p></div><div style='float: right;padding-right:30px;'><p>Press '0' for B</p> </div> </div></div>","null","","","","","","","","","","","","","",""
"3595","","test","audio-keyboard-response","141","436065","0.0-8.0-1.56","5f3ac2069abe0e153b9aa1a4","condB","","resources/audio/wordStim/S3_AI_28_bxa_Step-9.wav","48","","","","","AI","resources/audio/wordStim/S3_AI_28_bxa_Step-9.wav","S3","28","bxa","9","MI","1","0","false"
"null","","fixation","html-keyboard-response","142","437069","0.0-8.0-0.57","5f3ac2069abe0e153b9aa1a4","condB","","<div class=""vertical-center"" style='width:60%;'><p style='font-weight:bold;'>Does the middle word sound more like the first word (A) or the last word (B)?</p> <br> <div class=""container""> <div id=""a-box""> <p class=""title-text"">A</h3></p> </div> <div id=""x-box""> <p class=""title-text"">X<p> </div> <div id=""b-box""> <p class=""title-text"">B</p></div> <br> <div style='float: left;padding-left:30px;'><p>Press '1' for A</p></div><div style='float: right;padding-right:30px;'><p>Press '0' for B</p> </div> </div></div>","null","","","","","","","","","","","","","",""
"3467","","test","audio-keyboard-response","143","440537","0.0-8.0-1.57","5f3ac2069abe0e153b9aa1a4","condB","","resources/audio/wordStim/S9_AU_13_axb_Step-8.wav","48","","","","","AU","resources/audio/wordStim/S9_AU_13_axb_Step-8.wav","S9","13","axb","8","CN","0","0","true"
"null","","fixation","html-keyboard-response","144","441543","0.0-8.0-0.58","5f3ac2069abe0e153b9aa1a4","condB","","<div class=""vertical-center"" style='width:60%;'><p style='font-weight:bold;'>Does the middle word sound more like the first word (A) or the last word (B)?</p> <br> <div class=""container""> <div id=""a-box""> <p class=""title-text"">A</h3></p> </div> <div id=""x-box""> <p class=""title-text"">X<p> </div> <div id=""b-box""> <p class=""title-text"">B</p></div> <br> <div style='float: left;padding-left:30px;'><p>Press '1' for A</p></div><div style='float: right;padding-right:30px;'><p>Press '0' for B</p> </div> </div></div>","null","","","","","","","","","","","","","",""
"3659","","test","audio-keyboard-response","145","445204","0.0-8.0-1.58","5f3ac2069abe0e153b9aa1a4","condB","","resources/audio/wordStim/S3_AU_16_bxa_Step-5.wav","49","","","","","AU","resources/audio/wordStim/S3_AU_16_bxa_Step-5.wav","S3","16","bxa","5","MI","1","1","true"
"null","","fixation","html-keyboard-response","146","446207","0.0-8.0-0.59","5f3ac2069abe0e153b9aa1a4","condB","","<div class=""vertical-center"" style='width:60%;'><p style='font-weight:bold;'>Does the middle word sound more like the first word (A) or the last word (B)?</p> <br> <div class=""container""> <div id=""a-box""> <p class=""title-text"">A</h3></p> </div> <div id=""x-box""> <p class=""title-text"">X<p> </div> <div id=""b-box""> <p class=""title-text"">B</p></div> <br> <div style='float: left;padding-left:30px;'><p>Press '1' for A</p></div><div style='float: right;padding-right:30px;'><p>Press '0' for B</p> </div> </div></div>","null","","","","","","","","","","","","","",""
"4208","","test","audio-keyboard-response","147","450416","0.0-8.0-1.59","5f3ac2069abe0e153b9aa1a4","condB","","resources/audio/wordStim/S3_AI_21_bxa_Step-10.wav","49","","","","","AI","resources/audio/wordStim/S3_AI_21_bxa_Step-10.wav","S3","21","bxa","10","MI","1","1","true"
"null","","fixation","html-keyboard-response","148","451421","0.0-8.0-0.60","5f3ac2069abe0e153b9aa1a4","condB","","<div class=""vertical-center"" style='width:60%;'><p style='font-weight:bold;'>Does the middle word sound more like the first word (A) or the last word (B)?</p> <br> <div class=""container""> <div id=""a-box""> <p class=""title-text"">A</h3></p> </div> <div id=""x-box""> <p class=""title-text"">X<p> </div> <div id=""b-box""> <p class=""title-text"">B</p></div> <br> <div style='float: left;padding-left:30px;'><p>Press '1' for A</p></div><div style='float: right;padding-right:30px;'><p>Press '0' for B</p> </div> </div></div>","null","","","","","","","","","","","","","",""
"3035","","test","audio-keyboard-response","149","454454","0.0-8.0-1.60","5f3ac2069abe0e153b9aa1a4","condB","","resources/audio/wordStim/S3_AI_23_bxa_Step-10.wav","48","","","","","AI","resources/audio/wordStim/S3_AI_23_bxa_Step-10.wav","S3","23","bxa","10","MI","1","0","false"
"null","","fixation","html-keyboard-response","150","455456","0.0-8.0-0.61","5f3ac2069abe0e153b9aa1a4","condB","","<div class=""vertical-center"" style='width:60%;'><p style='font-weight:bold;'>Does the middle word sound more like the first word (A) or the last word (B)?</p> <br> <div class=""container""> <div id=""a-box""> <p class=""title-text"">A</h3></p> </div> <div id=""x-box""> <p class=""title-text"">X<p> </div> <div id=""b-box""> <p class=""title-text"">B</p></div> <br> <div style='float: left;padding-left:30px;'><p>Press '1' for A</p></div><div style='float: right;padding-right:30px;'><p>Press '0' for B</p> </div> </div></div>","null","","","","","","","","","","","","","",""
"3643","","test","audio-keyboard-response","151","459099","0.0-8.0-1.61","5f3ac2069abe0e153b9aa1a4","condB","","resources/audio/wordStim/S9_AI_25_bxa_Step-9.wav","48","","","","","AI","resources/audio/wordStim/S9_AI_25_bxa_Step-9.wav","S9","25","bxa","9","CN","1","0","false"
"null","","fixation","html-keyboard-response","152","460103","0.0-8.0-0.62","5f3ac2069abe0e153b9aa1a4","condB","","<div class=""vertical-center"" style='width:60%;'><p style='font-weight:bold;'>Does the middle word sound more like the first word (A) or the last word (B)?</p> <br> <div class=""container""> <div id=""a-box""> <p class=""title-text"">A</h3></p> </div> <div id=""x-box""> <p class=""title-text"">X<p> </div> <div id=""b-box""> <p class=""title-text"">B</p></div> <br> <div style='float: left;padding-left:30px;'><p>Press '1' for A</p></div><div style='float: right;padding-right:30px;'><p>Press '0' for B</p> </div> </div></div>","null","","","","","","","","","","","","","",""
"2949","","test","audio-keyboard-response","153","463055","0.0-8.0-1.62","5f3ac2069abe0e153b9aa1a4","condB","","resources/audio/wordStim/S9_AI_27_bxa_Step-3.wav","49","","","","","AI","resources/audio/wordStim/S9_AI_27_bxa_Step-3.wav","S9","27","bxa","3","CN","1","1","true"
"null","","fixation","html-keyboard-response","154","464058","0.0-8.0-0.63","5f3ac2069abe0e153b9aa1a4","condB","","<div class=""vertical-center"" style='width:60%;'><p style='font-weight:bold;'>Does the middle word sound more like the first word (A) or the last word (B)?</p> <br> <div class=""container""> <div id=""a-box""> <p class=""title-text"">A</h3></p> </div> <div id=""x-box""> <p class=""title-text"">X<p> </div> <div id=""b-box""> <p class=""title-text"">B</p></div> <br> <div style='float: left;padding-left:30px;'><p>Press '1' for A</p></div><div style='float: right;padding-right:30px;'><p>Press '0' for B</p> </div> </div></div>","null","","","","","","","","","","","","","",""
"2827","","test","audio-keyboard-response","155","466888","0.0-8.0-1.63","5f3ac2069abe0e153b9aa1a4","condB","","resources/audio/wordStim/S3_AU_20_bxa_Step-10.wav","48","","","","","AU","resources/audio/wordStim/S3_AU_20_bxa_Step-10.wav","S3","20","bxa","10","MI","1","0","false"
"null","","fixation","html-keyboard-response","156","467892","0.0-8.0-0.64","5f3ac2069abe0e153b9aa1a4","condB","","<div class=""vertical-center"" style='width:60%;'><p style='font-weight:bold;'>Does the middle word sound more like the first word (A) or the last word (B)?</p> <br> <div class=""container""> <div id=""a-box""> <p class=""title-text"">A</h3></p> </div> <div id=""x-box""> <p class=""title-text"">X<p> </div> <div id=""b-box""> <p class=""title-text"">B</p></div> <br> <div style='float: left;padding-left:30px;'><p>Press '1' for A</p></div><div style='float: right;padding-right:30px;'><p>Press '0' for B</p> </div> </div></div>","null","","","","","","","","","","","","","",""
"2955","","test","audio-keyboard-response","157","470848","0.0-8.0-1.64","5f3ac2069abe0e153b9aa1a4","condB","","resources/audio/wordStim/S3_AI_21_axb_Step-6.wav","48","","","","","AI","resources/audio/wordStim/S3_AI_21_axb_Step-6.wav","S3","21","axb","6","MI","0","0","true"
"null","","fixation","html-keyboard-response","158","471851","0.0-8.0-0.65","5f3ac2069abe0e153b9aa1a4","condB","","<div class=""vertical-center"" style='width:60%;'><p style='font-weight:bold;'>Does the middle word sound more like the first word (A) or the last word (B)?</p> <br> <div class=""container""> <div id=""a-box""> <p class=""title-text"">A</h3></p> </div> <div id=""x-box""> <p class=""title-text"">X<p> </div> <div id=""b-box""> <p class=""title-text"">B</p></div> <br> <div style='float: left;padding-left:30px;'><p>Press '1' for A</p></div><div style='float: right;padding-right:30px;'><p>Press '0' for B</p> </div> </div></div>","null","","","","","","","","","","","","","",""
"5888","","test","audio-keyboard-response","159","477742","0.0-8.0-1.65","5f3ac2069abe0e153b9aa1a4","condB","","resources/audio/wordStim/S9_AI_27_bxa_Step-10.wav","49","","","","","AI","resources/audio/wordStim/S9_AI_27_bxa_Step-10.wav","S9","27","bxa","10","CN","1","1","true"
"null","","fixation","html-keyboard-response","160","478745","0.0-8.0-0.66","5f3ac2069abe0e153b9aa1a4","condB","","<div class=""vertical-center"" style='width:60%;'><p style='font-weight:bold;'>Does the middle word sound more like the first word (A) or the last word (B)?</p> <br> <div class=""container""> <div id=""a-box""> <p class=""title-text"">A</h3></p> </div> <div id=""x-box""> <p class=""title-text"">X<p> </div> <div id=""b-box""> <p class=""title-text"">B</p></div> <br> <div style='float: left;padding-left:30px;'><p>Press '1' for A</p></div><div style='float: right;padding-right:30px;'><p>Press '0' for B</p> </div> </div></div>","null","","","","","","","","","","","","","",""
"3392","","test","audio-keyboard-response","161","482141","0.0-8.0-1.66","5f3ac2069abe0e153b9aa1a4","condB","","resources/audio/wordStim/S3_AI_29_bxa_Step-7.wav","49","","","","","AI","resources/audio/wordStim/S3_AI_29_bxa_Step-7.wav","S3","29","bxa","7","MI","1","1","true"
"null","","fixation","html-keyboard-response","162","483147","0.0-8.0-0.67","5f3ac2069abe0e153b9aa1a4","condB","","<div class=""vertical-center"" style='width:60%;'><p style='font-weight:bold;'>Does the middle word sound more like the first word (A) or the last word (B)?</p> <br> <div class=""container""> <div id=""a-box""> <p class=""title-text"">A</h3></p> </div> <div id=""x-box""> <p class=""title-text"">X<p> </div> <div id=""b-box""> <p class=""title-text"">B</p></div> <br> <div style='float: left;padding-left:30px;'><p>Press '1' for A</p></div><div style='float: right;padding-right:30px;'><p>Press '0' for B</p> </div> </div></div>","null","","","","","","","","","","","","","",""
"3760","","test","audio-keyboard-response","163","486910","0.0-8.0-1.67","5f3ac2069abe0e153b9aa1a4","condB","","resources/audio/wordStim/S9_AI_25_axb_Step-4.wav","49","","","","","AI","resources/audio/wordStim/S9_AI_25_axb_Step-4.wav","S9","25","axb","4","CN","0","1","false"
"null","","fixation","html-keyboard-response","164","487915","0.0-8.0-0.68","5f3ac2069abe0e153b9aa1a4","condB","","<div class=""vertical-center"" style='width:60%;'><p style='font-weight:bold;'>Does the middle word sound more like the first word (A) or the last word (B)?</p> <br> <div class=""container""> <div id=""a-box""> <p class=""title-text"">A</h3></p> </div> <div id=""x-box""> <p class=""title-text"">X<p> </div> <div id=""b-box""> <p class=""title-text"">B</p></div> <br> <div style='float: left;padding-left:30px;'><p>Press '1' for A</p></div><div style='float: right;padding-right:30px;'><p>Press '0' for B</p> </div> </div></div>","null","","","","","","","","","","","","","",""
"6272","","test","audio-keyboard-response","165","494190","0.0-8.0-1.68","5f3ac2069abe0e153b9aa1a4","condB","","resources/audio/wordStim/S9_AU_14_bxa_Step-9.wav","49","","","","","AU","resources/audio/wordStim/S9_AU_14_bxa_Step-9.wav","S9","14","bxa","9","CN","1","1","true"
"null","","fixation","html-keyboard-response","166","495195","0.0-8.0-0.69","5f3ac2069abe0e153b9aa1a4","condB","","<div class=""vertical-center"" style='width:60%;'><p style='font-weight:bold;'>Does the middle word sound more like the first word (A) or the last word (B)?</p> <br> <div class=""container""> <div id=""a-box""> <p class=""title-text"">A</h3></p> </div> <div id=""x-box""> <p class=""title-text"">X<p> </div> <div id=""b-box""> <p class=""title-text"">B</p></div> <br> <div style='float: left;padding-left:30px;'><p>Press '1' for A</p></div><div style='float: right;padding-right:30px;'><p>Press '0' for B</p> </div> </div></div>","null","","","","","","","","","","","","","",""
"2565","","test","audio-keyboard-response","167","497763","0.0-8.0-1.69","5f3ac2069abe0e153b9aa1a4","condB","","resources/audio/wordStim/S9_AU_19_bxa_Step-3.wav","48","","","","","AU","resources/audio/wordStim/S9_AU_19_bxa_Step-3.wav","S9","19","bxa","3","CN","1","0","false"
"null","","fixation","html-keyboard-response","168","498768","0.0-8.0-0.70","5f3ac2069abe0e153b9aa1a4","condB","","<div class=""vertical-center"" style='width:60%;'><p style='font-weight:bold;'>Does the middle word sound more like the first word (A) or the last word (B)?</p> <br> <div class=""container""> <div id=""a-box""> <p class=""title-text"">A</h3></p> </div> <div id=""x-box""> <p class=""title-text"">X<p> </div> <div id=""b-box""> <p class=""title-text"">B</p></div> <br> <div style='float: left;padding-left:30px;'><p>Press '1' for A</p></div><div style='float: right;padding-right:30px;'><p>Press '0' for B</p> </div> </div></div>","null","","","","","","","","","","","","","",""
"2747","","test","audio-keyboard-response","169","501515","0.0-8.0-1.70","5f3ac2069abe0e153b9aa1a4","condB","","resources/audio/wordStim/S9_AI_25_bxa_Step-10.wav","49","","","","","AI","resources/audio/wordStim/S9_AI_25_bxa_Step-10.wav","S9","25","bxa","10","CN","1","1","true"
"null","","fixation","html-keyboard-response","170","502518","0.0-8.0-0.71","5f3ac2069abe0e153b9aa1a4","condB","","<div class=""vertical-center"" style='width:60%;'><p style='font-weight:bold;'>Does the middle word sound more like the first word (A) or the last word (B)?</p> <br> <div class=""container""> <div id=""a-box""> <p class=""title-text"">A</h3></p> </div> <div id=""x-box""> <p class=""title-text"">X<p> </div> <div id=""b-box""> <p class=""title-text"">B</p></div> <br> <div style='float: left;padding-left:30px;'><p>Press '1' for A</p></div><div style='float: right;padding-right:30px;'><p>Press '0' for B</p> </div> </div></div>","null","","","","","","","","","","","","","",""
"2485","","test","audio-keyboard-response","171","505005","0.0-8.0-1.71","5f3ac2069abe0e153b9aa1a4","condB","","resources/audio/wordStim/S3_AU_15_axb_Step-4.wav","49","","","","","AU","resources/audio/wordStim/S3_AU_15_axb_Step-4.wav","S3","15","axb","4","MI","0","1","false"
"null","","fixation","html-keyboard-response","172","506011","0.0-8.0-0.72","5f3ac2069abe0e153b9aa1a4","condB","","<div class=""vertical-center"" style='width:60%;'><p style='font-weight:bold;'>Does the middle word sound more like the first word (A) or the last word (B)?</p> <br> <div class=""container""> <div id=""a-box""> <p class=""title-text"">A</h3></p> </div> <div id=""x-box""> <p class=""title-text"">X<p> </div> <div id=""b-box""> <p class=""title-text"">B</p></div> <br> <div style='float: left;padding-left:30px;'><p>Press '1' for A</p></div><div style='float: right;padding-right:30px;'><p>Press '0' for B</p> </div> </div></div>","null","","","","","","","","","","","","","",""
"3051","","test","audio-keyboard-response","173","509066","0.0-8.0-1.72","5f3ac2069abe0e153b9aa1a4","condB","","resources/audio/wordStim/S3_AI_29_axb_Step-6.wav","49","","","","","AI","resources/audio/wordStim/S3_AI_29_axb_Step-6.wav","S3","29","axb","6","MI","0","1","false"
"null","","fixation","html-keyboard-response","174","510070","0.0-8.0-0.73","5f3ac2069abe0e153b9aa1a4","condB","","<div class=""vertical-center"" style='width:60%;'><p style='font-weight:bold;'>Does the middle word sound more like the first word (A) or the last word (B)?</p> <br> <div class=""container""> <div id=""a-box""> <p class=""title-text"">A</h3></p> </div> <div id=""x-box""> <p class=""title-text"">X<p> </div> <div id=""b-box""> <p class=""title-text"">B</p></div> <br> <div style='float: left;padding-left:30px;'><p>Press '1' for A</p></div><div style='float: right;padding-right:30px;'><p>Press '0' for B</p> </div> </div></div>","null","","","","","","","","","","","","","",""
"3584","","test","audio-keyboard-response","175","513657","0.0-8.0-1.73","5f3ac2069abe0e153b9aa1a4","condB","","resources/audio/wordStim/S9_AI_22_bxa_Step-9.wav","49","","","","","AI","resources/audio/wordStim/S9_AI_22_bxa_Step-9.wav","S9","22","bxa","9","CN","1","1","true"
"null","","fixation","html-keyboard-response","176","514662","0.0-8.0-0.74","5f3ac2069abe0e153b9aa1a4","condB","","<div class=""vertical-center"" style='width:60%;'><p style='font-weight:bold;'>Does the middle word sound more like the first word (A) or the last word (B)?</p> <br> <div class=""container""> <div id=""a-box""> <p class=""title-text"">A</h3></p> </div> <div id=""x-box""> <p class=""title-text"">X<p> </div> <div id=""b-box""> <p class=""title-text"">B</p></div> <br> <div style='float: left;padding-left:30px;'><p>Press '1' for A</p></div><div style='float: right;padding-right:30px;'><p>Press '0' for B</p> </div> </div></div>","null","","","","","","","","","","","","","",""
"3323","","test","audio-keyboard-response","177","517989","0.0-8.0-1.74","5f3ac2069abe0e153b9aa1a4","condB","","resources/audio/wordStim/S3_AI_29_axb_Step-4.wav","49","","","","","AI","resources/audio/wordStim/S3_AI_29_axb_Step-4.wav","S3","29","axb","4","MI","0","1","false"
"null","","fixation","html-keyboard-response","178","518992","0.0-8.0-0.75","5f3ac2069abe0e153b9aa1a4","condB","","<div class=""vertical-center"" style='width:60%;'><p style='font-weight:bold;'>Does the middle word sound more like the first word (A) or the last word (B)?</p> <br> <div class=""container""> <div id=""a-box""> <p class=""title-text"">A</h3></p> </div> <div id=""x-box""> <p class=""title-text"">X<p> </div> <div id=""b-box""> <p class=""title-text"">B</p></div> <br> <div style='float: left;padding-left:30px;'><p>Press '1' for A</p></div><div style='float: right;padding-right:30px;'><p>Press '0' for B</p> </div> </div></div>","null","","","","","","","","","","","","","",""
"2581","","test","audio-keyboard-response","179","521575","0.0-8.0-1.75","5f3ac2069abe0e153b9aa1a4","condB","","resources/audio/wordStim/S9_AU_20_axb_Step-4.wav","49","","","","","AU","resources/audio/wordStim/S9_AU_20_axb_Step-4.wav","S9","20","axb","4","CN","0","1","false"
"null","","fixation","html-keyboard-response","180","522579","0.0-8.0-0.76","5f3ac2069abe0e153b9aa1a4","condB","","<div class=""vertical-center"" style='width:60%;'><p style='font-weight:bold;'>Does the middle word sound more like the first word (A) or the last word (B)?</p> <br> <div class=""container""> <div id=""a-box""> <p class=""title-text"">A</h3></p> </div> <div id=""x-box""> <p class=""title-text"">X<p> </div> <div id=""b-box""> <p class=""title-text"">B</p></div> <br> <div style='float: left;padding-left:30px;'><p>Press '1' for A</p></div><div style='float: right;padding-right:30px;'><p>Press '0' for B</p> </div> </div></div>","null","","","","","","","","","","","","","",""
"2683","","test","audio-keyboard-response","181","525260","0.0-8.0-1.76","5f3ac2069abe0e153b9aa1a4","condB","","resources/audio/wordStim/S9_AU_17_axb_Step-2.wav","49","","","","","AU","resources/audio/wordStim/S9_AU_17_axb_Step-2.wav","S9","17","axb","2","CN","0","1","false"
"null","","fixation","html-keyboard-response","182","526261","0.0-8.0-0.77","5f3ac2069abe0e153b9aa1a4","condB","","<div class=""vertical-center"" style='width:60%;'><p style='font-weight:bold;'>Does the middle word sound more like the first word (A) or the last word (B)?</p> <br> <div class=""container""> <div id=""a-box""> <p class=""title-text"">A</h3></p> </div> <div id=""x-box""> <p class=""title-text"">X<p> </div> <div id=""b-box""> <p class=""title-text"">B</p></div> <br> <div style='float: left;padding-left:30px;'><p>Press '1' for A</p></div><div style='float: right;padding-right:30px;'><p>Press '0' for B</p> </div> </div></div>","null","","","","","","","","","","","","","",""
"2731","","test","audio-keyboard-response","183","528997","0.0-8.0-1.77","5f3ac2069abe0e153b9aa1a4","condB","","resources/audio/wordStim/S3_AU_20_bxa_Step-7.wav","49","","","","","AU","resources/audio/wordStim/S3_AU_20_bxa_Step-7.wav","S3","20","bxa","7","MI","1","1","true"
"null","","fixation","html-keyboard-response","184","530001","0.0-8.0-0.78","5f3ac2069abe0e153b9aa1a4","condB","","<div class=""vertical-center"" style='width:60%;'><p style='font-weight:bold;'>Does the middle word sound more like the first word (A) or the last word (B)?</p> <br> <div class=""container""> <div id=""a-box""> <p class=""title-text"">A</h3></p> </div> <div id=""x-box""> <p class=""title-text"">X<p> </div> <div id=""b-box""> <p class=""title-text"">B</p></div> <br> <div style='float: left;padding-left:30px;'><p>Press '1' for A</p></div><div style='float: right;padding-right:30px;'><p>Press '0' for B</p> </div> </div></div>","null","","","","","","","","","","","","","",""
"2325","","test","audio-keyboard-response","185","532327","0.0-8.0-1.78","5f3ac2069abe0e153b9aa1a4","condB","","resources/audio/wordStim/S3_AI_21_bxa_Step-9.wav","49","","","","","AI","resources/audio/wordStim/S3_AI_21_bxa_Step-9.wav","S3","21","bxa","9","MI","1","1","true"
"null","","fixation","html-keyboard-response","186","533329","0.0-8.0-0.79","5f3ac2069abe0e153b9aa1a4","condB","","<div class=""vertical-center"" style='width:60%;'><p style='font-weight:bold;'>Does the middle word sound more like the first word (A) or the last word (B)?</p> <br> <div class=""container""> <div id=""a-box""> <p class=""title-text"">A</h3></p> </div> <div id=""x-box""> <p class=""title-text"">X<p> </div> <div id=""b-box""> <p class=""title-text"">B</p></div> <br> <div style='float: left;padding-left:30px;'><p>Press '1' for A</p></div><div style='float: right;padding-right:30px;'><p>Press '0' for B</p> </div> </div></div>","null","","","","","","","","","","","","","",""
"4592","","test","audio-keyboard-response","187","537926","0.0-8.0-1.79","5f3ac2069abe0e153b9aa1a4","condB","","resources/audio/wordStim/S3_AI_30_bxa_Step-9.wav","48","","","","","AI","resources/audio/wordStim/S3_AI_30_bxa_Step-9.wav","S3","30","bxa","9","MI","1","0","false"
"null","","fixation","html-keyboard-response","188","538929","0.0-8.0-0.80","5f3ac2069abe0e153b9aa1a4","condB","","<div class=""vertical-center"" style='width:60%;'><p style='font-weight:bold;'>Does the middle word sound more like the first word (A) or the last word (B)?</p> <br> <div class=""container""> <div id=""a-box""> <p class=""title-text"">A</h3></p> </div> <div id=""x-box""> <p class=""title-text"">X<p> </div> <div id=""b-box""> <p class=""title-text"">B</p></div> <br> <div style='float: left;padding-left:30px;'><p>Press '1' for A</p></div><div style='float: right;padding-right:30px;'><p>Press '0' for B</p> </div> </div></div>","null","","","","","","","","","","","","","",""
"3045","","test","audio-keyboard-response","189","541978","0.0-8.0-1.80","5f3ac2069abe0e153b9aa1a4","condB","","resources/audio/wordStim/S3_AU_11_bxa_Step-7.wav","49","","","","","AU","resources/audio/wordStim/S3_AU_11_bxa_Step-7.wav","S3","11","bxa","7","MI","1","1","true"
"1820.6549999886192","","break","html-keyboard-response","190","544302","0.0-8.0-2.80-0.80","5f3ac2069abe0e153b9aa1a4","condB","","<div class=""vertical-center""><p>Feel free to take a break!</p><i>When you're ready to continue, press SPACE to begin the next trial.</i></p></div>","32","","","","","","","","","","","","","",""
"null","","fixation","html-keyboard-response","191","544807","0.0-8.0-0.81","5f3ac2069abe0e153b9aa1a4","condB","","<div class=""vertical-center"" style='width:60%;'><p style='font-weight:bold;'>Does the middle word sound more like the first word (A) or the last word (B)?</p> <br> <div class=""container""> <div id=""a-box""> <p class=""title-text"">A</h3></p> </div> <div id=""x-box""> <p class=""title-text"">X<p> </div> <div id=""b-box""> <p class=""title-text"">B</p></div> <br> <div style='float: left;padding-left:30px;'><p>Press '1' for A</p></div><div style='float: right;padding-right:30px;'><p>Press '0' for B</p> </div> </div></div>","null","","","","","","","","","","","","","",""
"2667","","test","audio-keyboard-response","192","547473","0.0-8.0-1.81","5f3ac2069abe0e153b9aa1a4","condB","","resources/audio/wordStim/S3_AU_19_bxa_Step-5.wav","49","","","","","AU","resources/audio/wordStim/S3_AU_19_bxa_Step-5.wav","S3","19","bxa","5","MI","1","1","true"
"null","","fixation","html-keyboard-response","193","548478","0.0-8.0-0.82","5f3ac2069abe0e153b9aa1a4","condB","","<div class=""vertical-center"" style='width:60%;'><p style='font-weight:bold;'>Does the middle word sound more like the first word (A) or the last word (B)?</p> <br> <div class=""container""> <div id=""a-box""> <p class=""title-text"">A</h3></p> </div> <div id=""x-box""> <p class=""title-text"">X<p> </div> <div id=""b-box""> <p class=""title-text"">B</p></div> <br> <div style='float: left;padding-left:30px;'><p>Press '1' for A</p></div><div style='float: right;padding-right:30px;'><p>Press '0' for B</p> </div> </div></div>","null","","","","","","","","","","","","","",""
"2896","","test","audio-keyboard-response","194","551374","0.0-8.0-1.82","5f3ac2069abe0e153b9aa1a4","condB","","resources/audio/wordStim/S3_AI_23_axb_Step-8.wav","48","","","","","AI","resources/audio/wordStim/S3_AI_23_axb_Step-8.wav","S3","23","axb","8","MI","0","0","true"
"null","","fixation","html-keyboard-response","195","552380","0.0-8.0-0.83","5f3ac2069abe0e153b9aa1a4","condB","","<div class=""vertical-center"" style='width:60%;'><p style='font-weight:bold;'>Does the middle word sound more like the first word (A) or the last word (B)?</p> <br> <div class=""container""> <div id=""a-box""> <p class=""title-text"">A</h3></p> </div> <div id=""x-box""> <p class=""title-text"">X<p> </div> <div id=""b-box""> <p class=""title-text"">B</p></div> <br> <div style='float: left;padding-left:30px;'><p>Press '1' for A</p></div><div style='float: right;padding-right:30px;'><p>Press '0' for B</p> </div> </div></div>","null","","","","","","","","","","","","","",""
"3003","","test","audio-keyboard-response","196","555384","0.0-8.0-1.83","5f3ac2069abe0e153b9aa1a4","condB","","resources/audio/wordStim/S9_AI_27_axb_Step-4.wav","49","","","","","AI","resources/audio/wordStim/S9_AI_27_axb_Step-4.wav","S9","27","axb","4","CN","0","1","false"
"null","","fixation","html-keyboard-response","197","556388","0.0-8.0-0.84","5f3ac2069abe0e153b9aa1a4","condB","","<div class=""vertical-center"" style='width:60%;'><p style='font-weight:bold;'>Does the middle word sound more like the first word (A) or the last word (B)?</p> <br> <div class=""container""> <div id=""a-box""> <p class=""title-text"">A</h3></p> </div> <div id=""x-box""> <p class=""title-text"">X<p> </div> <div id=""b-box""> <p class=""title-text"">B</p></div> <br> <div style='float: left;padding-left:30px;'><p>Press '1' for A</p></div><div style='float: right;padding-right:30px;'><p>Press '0' for B</p> </div> </div></div>","null","","","","","","","","","","","","","",""
"2459","","test","audio-keyboard-response","198","558848","0.0-8.0-1.84","5f3ac2069abe0e153b9aa1a4","condB","","resources/audio/wordStim/S3_AU_19_bxa_Step-10.wav","49","","","","","AU","resources/audio/wordStim/S3_AU_19_bxa_Step-10.wav","S3","19","bxa","10","MI","1","1","true"
"null","","fixation","html-keyboard-response","199","559852","0.0-8.0-0.85","5f3ac2069abe0e153b9aa1a4","condB","","<div class=""vertical-center"" style='width:60%;'><p style='font-weight:bold;'>Does the middle word sound more like the first word (A) or the last word (B)?</p> <br> <div class=""container""> <div id=""a-box""> <p class=""title-text"">A</h3></p> </div> <div id=""x-box""> <p class=""title-text"">X<p> </div> <div id=""b-box""> <p class=""title-text"">B</p></div> <br> <div style='float: left;padding-left:30px;'><p>Press '1' for A</p></div><div style='float: right;padding-right:30px;'><p>Press '0' for B</p> </div> </div></div>","null","","","","","","","","","","","","","",""
"2629","","test","audio-keyboard-response","200","562483","0.0-8.0-1.85","5f3ac2069abe0e153b9aa1a4","condB","","resources/audio/wordStim/S3_AU_20_bxa_Step-3.wav","48","","","","","AU","resources/audio/wordStim/S3_AU_20_bxa_Step-3.wav","S3","20","bxa","3","MI","1","0","false"
"null","","fixation","html-keyboard-response","201","563489","0.0-8.0-0.86","5f3ac2069abe0e153b9aa1a4","condB","","<div class=""vertical-center"" style='width:60%;'><p style='font-weight:bold;'>Does the middle word sound more like the first word (A) or the last word (B)?</p> <br> <div class=""container""> <div id=""a-box""> <p class=""title-text"">A</h3></p> </div> <div id=""x-box""> <p class=""title-text"">X<p> </div> <div id=""b-box""> <p class=""title-text"">B</p></div> <br> <div style='float: left;padding-left:30px;'><p>Press '1' for A</p></div><div style='float: right;padding-right:30px;'><p>Press '0' for B</p> </div> </div></div>","null","","","","","","","","","","","","","",""
"3168","","test","audio-keyboard-response","202","566661","0.0-8.0-1.86","5f3ac2069abe0e153b9aa1a4","condB","","resources/audio/wordStim/S3_AU_14_bxa_Step-5.wav","48","","","","","AU","resources/audio/wordStim/S3_AU_14_bxa_Step-5.wav","S3","14","bxa","5","MI","1","0","false"
"null","","fixation","html-keyboard-response","203","567666","0.0-8.0-0.87","5f3ac2069abe0e153b9aa1a4","condB","","<div class=""vertical-center"" style='width:60%;'><p style='font-weight:bold;'>Does the middle word sound more like the first word (A) or the last word (B)?</p> <br> <div class=""container""> <div id=""a-box""> <p class=""title-text"">A</h3></p> </div> <div id=""x-box""> <p class=""title-text"">X<p> </div> <div id=""b-box""> <p class=""title-text"">B</p></div> <br> <div style='float: left;padding-left:30px;'><p>Press '1' for A</p></div><div style='float: right;padding-right:30px;'><p>Press '0' for B</p> </div> </div></div>","null","","","","","","","","","","","","","",""
"3867","","test","audio-keyboard-response","204","571537","0.0-8.0-1.87","5f3ac2069abe0e153b9aa1a4","condB","","resources/audio/wordStim/S3_AU_17_bxa_Step-3.wav","48","","","","","AU","resources/audio/wordStim/S3_AU_17_bxa_Step-3.wav","S3","17","bxa","3","MI","1","0","false"
"null","","fixation","html-keyboard-response","205","572540","0.0-8.0-0.88","5f3ac2069abe0e153b9aa1a4","condB","","<div class=""vertical-center"" style='width:60%;'><p style='font-weight:bold;'>Does the middle word sound more like the first word (A) or the last word (B)?</p> <br> <div class=""container""> <div id=""a-box""> <p class=""title-text"">A</h3></p> </div> <div id=""x-box""> <p class=""title-text"">X<p> </div> <div id=""b-box""> <p class=""title-text"">B</p></div> <br> <div style='float: left;padding-left:30px;'><p>Press '1' for A</p></div><div style='float: right;padding-right:30px;'><p>Press '0' for B</p> </div> </div></div>","null","","","","","","","","","","","","","",""
"3109","","test","audio-keyboard-response","206","575651","0.0-8.0-1.88","5f3ac2069abe0e153b9aa1a4","condB","","resources/audio/wordStim/S3_AU_18_bxa_Step-9.wav","48","","","","","AU","resources/audio/wordStim/S3_AU_18_bxa_Step-9.wav","S3","18","bxa","9","MI","1","0","false"
"null","","fixation","html-keyboard-response","207","576653","0.0-8.0-0.89","5f3ac2069abe0e153b9aa1a4","condB","","<div class=""vertical-center"" style='width:60%;'><p style='font-weight:bold;'>Does the middle word sound more like the first word (A) or the last word (B)?</p> <br> <div class=""container""> <div id=""a-box""> <p class=""title-text"">A</h3></p> </div> <div id=""x-box""> <p class=""title-text"">X<p> </div> <div id=""b-box""> <p class=""title-text"">B</p></div> <br> <div style='float: left;padding-left:30px;'><p>Press '1' for A</p></div><div style='float: right;padding-right:30px;'><p>Press '0' for B</p> </div> </div></div>","null","","","","","","","","","","","","","",""
"4043","","test","audio-keyboard-response","208","580698","0.0-8.0-1.89","5f3ac2069abe0e153b9aa1a4","condB","","resources/audio/wordStim/S9_AU_19_axb_Step-4.wav","49","","","","","AU","resources/audio/wordStim/S9_AU_19_axb_Step-4.wav","S9","19","axb","4","CN","0","1","false"
"null","","fixation","html-keyboard-response","209","581703","0.0-8.0-0.90","5f3ac2069abe0e153b9aa1a4","condB","","<div class=""vertical-center"" style='width:60%;'><p style='font-weight:bold;'>Does the middle word sound more like the first word (A) or the last word (B)?</p> <br> <div class=""container""> <div id=""a-box""> <p class=""title-text"">A</h3></p> </div> <div id=""x-box""> <p class=""title-text"">X<p> </div> <div id=""b-box""> <p class=""title-text"">B</p></div> <br> <div style='float: left;padding-left:30px;'><p>Press '1' for A</p></div><div style='float: right;padding-right:30px;'><p>Press '0' for B</p> </div> </div></div>","null","","","","","","","","","","","","","",""
"3995","","test","audio-keyboard-response","210","585700","0.0-8.0-1.90","5f3ac2069abe0e153b9aa1a4","condB","","resources/audio/wordStim/S3_AI_30_bxa_Step-3.wav","48","","","","","AI","resources/audio/wordStim/S3_AI_30_bxa_Step-3.wav","S3","30","bxa","3","MI","1","0","false"
"null","","fixation","html-keyboard-response","211","586706","0.0-8.0-0.91","5f3ac2069abe0e153b9aa1a4","condB","","<div class=""vertical-center"" style='width:60%;'><p style='font-weight:bold;'>Does the middle word sound more like the first word (A) or the last word (B)?</p> <br> <div class=""container""> <div id=""a-box""> <p class=""title-text"">A</h3></p> </div> <div id=""x-box""> <p class=""title-text"">X<p> </div> <div id=""b-box""> <p class=""title-text"">B</p></div> <br> <div style='float: left;padding-left:30px;'><p>Press '1' for A</p></div><div style='float: right;padding-right:30px;'><p>Press '0' for B</p> </div> </div></div>","null","","","","","","","","","","","","","",""
"2859","","test","audio-keyboard-response","212","589568","0.0-8.0-1.91","5f3ac2069abe0e153b9aa1a4","condB","","resources/audio/wordStim/S9_AI_25_axb_Step-8.wav","48","","","","","AI","resources/audio/wordStim/S9_AI_25_axb_Step-8.wav","S9","25","axb","8","CN","0","0","true"
"null","","fixation","html-keyboard-response","213","590573","0.0-8.0-0.92","5f3ac2069abe0e153b9aa1a4","condB","","<div class=""vertical-center"" style='width:60%;'><p style='font-weight:bold;'>Does the middle word sound more like the first word (A) or the last word (B)?</p> <br> <div class=""container""> <div id=""a-box""> <p class=""title-text"">A</h3></p> </div> <div id=""x-box""> <p class=""title-text"">X<p> </div> <div id=""b-box""> <p class=""title-text"">B</p></div> <br> <div style='float: left;padding-left:30px;'><p>Press '1' for A</p></div><div style='float: right;padding-right:30px;'><p>Press '0' for B</p> </div> </div></div>","null","","","","","","","","","","","","","",""
"3024","","test","audio-keyboard-response","214","593598","0.0-8.0-1.92","5f3ac2069abe0e153b9aa1a4","condB","","resources/audio/wordStim/S3_AI_30_axb_Step-4.wav","49","","","","","AI","resources/audio/wordStim/S3_AI_30_axb_Step-4.wav","S3","30","axb","4","MI","0","1","false"
