"rt","url","trial_role","trial_type","trial_index","time_elapsed","internal_node_id","participantId","conditionId","view_history","stimulus","key_press","button_pressed","correct_answer","correct_response","success","vowel","wordStim","speaker","sentNum","order","step","speakerIdentity","speakerGuise","guiseName","raised_answer","key_response","raised_response"
"74383.20000000022","micr.axb.consent.html","consent","external-html","0","74711","0.0-0.0","5a6fbc25f1530b000103b557","condD","","","","","","","","","","","","","","","","","","",""
"114769.4849999998","","instructions","instructions","1","189482","0.0-1.0","5a6fbc25f1530b000103b557","condD","[{""page_index"":0,""viewing_time"":78064.15000000015},{""page_index"":1,""viewing_time"":19133.915000000357},{""page_index"":2,""viewing_time"":17570.509999999544}]","","","","","","","","","","","","","","","","","",""
"null","","fixation","html-keyboard-response","2","189984","0.0-2.0-0.0","5a6fbc25f1530b000103b557","condD","","<div class=""vertical-center"" style=""font-size:60px;"">+</div>","null","","","","","","","","","","","","","","","",""
"4998.709999999846","","tonetest","audio-button-response","3","194985","0.0-2.0-1.0","5a6fbc25f1530b000103b557","condD","","../../src/audio/toneTest_3.wav","","2","2","true","","","","","","","","","","","","",""
"null","","fixation","html-keyboard-response","4","195486","0.0-2.0-0.1","5a6fbc25f1530b000103b557","condD","","<div class=""vertical-center"" style=""font-size:60px;"">+</div>","null","","","","","","","","","","","","","","","",""
"4505.485000000568","","tonetest","audio-button-response","5","199993","0.0-2.0-1.1","5a6fbc25f1530b000103b557","condD","","../../src/audio/toneTest_5.wav","","0","0","true","","","","","","","","","","","","",""
"null","","fixation","html-keyboard-response","6","200494","0.0-2.0-0.2","5a6fbc25f1530b000103b557","condD","","<div class=""vertical-center"" style=""font-size:60px;"">+</div>","null","","","","","","","","","","","","","","","",""
"4559.39499999932","","tonetest","audio-button-response","7","205055","0.0-2.0-1.2","5a6fbc25f1530b000103b557","condD","","../../src/audio/toneTest_2.wav","","1","1","true","","","","","","","","","","","","",""
"null","","fixation","html-keyboard-response","8","205556","0.0-2.0-0.3","5a6fbc25f1530b000103b557","condD","","<div class=""vertical-center"" style=""font-size:60px;"">+</div>","null","","","","","","","","","","","","","","","",""
"4560.164999999892","","tonetest","audio-button-response","9","210118","0.0-2.0-1.3","5a6fbc25f1530b000103b557","condD","","../../src/audio/toneTest_5.wav","","0","0","true","","","","","","","","","","","","",""
"null","","fixation","html-keyboard-response","10","210620","0.0-2.0-0.4","5a6fbc25f1530b000103b557","condD","","<div class=""vertical-center"" style=""font-size:60px;"">+</div>","null","","","","","","","","","","","","","","","",""
"4990.405000000494","","tonetest","audio-button-response","11","215612","0.0-2.0-1.4","5a6fbc25f1530b000103b557","condD","","../../src/audio/toneTest_3.wav","","2","2","true","","","","","","","","","","","","",""
"null","","fixation","html-keyboard-response","12","216113","0.0-2.0-0.5","5a6fbc25f1530b000103b557","condD","","<div class=""vertical-center"" style=""font-size:60px;"">+</div>","null","","","","","","","","","","","","","","","",""
"4451.495000000257","","tonetest","audio-button-response","13","220566","0.0-2.0-1.5","5a6fbc25f1530b000103b557","condD","","../../src/audio/toneTest_2.wav","","1","1","true","","","","","","","","","","","","",""
"6911.769999999728","","instructions","html-keyboard-response","14","227479","0.0-3.0","5a6fbc25f1530b000103b557","condD","","<div class=""vertical-center""><p><b>Your score was 6/6.</b></p><p>If you scored below 6, please ensure that you are wearing properly functioning headphones and in a quiet location free of distractions.</p><p><i>To continue to the main experiment, press SPACE.</i></p></div>","32","","","","","","","","","","","","","","","",""
"","","","fullscreen","15","231309","0.0-4.0","5a6fbc25f1530b000103b557","condD","","","","","","","true","","","","","","","","","","","",""
"37378.304999999265","","instructions","instructions","16","268688","0.0-5.0","5a6fbc25f1530b000103b557","condD","[{""page_index"":0,""viewing_time"":37378.08999999924}]","","","","","","","","","","","","","","","","","",""
"null","","fixation","html-keyboard-response","17","269189","0.0-6.0-0.0","5a6fbc25f1530b000103b557","condD","","<div class=""vertical-center"" style='width:60%;'><p style='font-weight:bold;'>Does the middle word sound more like the first word (A) or the last word (B)?</p> <br> <div class=""container""> <div id=""a-box""> <p class=""title-text"">A</h3></p> </div> <div id=""x-box""> <p class=""title-text"">X<p> </div> <div id=""b-box""> <p class=""title-text"">B</p></div> <br> <div style='float: left;padding-left:30px;'><p>Press '1' for A</p></div><div style='float: right;padding-right:30px;'><p>Press '0' for B</p> </div> </div></div>","null","","","","","","","","","","","","","","","",""
"9857","","practice","audio-keyboard-response","18","279192","0.0-6.0-1.0","5a6fbc25f1530b000103b557","condD","","resources/audio/practiceStim/S1_AU_14_axb_Step-6.wav","49","","","","","","","","","","","","","","","",""
"null","","fixation","html-keyboard-response","19","280193","0.0-6.0-0.1","5a6fbc25f1530b000103b557","condD","","<div class=""vertical-center"" style='width:60%;'><p style='font-weight:bold;'>Does the middle word sound more like the first word (A) or the last word (B)?</p> <br> <div class=""container""> <div id=""a-box""> <p class=""title-text"">A</h3></p> </div> <div id=""x-box""> <p class=""title-text"">X<p> </div> <div id=""b-box""> <p class=""title-text"">B</p></div> <br> <div style='float: left;padding-left:30px;'><p>Press '1' for A</p></div><div style='float: right;padding-right:30px;'><p>Press '0' for B</p> </div> </div></div>","null","","","","","","","","","","","","","","","",""
"4098","","practice","audio-keyboard-response","20","284303","0.0-6.0-1.1","5a6fbc25f1530b000103b557","condD","","resources/audio/practiceStim/S1_AI_21_bxa_Step-6.wav","48","","","","","","","","","","","","","","","",""
"null","","fixation","html-keyboard-response","21","285304","0.0-6.0-0.2","5a6fbc25f1530b000103b557","condD","","<div class=""vertical-center"" style='width:60%;'><p style='font-weight:bold;'>Does the middle word sound more like the first word (A) or the last word (B)?</p> <br> <div class=""container""> <div id=""a-box""> <p class=""title-text"">A</h3></p> </div> <div id=""x-box""> <p class=""title-text"">X<p> </div> <div id=""b-box""> <p class=""title-text"">B</p></div> <br> <div style='float: left;padding-left:30px;'><p>Press '1' for A</p></div><div style='float: right;padding-right:30px;'><p>Press '0' for B</p> </div> </div></div>","null","","","","","","","","","","","","","","","",""
"4238","","practice","audio-keyboard-response","22","289543","0.0-6.0-1.2","5a6fbc25f1530b000103b557","condD","","resources/audio/practiceStim/S1_AI_21_axb_Step-6.wav","49","","","","","","","","","","","","","","","",""
"null","","fixation","html-keyboard-response","23","290544","0.0-6.0-0.3","5a6fbc25f1530b000103b557","condD","","<div class=""vertical-center"" style='width:60%;'><p style='font-weight:bold;'>Does the middle word sound more like the first word (A) or the last word (B)?</p> <br> <div class=""container""> <div id=""a-box""> <p class=""title-text"">A</h3></p> </div> <div id=""x-box""> <p class=""title-text"">X<p> </div> <div id=""b-box""> <p class=""title-text"">B</p></div> <br> <div style='float: left;padding-left:30px;'><p>Press '1' for A</p></div><div style='float: right;padding-right:30px;'><p>Press '0' for B</p> </div> </div></div>","null","","","","","","","","","","","","","","","",""
"2984","","practice","audio-keyboard-response","24","293535","0.0-6.0-1.3","5a6fbc25f1530b000103b557","condD","","resources/audio/practiceStim/S1_AU_14_bxa_Step-6.wav","49","","","","","","","","","","","","","","","",""
"2523.304999999702","","instructions","instructions","25","296559","0.0-7.0","5a6fbc25f1530b000103b557","condD","[{""page_index"":0,""viewing_time"":2523.1199999998207}]","","","","","","","","","","","","","","","","","",""
"3366.920000000391","","","html-keyboard-response","26","299927","0.0-8.0","5a6fbc25f1530b000103b557","condD","","<div class=""vertical-center""><img src=""resources/images/US_face_b.png"" style=""width:450px;height:300px;""><p>This is the speaker you're about to hear. She is from Detroit, Michigan.</p><p> <br> <i>Press SPACE to continue.</i></p></div>","32","","","","","","","","","","","","","","","",""
"null","","fixation","html-keyboard-response","27","300430","0.0-9.0-0.0","5a6fbc25f1530b000103b557","condD","","<div class=""vertical-center"" style='width:60%;'><img src=""resources/images/US_flag_100x52.jpg"" style=""width:100px;height:52px;opacity:0.35;""> <br> <br> <p style='font-weight:bold;'>Does the middle word sound more like the first word (A) or the last word (B)?</p> <br> <div class=""container""> <div id=""a-box""> <p class=""title-text"">A</h3></p> </div> <div id=""x-box""> <p class=""title-text"">X<p> </div> <div id=""b-box""> <p class=""title-text"">B</p></div> <br> <div style='float: left;padding-left:30px;'><p>Press '1' for A</p></div><div style='float: right;padding-right:30px;'><p>Press '0' for B</p> </div> </div></div>","null","","","","","","","","","","","","","","","",""
"5863","","test","audio-keyboard-response","28","306279","0.0-9.0-1.0","5a6fbc25f1530b000103b557","condD","","resources/audio/wordStim/S9_AU_18_bxa_Step-5.wav","49","","","","","","resources/audio/wordStim/S9_AU_18_bxa_Step-5.wav","S9","18","bxa","5","CN","MI","S9-MI","1","1","true"
"null","","fixation","html-keyboard-response","29","307282","0.0-9.0-0.1","5a6fbc25f1530b000103b557","condD","","<div class=""vertical-center"" style='width:60%;'><img src=""resources/images/US_flag_100x52.jpg"" style=""width:100px;height:52px;opacity:0.35;""> <br> <br> <p style='font-weight:bold;'>Does the middle word sound more like the first word (A) or the last word (B)?</p> <br> <div class=""container""> <div id=""a-box""> <p class=""title-text"">A</h3></p> </div> <div id=""x-box""> <p class=""title-text"">X<p> </div> <div id=""b-box""> <p class=""title-text"">B</p></div> <br> <div style='float: left;padding-left:30px;'><p>Press '1' for A</p></div><div style='float: right;padding-right:30px;'><p>Press '0' for B</p> </div> </div></div>","null","","","","","","","","","","","","","","","",""
"6676","","test","audio-keyboard-response","30","313968","0.0-9.0-1.1","5a6fbc25f1530b000103b557","condD","","resources/audio/wordStim/S9_AI_25_bxa_Step-2.wav","48","","","","","","resources/audio/wordStim/S9_AI_25_bxa_Step-2.wav","S9","25","bxa","2","CN","MI","S9-MI","1","0","false"
"null","","fixation","html-keyboard-response","31","314969","0.0-9.0-0.2","5a6fbc25f1530b000103b557","condD","","<div class=""vertical-center"" style='width:60%;'><img src=""resources/images/US_flag_100x52.jpg"" style=""width:100px;height:52px;opacity:0.35;""> <br> <br> <p style='font-weight:bold;'>Does the middle word sound more like the first word (A) or the last word (B)?</p> <br> <div class=""container""> <div id=""a-box""> <p class=""title-text"">A</h3></p> </div> <div id=""x-box""> <p class=""title-text"">X<p> </div> <div id=""b-box""> <p class=""title-text"">B</p></div> <br> <div style='float: left;padding-left:30px;'><p>Press '1' for A</p></div><div style='float: right;padding-right:30px;'><p>Press '0' for B</p> </div> </div></div>","null","","","","","","","","","","","","","","","",""
"3704","","test","audio-keyboard-response","32","318663","0.0-9.0-1.2","5a6fbc25f1530b000103b557","condD","","resources/audio/wordStim/S9_AI_23_bxa_Step-6.wav","49","","","","","","resources/audio/wordStim/S9_AI_23_bxa_Step-6.wav","S9","23","bxa","6","CN","MI","S9-MI","1","1","true"
"null","","fixation","html-keyboard-response","33","319666","0.0-9.0-0.3","5a6fbc25f1530b000103b557","condD","","<div class=""vertical-center"" style='width:60%;'><img src=""resources/images/US_flag_100x52.jpg"" style=""width:100px;height:52px;opacity:0.35;""> <br> <br> <p style='font-weight:bold;'>Does the middle word sound more like the first word (A) or the last word (B)?</p> <br> <div class=""container""> <div id=""a-box""> <p class=""title-text"">A</h3></p> </div> <div id=""x-box""> <p class=""title-text"">X<p> </div> <div id=""b-box""> <p class=""title-text"">B</p></div> <br> <div style='float: left;padding-left:30px;'><p>Press '1' for A</p></div><div style='float: right;padding-right:30px;'><p>Press '0' for B</p> </div> </div></div>","null","","","","","","","","","","","","","","","",""
"4063","","test","audio-keyboard-response","34","323719","0.0-9.0-1.3","5a6fbc25f1530b000103b557","condD","","resources/audio/wordStim/S9_AU_18_bxa_Step-6.wav","49","","","","","","resources/audio/wordStim/S9_AU_18_bxa_Step-6.wav","S9","18","bxa","6","CN","MI","S9-MI","1","1","true"
"null","","fixation","html-keyboard-response","35","324721","0.0-9.0-0.4","5a6fbc25f1530b000103b557","condD","","<div class=""vertical-center"" style='width:60%;'><img src=""resources/images/US_flag_100x52.jpg"" style=""width:100px;height:52px;opacity:0.35;""> <br> <br> <p style='font-weight:bold;'>Does the middle word sound more like the first word (A) or the last word (B)?</p> <br> <div class=""container""> <div id=""a-box""> <p class=""title-text"">A</h3></p> </div> <div id=""x-box""> <p class=""title-text"">X<p> </div> <div id=""b-box""> <p class=""title-text"">B</p></div> <br> <div style='float: left;padding-left:30px;'><p>Press '1' for A</p></div><div style='float: right;padding-right:30px;'><p>Press '0' for B</p> </div> </div></div>","null","","","","","","","","","","","","","","","",""
"3808","","test","audio-keyboard-response","36","328536","0.0-9.0-1.4","5a6fbc25f1530b000103b557","condD","","resources/audio/wordStim/S9_AI_23_axb_Step-6.wav","49","","","","","","resources/audio/wordStim/S9_AI_23_axb_Step-6.wav","S9","23","axb","6","CN","MI","S9-MI","0","1","false"
"null","","fixation","html-keyboard-response","37","329538","0.0-9.0-0.5","5a6fbc25f1530b000103b557","condD","","<div class=""vertical-center"" style='width:60%;'><img src=""resources/images/US_flag_100x52.jpg"" style=""width:100px;height:52px;opacity:0.35;""> <br> <br> <p style='font-weight:bold;'>Does the middle word sound more like the first word (A) or the last word (B)?</p> <br> <div class=""container""> <div id=""a-box""> <p class=""title-text"">A</h3></p> </div> <div id=""x-box""> <p class=""title-text"">X<p> </div> <div id=""b-box""> <p class=""title-text"">B</p></div> <br> <div style='float: left;padding-left:30px;'><p>Press '1' for A</p></div><div style='float: right;padding-right:30px;'><p>Press '0' for B</p> </div> </div></div>","null","","","","","","","","","","","","","","","",""
"3959","","test","audio-keyboard-response","38","333488","0.0-9.0-1.5","5a6fbc25f1530b000103b557","condD","","resources/audio/wordStim/S9_AI_23_bxa_Step-5.wav","49","","","","","","resources/audio/wordStim/S9_AI_23_bxa_Step-5.wav","S9","23","bxa","5","CN","MI","S9-MI","1","1","true"
"null","","fixation","html-keyboard-response","39","334489","0.0-9.0-0.6","5a6fbc25f1530b000103b557","condD","","<div class=""vertical-center"" style='width:60%;'><img src=""resources/images/US_flag_100x52.jpg"" style=""width:100px;height:52px;opacity:0.35;""> <br> <br> <p style='font-weight:bold;'>Does the middle word sound more like the first word (A) or the last word (B)?</p> <br> <div class=""container""> <div id=""a-box""> <p class=""title-text"">A</h3></p> </div> <div id=""x-box""> <p class=""title-text"">X<p> </div> <div id=""b-box""> <p class=""title-text"">B</p></div> <br> <div style='float: left;padding-left:30px;'><p>Press '1' for A</p></div><div style='float: right;padding-right:30px;'><p>Press '0' for B</p> </div> </div></div>","null","","","","","","","","","","","","","","","",""
"3657","","test","audio-keyboard-response","40","338152","0.0-9.0-1.6","5a6fbc25f1530b000103b557","condD","","resources/audio/wordStim/S9_AI_23_bxa_Step-7.wav","49","","","","","","resources/audio/wordStim/S9_AI_23_bxa_Step-7.wav","S9","23","bxa","7","CN","MI","S9-MI","1","1","true"
"null","","fixation","html-keyboard-response","41","339153","0.0-9.0-0.7","5a6fbc25f1530b000103b557","condD","","<div class=""vertical-center"" style='width:60%;'><img src=""resources/images/US_flag_100x52.jpg"" style=""width:100px;height:52px;opacity:0.35;""> <br> <br> <p style='font-weight:bold;'>Does the middle word sound more like the first word (A) or the last word (B)?</p> <br> <div class=""container""> <div id=""a-box""> <p class=""title-text"">A</h3></p> </div> <div id=""x-box""> <p class=""title-text"">X<p> </div> <div id=""b-box""> <p class=""title-text"">B</p></div> <br> <div style='float: left;padding-left:30px;'><p>Press '1' for A</p></div><div style='float: right;padding-right:30px;'><p>Press '0' for B</p> </div> </div></div>","null","","","","","","","","","","","","","","","",""
"3901","","test","audio-keyboard-response","42","343056","0.0-9.0-1.7","5a6fbc25f1530b000103b557","condD","","resources/audio/wordStim/S9_AU_18_axb_Step-5.wav","49","","","","","","resources/audio/wordStim/S9_AU_18_axb_Step-5.wav","S9","18","axb","5","CN","MI","S9-MI","0","1","false"
"null","","fixation","html-keyboard-response","43","344058","0.0-9.0-0.8","5a6fbc25f1530b000103b557","condD","","<div class=""vertical-center"" style='width:60%;'><img src=""resources/images/US_flag_100x52.jpg"" style=""width:100px;height:52px;opacity:0.35;""> <br> <br> <p style='font-weight:bold;'>Does the middle word sound more like the first word (A) or the last word (B)?</p> <br> <div class=""container""> <div id=""a-box""> <p class=""title-text"">A</h3></p> </div> <div id=""x-box""> <p class=""title-text"">X<p> </div> <div id=""b-box""> <p class=""title-text"">B</p></div> <br> <div style='float: left;padding-left:30px;'><p>Press '1' for A</p></div><div style='float: right;padding-right:30px;'><p>Press '0' for B</p> </div> </div></div>","null","","","","","","","","","","","","","","","",""
"3808","","test","audio-keyboard-response","44","347880","0.0-9.0-1.8","5a6fbc25f1530b000103b557","condD","","resources/audio/wordStim/S9_AI_25_bxa_Step-3.wav","49","","","","","","resources/audio/wordStim/S9_AI_25_bxa_Step-3.wav","S9","25","bxa","3","CN","MI","S9-MI","1","1","true"
"null","","fixation","html-keyboard-response","45","348882","0.0-9.0-0.9","5a6fbc25f1530b000103b557","condD","","<div class=""vertical-center"" style='width:60%;'><img src=""resources/images/US_flag_100x52.jpg"" style=""width:100px;height:52px;opacity:0.35;""> <br> <br> <p style='font-weight:bold;'>Does the middle word sound more like the first word (A) or the last word (B)?</p> <br> <div class=""container""> <div id=""a-box""> <p class=""title-text"">A</h3></p> </div> <div id=""x-box""> <p class=""title-text"">X<p> </div> <div id=""b-box""> <p class=""title-text"">B</p></div> <br> <div style='float: left;padding-left:30px;'><p>Press '1' for A</p></div><div style='float: right;padding-right:30px;'><p>Press '0' for B</p> </div> </div></div>","null","","","","","","","","","","","","","","","",""
"4087","","test","audio-keyboard-response","46","352968","0.0-9.0-1.9","5a6fbc25f1530b000103b557","condD","","resources/audio/wordStim/S9_AI_29_bxa_Step-7.wav","49","","","","","","resources/audio/wordStim/S9_AI_29_bxa_Step-7.wav","S9","29","bxa","7","CN","MI","S9-MI","1","1","true"
"null","","fixation","html-keyboard-response","47","353970","0.0-9.0-0.10","5a6fbc25f1530b000103b557","condD","","<div class=""vertical-center"" style='width:60%;'><img src=""resources/images/US_flag_100x52.jpg"" style=""width:100px;height:52px;opacity:0.35;""> <br> <br> <p style='font-weight:bold;'>Does the middle word sound more like the first word (A) or the last word (B)?</p> <br> <div class=""container""> <div id=""a-box""> <p class=""title-text"">A</h3></p> </div> <div id=""x-box""> <p class=""title-text"">X<p> </div> <div id=""b-box""> <p class=""title-text"">B</p></div> <br> <div style='float: left;padding-left:30px;'><p>Press '1' for A</p></div><div style='float: right;padding-right:30px;'><p>Press '0' for B</p> </div> </div></div>","null","","","","","","","","","","","","","","","",""
"4389","","test","audio-keyboard-response","48","358360","0.0-9.0-1.10","5a6fbc25f1530b000103b557","condD","","resources/audio/wordStim/S9_AI_23_axb_Step-8.wav","49","","","","","","resources/audio/wordStim/S9_AI_23_axb_Step-8.wav","S9","23","axb","8","CN","MI","S9-MI","0","1","false"
"null","","fixation","html-keyboard-response","49","359362","0.0-9.0-0.11","5a6fbc25f1530b000103b557","condD","","<div class=""vertical-center"" style='width:60%;'><img src=""resources/images/US_flag_100x52.jpg"" style=""width:100px;height:52px;opacity:0.35;""> <br> <br> <p style='font-weight:bold;'>Does the middle word sound more like the first word (A) or the last word (B)?</p> <br> <div class=""container""> <div id=""a-box""> <p class=""title-text"">A</h3></p> </div> <div id=""x-box""> <p class=""title-text"">X<p> </div> <div id=""b-box""> <p class=""title-text"">B</p></div> <br> <div style='float: left;padding-left:30px;'><p>Press '1' for A</p></div><div style='float: right;padding-right:30px;'><p>Press '0' for B</p> </div> </div></div>","null","","","","","","","","","","","","","","","",""
"3866","","test","audio-keyboard-response","50","363232","0.0-9.0-1.11","5a6fbc25f1530b000103b557","condD","","resources/audio/wordStim/S9_AI_25_bxa_Step-6.wav","49","","","","","","resources/audio/wordStim/S9_AI_25_bxa_Step-6.wav","S9","25","bxa","6","CN","MI","S9-MI","1","1","true"
"null","","fixation","html-keyboard-response","51","364234","0.0-9.0-0.12","5a6fbc25f1530b000103b557","condD","","<div class=""vertical-center"" style='width:60%;'><img src=""resources/images/US_flag_100x52.jpg"" style=""width:100px;height:52px;opacity:0.35;""> <br> <br> <p style='font-weight:bold;'>Does the middle word sound more like the first word (A) or the last word (B)?</p> <br> <div class=""container""> <div id=""a-box""> <p class=""title-text"">A</h3></p> </div> <div id=""x-box""> <p class=""title-text"">X<p> </div> <div id=""b-box""> <p class=""title-text"">B</p></div> <br> <div style='float: left;padding-left:30px;'><p>Press '1' for A</p></div><div style='float: right;padding-right:30px;'><p>Press '0' for B</p> </div> </div></div>","null","","","","","","","","","","","","","","","",""
"3437","","test","audio-keyboard-response","52","367664","0.0-9.0-1.12","5a6fbc25f1530b000103b557","condD","","resources/audio/wordStim/S9_AU_20_bxa_Step-4.wav","49","","","","","","resources/audio/wordStim/S9_AU_20_bxa_Step-4.wav","S9","20","bxa","4","CN","MI","S9-MI","1","1","true"
"null","","fixation","html-keyboard-response","53","368667","0.0-9.0-0.13","5a6fbc25f1530b000103b557","condD","","<div class=""vertical-center"" style='width:60%;'><img src=""resources/images/US_flag_100x52.jpg"" style=""width:100px;height:52px;opacity:0.35;""> <br> <br> <p style='font-weight:bold;'>Does the middle word sound more like the first word (A) or the last word (B)?</p> <br> <div class=""container""> <div id=""a-box""> <p class=""title-text"">A</h3></p> </div> <div id=""x-box""> <p class=""title-text"">X<p> </div> <div id=""b-box""> <p class=""title-text"">B</p></div> <br> <div style='float: left;padding-left:30px;'><p>Press '1' for A</p></div><div style='float: right;padding-right:30px;'><p>Press '0' for B</p> </div> </div></div>","null","","","","","","","","","","","","","","","",""
"4005","","test","audio-keyboard-response","54","372680","0.0-9.0-1.13","5a6fbc25f1530b000103b557","condD","","resources/audio/wordStim/S9_AU_18_bxa_Step-3.wav","49","","","","","","resources/audio/wordStim/S9_AU_18_bxa_Step-3.wav","S9","18","bxa","3","CN","MI","S9-MI","1","1","true"
"null","","fixation","html-keyboard-response","55","373682","0.0-9.0-0.14","5a6fbc25f1530b000103b557","condD","","<div class=""vertical-center"" style='width:60%;'><img src=""resources/images/US_flag_100x52.jpg"" style=""width:100px;height:52px;opacity:0.35;""> <br> <br> <p style='font-weight:bold;'>Does the middle word sound more like the first word (A) or the last word (B)?</p> <br> <div class=""container""> <div id=""a-box""> <p class=""title-text"">A</h3></p> </div> <div id=""x-box""> <p class=""title-text"">X<p> </div> <div id=""b-box""> <p class=""title-text"">B</p></div> <br> <div style='float: left;padding-left:30px;'><p>Press '1' for A</p></div><div style='float: right;padding-right:30px;'><p>Press '0' for B</p> </div> </div></div>","null","","","","","","","","","","","","","","","",""
"4110","","test","audio-keyboard-response","56","377784","0.0-9.0-1.14","5a6fbc25f1530b000103b557","condD","","resources/audio/wordStim/S9_AI_29_bxa_Step-3.wav","49","","","","","","resources/audio/wordStim/S9_AI_29_bxa_Step-3.wav","S9","29","bxa","3","CN","MI","S9-MI","1","1","true"
"null","","fixation","html-keyboard-response","57","378786","0.0-9.0-0.15","5a6fbc25f1530b000103b557","condD","","<div class=""vertical-center"" style='width:60%;'><img src=""resources/images/US_flag_100x52.jpg"" style=""width:100px;height:52px;opacity:0.35;""> <br> <br> <p style='font-weight:bold;'>Does the middle word sound more like the first word (A) or the last word (B)?</p> <br> <div class=""container""> <div id=""a-box""> <p class=""title-text"">A</h3></p> </div> <div id=""x-box""> <p class=""title-text"">X<p> </div> <div id=""b-box""> <p class=""title-text"">B</p></div> <br> <div style='float: left;padding-left:30px;'><p>Press '1' for A</p></div><div style='float: right;padding-right:30px;'><p>Press '0' for B</p> </div> </div></div>","null","","","","","","","","","","","","","","","",""
"3936","","test","audio-keyboard-response","58","382728","0.0-9.0-1.15","5a6fbc25f1530b000103b557","condD","","resources/audio/wordStim/S9_AI_25_bxa_Step-5.wav","49","","","","","","resources/audio/wordStim/S9_AI_25_bxa_Step-5.wav","S9","25","bxa","5","CN","MI","S9-MI","1","1","true"
"null","","fixation","html-keyboard-response","59","383730","0.0-9.0-0.16","5a6fbc25f1530b000103b557","condD","","<div class=""vertical-center"" style='width:60%;'><img src=""resources/images/US_flag_100x52.jpg"" style=""width:100px;height:52px;opacity:0.35;""> <br> <br> <p style='font-weight:bold;'>Does the middle word sound more like the first word (A) or the last word (B)?</p> <br> <div class=""container""> <div id=""a-box""> <p class=""title-text"">A</h3></p> </div> <div id=""x-box""> <p class=""title-text"">X<p> </div> <div id=""b-box""> <p class=""title-text"">B</p></div> <br> <div style='float: left;padding-left:30px;'><p>Press '1' for A</p></div><div style='float: right;padding-right:30px;'><p>Press '0' for B</p> </div> </div></div>","null","","","","","","","","","","","","","","","",""
"3820","","test","audio-keyboard-response","60","387552","0.0-9.0-1.16","5a6fbc25f1530b000103b557","condD","","resources/audio/wordStim/S9_AU_11_axb_Step-7.wav","49","","","","","","resources/audio/wordStim/S9_AU_11_axb_Step-7.wav","S9","11","axb","7","CN","MI","S9-MI","0","1","false"
"null","","fixation","html-keyboard-response","61","388554","0.0-9.0-0.17","5a6fbc25f1530b000103b557","condD","","<div class=""vertical-center"" style='width:60%;'><img src=""resources/images/US_flag_100x52.jpg"" style=""width:100px;height:52px;opacity:0.35;""> <br> <br> <p style='font-weight:bold;'>Does the middle word sound more like the first word (A) or the last word (B)?</p> <br> <div class=""container""> <div id=""a-box""> <p class=""title-text"">A</h3></p> </div> <div id=""x-box""> <p class=""title-text"">X<p> </div> <div id=""b-box""> <p class=""title-text"">B</p></div> <br> <div style='float: left;padding-left:30px;'><p>Press '1' for A</p></div><div style='float: right;padding-right:30px;'><p>Press '0' for B</p> </div> </div></div>","null","","","","","","","","","","","","","","","",""
"3587","","test","audio-keyboard-response","62","392128","0.0-9.0-1.17","5a6fbc25f1530b000103b557","condD","","resources/audio/wordStim/S9_AU_20_bxa_Step-5.wav","49","","","","","","resources/audio/wordStim/S9_AU_20_bxa_Step-5.wav","S9","20","bxa","5","CN","MI","S9-MI","1","1","true"
"null","","fixation","html-keyboard-response","63","393130","0.0-9.0-0.18","5a6fbc25f1530b000103b557","condD","","<div class=""vertical-center"" style='width:60%;'><img src=""resources/images/US_flag_100x52.jpg"" style=""width:100px;height:52px;opacity:0.35;""> <br> <br> <p style='font-weight:bold;'>Does the middle word sound more like the first word (A) or the last word (B)?</p> <br> <div class=""container""> <div id=""a-box""> <p class=""title-text"">A</h3></p> </div> <div id=""x-box""> <p class=""title-text"">X<p> </div> <div id=""b-box""> <p class=""title-text"">B</p></div> <br> <div style='float: left;padding-left:30px;'><p>Press '1' for A</p></div><div style='float: right;padding-right:30px;'><p>Press '0' for B</p> </div> </div></div>","null","","","","","","","","","","","","","","","",""
"4029","","test","audio-keyboard-response","64","397152","0.0-9.0-1.18","5a6fbc25f1530b000103b557","condD","","resources/audio/wordStim/S9_AU_11_axb_Step-8.wav","49","","","","","","resources/audio/wordStim/S9_AU_11_axb_Step-8.wav","S9","11","axb","8","CN","MI","S9-MI","0","1","false"
"null","","fixation","html-keyboard-response","65","398154","0.0-9.0-0.19","5a6fbc25f1530b000103b557","condD","","<div class=""vertical-center"" style='width:60%;'><img src=""resources/images/US_flag_100x52.jpg"" style=""width:100px;height:52px;opacity:0.35;""> <br> <br> <p style='font-weight:bold;'>Does the middle word sound more like the first word (A) or the last word (B)?</p> <br> <div class=""container""> <div id=""a-box""> <p class=""title-text"">A</h3></p> </div> <div id=""x-box""> <p class=""title-text"">X<p> </div> <div id=""b-box""> <p class=""title-text"">B</p></div> <br> <div style='float: left;padding-left:30px;'><p>Press '1' for A</p></div><div style='float: right;padding-right:30px;'><p>Press '0' for B</p> </div> </div></div>","null","","","","","","","","","","","","","","","",""
"4261","","test","audio-keyboard-response","66","402424","0.0-9.0-1.19","5a6fbc25f1530b000103b557","condD","","resources/audio/wordStim/S9_AU_11_axb_Step-6.wav","49","","","","","","resources/audio/wordStim/S9_AU_11_axb_Step-6.wav","S9","11","axb","6","CN","MI","S9-MI","0","1","false"
"null","","fixation","html-keyboard-response","67","403426","0.0-9.0-0.20","5a6fbc25f1530b000103b557","condD","","<div class=""vertical-center"" style='width:60%;'><img src=""resources/images/US_flag_100x52.jpg"" style=""width:100px;height:52px;opacity:0.35;""> <br> <br> <p style='font-weight:bold;'>Does the middle word sound more like the first word (A) or the last word (B)?</p> <br> <div class=""container""> <div id=""a-box""> <p class=""title-text"">A</h3></p> </div> <div id=""x-box""> <p class=""title-text"">X<p> </div> <div id=""b-box""> <p class=""title-text"">B</p></div> <br> <div style='float: left;padding-left:30px;'><p>Press '1' for A</p></div><div style='float: right;padding-right:30px;'><p>Press '0' for B</p> </div> </div></div>","null","","","","","","","","","","","","","","","",""
"3773","","test","audio-keyboard-response","68","407200","0.0-9.0-1.20","5a6fbc25f1530b000103b557","condD","","resources/audio/wordStim/S9_AI_25_axb_Step-8.wav","49","","","","","","resources/audio/wordStim/S9_AI_25_axb_Step-8.wav","S9","25","axb","8","CN","MI","S9-MI","0","1","false"
"3155.10500000068","","break","html-keyboard-response","69","410856","0.0-9.0-2.20-0.20","5a6fbc25f1530b000103b557","condD","","<div class=""vertical-center""><p>Feel free to take a break!</p><i>When you're ready to continue, press SPACE to begin the next trial.</i></p></div>","32","","","","","","","","","","","","","","","",""
"null","","fixation","html-keyboard-response","70","411358","0.0-9.0-0.21","5a6fbc25f1530b000103b557","condD","","<div class=""vertical-center"" style='width:60%;'><img src=""resources/images/US_flag_100x52.jpg"" style=""width:100px;height:52px;opacity:0.35;""> <br> <br> <p style='font-weight:bold;'>Does the middle word sound more like the first word (A) or the last word (B)?</p> <br> <div class=""container""> <div id=""a-box""> <p class=""title-text"">A</h3></p> </div> <div id=""x-box""> <p class=""title-text"">X<p> </div> <div id=""b-box""> <p class=""title-text"">B</p></div> <br> <div style='float: left;padding-left:30px;'><p>Press '1' for A</p></div><div style='float: right;padding-right:30px;'><p>Press '0' for B</p> </div> </div></div>","null","","","","","","","","","","","","","","","",""
"3820","","test","audio-keyboard-response","71","415184","0.0-9.0-1.21","5a6fbc25f1530b000103b557","condD","","resources/audio/wordStim/S9_AU_20_bxa_Step-6.wav","49","","","","","","resources/audio/wordStim/S9_AU_20_bxa_Step-6.wav","S9","20","bxa","6","CN","MI","S9-MI","1","1","true"
"null","","fixation","html-keyboard-response","72","416186","0.0-9.0-0.22","5a6fbc25f1530b000103b557","condD","","<div class=""vertical-center"" style='width:60%;'><img src=""resources/images/US_flag_100x52.jpg"" style=""width:100px;height:52px;opacity:0.35;""> <br> <br> <p style='font-weight:bold;'>Does the middle word sound more like the first word (A) or the last word (B)?</p> <br> <div class=""container""> <div id=""a-box""> <p class=""title-text"">A</h3></p> </div> <div id=""x-box""> <p class=""title-text"">X<p> </div> <div id=""b-box""> <p class=""title-text"">B</p></div> <br> <div style='float: left;padding-left:30px;'><p>Press '1' for A</p></div><div style='float: right;padding-right:30px;'><p>Press '0' for B</p> </div> </div></div>","null","","","","","","","","","","","","","","","",""
"4168","","test","audio-keyboard-response","73","420360","0.0-9.0-1.22","5a6fbc25f1530b000103b557","condD","","resources/audio/wordStim/S9_AI_29_axb_Step-7.wav","48","","","","","","resources/audio/wordStim/S9_AI_29_axb_Step-7.wav","S9","29","axb","7","CN","MI","S9-MI","0","0","true"
"null","","fixation","html-keyboard-response","74","421362","0.0-9.0-0.23","5a6fbc25f1530b000103b557","condD","","<div class=""vertical-center"" style='width:60%;'><img src=""resources/images/US_flag_100x52.jpg"" style=""width:100px;height:52px;opacity:0.35;""> <br> <br> <p style='font-weight:bold;'>Does the middle word sound more like the first word (A) or the last word (B)?</p> <br> <div class=""container""> <div id=""a-box""> <p class=""title-text"">A</h3></p> </div> <div id=""x-box""> <p class=""title-text"">X<p> </div> <div id=""b-box""> <p class=""title-text"">B</p></div> <br> <div style='float: left;padding-left:30px;'><p>Press '1' for A</p></div><div style='float: right;padding-right:30px;'><p>Press '0' for B</p> </div> </div></div>","null","","","","","","","","","","","","","","","",""
"3773","","test","audio-keyboard-response","75","425136","0.0-9.0-1.23","5a6fbc25f1530b000103b557","condD","","resources/audio/wordStim/S9_AU_20_bxa_Step-3.wav","49","","","","","","resources/audio/wordStim/S9_AU_20_bxa_Step-3.wav","S9","20","bxa","3","CN","MI","S9-MI","1","1","true"
"null","","fixation","html-keyboard-response","76","426138","0.0-9.0-0.24","5a6fbc25f1530b000103b557","condD","","<div class=""vertical-center"" style='width:60%;'><img src=""resources/images/US_flag_100x52.jpg"" style=""width:100px;height:52px;opacity:0.35;""> <br> <br> <p style='font-weight:bold;'>Does the middle word sound more like the first word (A) or the last word (B)?</p> <br> <div class=""container""> <div id=""a-box""> <p class=""title-text"">A</h3></p> </div> <div id=""x-box""> <p class=""title-text"">X<p> </div> <div id=""b-box""> <p class=""title-text"">B</p></div> <br> <div style='float: left;padding-left:30px;'><p>Press '1' for A</p></div><div style='float: right;padding-right:30px;'><p>Press '0' for B</p> </div> </div></div>","null","","","","","","","","","","","","","","","",""
"3727","","test","audio-keyboard-response","77","429856","0.0-9.0-1.24","5a6fbc25f1530b000103b557","condD","","resources/audio/wordStim/S9_AI_29_bxa_Step-4.wav","48","","","","","","resources/audio/wordStim/S9_AI_29_bxa_Step-4.wav","S9","29","bxa","4","CN","MI","S9-MI","1","0","false"
"null","","fixation","html-keyboard-response","78","430858","0.0-9.0-0.25","5a6fbc25f1530b000103b557","condD","","<div class=""vertical-center"" style='width:60%;'><img src=""resources/images/US_flag_100x52.jpg"" style=""width:100px;height:52px;opacity:0.35;""> <br> <br> <p style='font-weight:bold;'>Does the middle word sound more like the first word (A) or the last word (B)?</p> <br> <div class=""container""> <div id=""a-box""> <p class=""title-text"">A</h3></p> </div> <div id=""x-box""> <p class=""title-text"">X<p> </div> <div id=""b-box""> <p class=""title-text"">B</p></div> <br> <div style='float: left;padding-left:30px;'><p>Press '1' for A</p></div><div style='float: right;padding-right:30px;'><p>Press '0' for B</p> </div> </div></div>","null","","","","","","","","","","","","","","","",""
"4040","","test","audio-keyboard-response","79","434897","0.0-9.0-1.25","5a6fbc25f1530b000103b557","condD","","resources/audio/wordStim/S9_AU_20_bxa_Step-7.wav","49","","","","","","resources/audio/wordStim/S9_AU_20_bxa_Step-7.wav","S9","20","bxa","7","CN","MI","S9-MI","1","1","true"
"null","","fixation","html-keyboard-response","80","435898","0.0-9.0-0.26","5a6fbc25f1530b000103b557","condD","","<div class=""vertical-center"" style='width:60%;'><img src=""resources/images/US_flag_100x52.jpg"" style=""width:100px;height:52px;opacity:0.35;""> <br> <br> <p style='font-weight:bold;'>Does the middle word sound more like the first word (A) or the last word (B)?</p> <br> <div class=""container""> <div id=""a-box""> <p class=""title-text"">A</h3></p> </div> <div id=""x-box""> <p class=""title-text"">X<p> </div> <div id=""b-box""> <p class=""title-text"">B</p></div> <br> <div style='float: left;padding-left:30px;'><p>Press '1' for A</p></div><div style='float: right;padding-right:30px;'><p>Press '0' for B</p> </div> </div></div>","null","","","","","","","","","","","","","","","",""
"4493","","test","audio-keyboard-response","81","440392","0.0-9.0-1.26","5a6fbc25f1530b000103b557","condD","","resources/audio/wordStim/S9_AI_25_bxa_Step-8.wav","49","","","","","","resources/audio/wordStim/S9_AI_25_bxa_Step-8.wav","S9","25","bxa","8","CN","MI","S9-MI","1","1","true"
"null","","fixation","html-keyboard-response","82","441394","0.0-9.0-0.27","5a6fbc25f1530b000103b557","condD","","<div class=""vertical-center"" style='width:60%;'><img src=""resources/images/US_flag_100x52.jpg"" style=""width:100px;height:52px;opacity:0.35;""> <br> <br> <p style='font-weight:bold;'>Does the middle word sound more like the first word (A) or the last word (B)?</p> <br> <div class=""container""> <div id=""a-box""> <p class=""title-text"">A</h3></p> </div> <div id=""x-box""> <p class=""title-text"">X<p> </div> <div id=""b-box""> <p class=""title-text"">B</p></div> <br> <div style='float: left;padding-left:30px;'><p>Press '1' for A</p></div><div style='float: right;padding-right:30px;'><p>Press '0' for B</p> </div> </div></div>","null","","","","","","","","","","","","","","","",""
"4447","","test","audio-keyboard-response","83","445864","0.0-9.0-1.27","5a6fbc25f1530b000103b557","condD","","resources/audio/wordStim/S9_AU_11_axb_Step-2.wav","49","","","","","","resources/audio/wordStim/S9_AU_11_axb_Step-2.wav","S9","11","axb","2","CN","MI","S9-MI","0","1","false"
"null","","fixation","html-keyboard-response","84","446866","0.0-9.0-0.28","5a6fbc25f1530b000103b557","condD","","<div class=""vertical-center"" style='width:60%;'><img src=""resources/images/US_flag_100x52.jpg"" style=""width:100px;height:52px;opacity:0.35;""> <br> <br> <p style='font-weight:bold;'>Does the middle word sound more like the first word (A) or the last word (B)?</p> <br> <div class=""container""> <div id=""a-box""> <p class=""title-text"">A</h3></p> </div> <div id=""x-box""> <p class=""title-text"">X<p> </div> <div id=""b-box""> <p class=""title-text"">B</p></div> <br> <div style='float: left;padding-left:30px;'><p>Press '1' for A</p></div><div style='float: right;padding-right:30px;'><p>Press '0' for B</p> </div> </div></div>","null","","","","","","","","","","","","","","","",""
"4249","","test","audio-keyboard-response","85","451121","0.0-9.0-1.28","5a6fbc25f1530b000103b557","condD","","resources/audio/wordStim/S9_AI_25_axb_Step-7.wav","49","","","","","","resources/audio/wordStim/S9_AI_25_axb_Step-7.wav","S9","25","axb","7","CN","MI","S9-MI","0","1","false"
"null","","fixation","html-keyboard-response","86","452122","0.0-9.0-0.29","5a6fbc25f1530b000103b557","condD","","<div class=""vertical-center"" style='width:60%;'><img src=""resources/images/US_flag_100x52.jpg"" style=""width:100px;height:52px;opacity:0.35;""> <br> <br> <p style='font-weight:bold;'>Does the middle word sound more like the first word (A) or the last word (B)?</p> <br> <div class=""container""> <div id=""a-box""> <p class=""title-text"">A</h3></p> </div> <div id=""x-box""> <p class=""title-text"">X<p> </div> <div id=""b-box""> <p class=""title-text"">B</p></div> <br> <div style='float: left;padding-left:30px;'><p>Press '1' for A</p></div><div style='float: right;padding-right:30px;'><p>Press '0' for B</p> </div> </div></div>","null","","","","","","","","","","","","","","","",""
"3947","","test","audio-keyboard-response","87","456081","0.0-9.0-1.29","5a6fbc25f1530b000103b557","condD","","resources/audio/wordStim/S9_AU_18_axb_Step-7.wav","48","","","","","","resources/audio/wordStim/S9_AU_18_axb_Step-7.wav","S9","18","axb","7","CN","MI","S9-MI","0","0","true"
"null","","fixation","html-keyboard-response","88","457083","0.0-9.0-0.30","5a6fbc25f1530b000103b557","condD","","<div class=""vertical-center"" style='width:60%;'><img src=""resources/images/US_flag_100x52.jpg"" style=""width:100px;height:52px;opacity:0.35;""> <br> <br> <p style='font-weight:bold;'>Does the middle word sound more like the first word (A) or the last word (B)?</p> <br> <div class=""container""> <div id=""a-box""> <p class=""title-text"">A</h3></p> </div> <div id=""x-box""> <p class=""title-text"">X<p> </div> <div id=""b-box""> <p class=""title-text"">B</p></div> <br> <div style='float: left;padding-left:30px;'><p>Press '1' for A</p></div><div style='float: right;padding-right:30px;'><p>Press '0' for B</p> </div> </div></div>","null","","","","","","","","","","","","","","","",""
"3750","","test","audio-keyboard-response","89","460840","0.0-9.0-1.30","5a6fbc25f1530b000103b557","condD","","resources/audio/wordStim/S9_AI_29_bxa_Step-6.wav","49","","","","","","resources/audio/wordStim/S9_AI_29_bxa_Step-6.wav","S9","29","bxa","6","CN","MI","S9-MI","1","1","true"
"null","","fixation","html-keyboard-response","90","461842","0.0-9.0-0.31","5a6fbc25f1530b000103b557","condD","","<div class=""vertical-center"" style='width:60%;'><img src=""resources/images/US_flag_100x52.jpg"" style=""width:100px;height:52px;opacity:0.35;""> <br> <br> <p style='font-weight:bold;'>Does the middle word sound more like the first word (A) or the last word (B)?</p> <br> <div class=""container""> <div id=""a-box""> <p class=""title-text"">A</h3></p> </div> <div id=""x-box""> <p class=""title-text"">X<p> </div> <div id=""b-box""> <p class=""title-text"">B</p></div> <br> <div style='float: left;padding-left:30px;'><p>Press '1' for A</p></div><div style='float: right;padding-right:30px;'><p>Press '0' for B</p> </div> </div></div>","null","","","","","","","","","","","","","","","",""
"6397","","test","audio-keyboard-response","91","468232","0.0-9.0-1.31","5a6fbc25f1530b000103b557","condD","","resources/audio/wordStim/S9_AU_11_bxa_Step-7.wav","49","","","","","","resources/audio/wordStim/S9_AU_11_bxa_Step-7.wav","S9","11","bxa","7","CN","MI","S9-MI","1","1","true"
"null","","fixation","html-keyboard-response","92","469234","0.0-9.0-0.32","5a6fbc25f1530b000103b557","condD","","<div class=""vertical-center"" style='width:60%;'><img src=""resources/images/US_flag_100x52.jpg"" style=""width:100px;height:52px;opacity:0.35;""> <br> <br> <p style='font-weight:bold;'>Does the middle word sound more like the first word (A) or the last word (B)?</p> <br> <div class=""container""> <div id=""a-box""> <p class=""title-text"">A</h3></p> </div> <div id=""x-box""> <p class=""title-text"">X<p> </div> <div id=""b-box""> <p class=""title-text"">B</p></div> <br> <div style='float: left;padding-left:30px;'><p>Press '1' for A</p></div><div style='float: right;padding-right:30px;'><p>Press '0' for B</p> </div> </div></div>","null","","","","","","","","","","","","","","","",""
"3994","","test","audio-keyboard-response","93","473233","0.0-9.0-1.32","5a6fbc25f1530b000103b557","condD","","resources/audio/wordStim/S9_AU_18_bxa_Step-8.wav","49","","","","","","resources/audio/wordStim/S9_AU_18_bxa_Step-8.wav","S9","18","bxa","8","CN","MI","S9-MI","1","1","true"
"null","","fixation","html-keyboard-response","94","474235","0.0-9.0-0.33","5a6fbc25f1530b000103b557","condD","","<div class=""vertical-center"" style='width:60%;'><img src=""resources/images/US_flag_100x52.jpg"" style=""width:100px;height:52px;opacity:0.35;""> <br> <br> <p style='font-weight:bold;'>Does the middle word sound more like the first word (A) or the last word (B)?</p> <br> <div class=""container""> <div id=""a-box""> <p class=""title-text"">A</h3></p> </div> <div id=""x-box""> <p class=""title-text"">X<p> </div> <div id=""b-box""> <p class=""title-text"">B</p></div> <br> <div style='float: left;padding-left:30px;'><p>Press '1' for A</p></div><div style='float: right;padding-right:30px;'><p>Press '0' for B</p> </div> </div></div>","null","","","","","","","","","","","","","","","",""
"3959","","test","audio-keyboard-response","95","478193","0.0-9.0-1.33","5a6fbc25f1530b000103b557","condD","","resources/audio/wordStim/S9_AI_29_axb_Step-4.wav","48","","","","","","resources/audio/wordStim/S9_AI_29_axb_Step-4.wav","S9","29","axb","4","CN","MI","S9-MI","0","0","true"
"null","","fixation","html-keyboard-response","96","479194","0.0-9.0-0.34","5a6fbc25f1530b000103b557","condD","","<div class=""vertical-center"" style='width:60%;'><img src=""resources/images/US_flag_100x52.jpg"" style=""width:100px;height:52px;opacity:0.35;""> <br> <br> <p style='font-weight:bold;'>Does the middle word sound more like the first word (A) or the last word (B)?</p> <br> <div class=""container""> <div id=""a-box""> <p class=""title-text"">A</h3></p> </div> <div id=""x-box""> <p class=""title-text"">X<p> </div> <div id=""b-box""> <p class=""title-text"">B</p></div> <br> <div style='float: left;padding-left:30px;'><p>Press '1' for A</p></div><div style='float: right;padding-right:30px;'><p>Press '0' for B</p> </div> </div></div>","null","","","","","","","","","","","","","","","",""
"3587","","test","audio-keyboard-response","97","482768","0.0-9.0-1.34","5a6fbc25f1530b000103b557","condD","","resources/audio/wordStim/S9_AU_20_axb_Step-2.wav","49","","","","","","resources/audio/wordStim/S9_AU_20_axb_Step-2.wav","S9","20","axb","2","CN","MI","S9-MI","0","1","false"
"null","","fixation","html-keyboard-response","98","483771","0.0-9.0-0.35","5a6fbc25f1530b000103b557","condD","","<div class=""vertical-center"" style='width:60%;'><img src=""resources/images/US_flag_100x52.jpg"" style=""width:100px;height:52px;opacity:0.35;""> <br> <br> <p style='font-weight:bold;'>Does the middle word sound more like the first word (A) or the last word (B)?</p> <br> <div class=""container""> <div id=""a-box""> <p class=""title-text"">A</h3></p> </div> <div id=""x-box""> <p class=""title-text"">X<p> </div> <div id=""b-box""> <p class=""title-text"">B</p></div> <br> <div style='float: left;padding-left:30px;'><p>Press '1' for A</p></div><div style='float: right;padding-right:30px;'><p>Press '0' for B</p> </div> </div></div>","null","","","","","","","","","","","","","","","",""
"3773","","test","audio-keyboard-response","99","487553","0.0-9.0-1.35","5a6fbc25f1530b000103b557","condD","","resources/audio/wordStim/S9_AU_20_axb_Step-4.wav","49","","","","","","resources/audio/wordStim/S9_AU_20_axb_Step-4.wav","S9","20","axb","4","CN","MI","S9-MI","0","1","false"
"null","","fixation","html-keyboard-response","100","488555","0.0-9.0-0.36","5a6fbc25f1530b000103b557","condD","","<div class=""vertical-center"" style='width:60%;'><img src=""resources/images/US_flag_100x52.jpg"" style=""width:100px;height:52px;opacity:0.35;""> <br> <br> <p style='font-weight:bold;'>Does the middle word sound more like the first word (A) or the last word (B)?</p> <br> <div class=""container""> <div id=""a-box""> <p class=""title-text"">A</h3></p> </div> <div id=""x-box""> <p class=""title-text"">X<p> </div> <div id=""b-box""> <p class=""title-text"">B</p></div> <br> <div style='float: left;padding-left:30px;'><p>Press '1' for A</p></div><div style='float: right;padding-right:30px;'><p>Press '0' for B</p> </div> </div></div>","null","","","","","","","","","","","","","","","",""
"3495","","test","audio-keyboard-response","101","492041","0.0-9.0-1.36","5a6fbc25f1530b000103b557","condD","","resources/audio/wordStim/S9_AI_23_bxa_Step-2.wav","48","","","","","","resources/audio/wordStim/S9_AI_23_bxa_Step-2.wav","S9","23","bxa","2","CN","MI","S9-MI","1","0","false"
"null","","fixation","html-keyboard-response","102","493042","0.0-9.0-0.37","5a6fbc25f1530b000103b557","condD","","<div class=""vertical-center"" style='width:60%;'><img src=""resources/images/US_flag_100x52.jpg"" style=""width:100px;height:52px;opacity:0.35;""> <br> <br> <p style='font-weight:bold;'>Does the middle word sound more like the first word (A) or the last word (B)?</p> <br> <div class=""container""> <div id=""a-box""> <p class=""title-text"">A</h3></p> </div> <div id=""x-box""> <p class=""title-text"">X<p> </div> <div id=""b-box""> <p class=""title-text"">B</p></div> <br> <div style='float: left;padding-left:30px;'><p>Press '1' for A</p></div><div style='float: right;padding-right:30px;'><p>Press '0' for B</p> </div> </div></div>","null","","","","","","","","","","","","","","","",""
"3506","","test","audio-keyboard-response","103","496553","0.0-9.0-1.37","5a6fbc25f1530b000103b557","condD","","resources/audio/wordStim/S9_AI_23_bxa_Step-8.wav","49","","","","","","resources/audio/wordStim/S9_AI_23_bxa_Step-8.wav","S9","23","bxa","8","CN","MI","S9-MI","1","1","true"
"null","","fixation","html-keyboard-response","104","497555","0.0-9.0-0.38","5a6fbc25f1530b000103b557","condD","","<div class=""vertical-center"" style='width:60%;'><img src=""resources/images/US_flag_100x52.jpg"" style=""width:100px;height:52px;opacity:0.35;""> <br> <br> <p style='font-weight:bold;'>Does the middle word sound more like the first word (A) or the last word (B)?</p> <br> <div class=""container""> <div id=""a-box""> <p class=""title-text"">A</h3></p> </div> <div id=""x-box""> <p class=""title-text"">X<p> </div> <div id=""b-box""> <p class=""title-text"">B</p></div> <br> <div style='float: left;padding-left:30px;'><p>Press '1' for A</p></div><div style='float: right;padding-right:30px;'><p>Press '0' for B</p> </div> </div></div>","null","","","","","","","","","","","","","","","",""
"3799","","test","audio-keyboard-response","105","501377","0.0-9.0-1.38","5a6fbc25f1530b000103b557","condD","","resources/audio/wordStim/S9_AI_23_axb_Step-2.wav","49","","","","","","resources/audio/wordStim/S9_AI_23_axb_Step-2.wav","S9","23","axb","2","CN","MI","S9-MI","0","1","false"
"null","","fixation","html-keyboard-response","106","502378","0.0-9.0-0.39","5a6fbc25f1530b000103b557","condD","","<div class=""vertical-center"" style='width:60%;'><img src=""resources/images/US_flag_100x52.jpg"" style=""width:100px;height:52px;opacity:0.35;""> <br> <br> <p style='font-weight:bold;'>Does the middle word sound more like the first word (A) or the last word (B)?</p> <br> <div class=""container""> <div id=""a-box""> <p class=""title-text"">A</h3></p> </div> <div id=""x-box""> <p class=""title-text"">X<p> </div> <div id=""b-box""> <p class=""title-text"">B</p></div> <br> <div style='float: left;padding-left:30px;'><p>Press '1' for A</p></div><div style='float: right;padding-right:30px;'><p>Press '0' for B</p> </div> </div></div>","null","","","","","","","","","","","","","","","",""
"3878","","test","audio-keyboard-response","107","506265","0.0-9.0-1.39","5a6fbc25f1530b000103b557","condD","","resources/audio/wordStim/S9_AU_11_bxa_Step-3.wav","49","","","","","","resources/audio/wordStim/S9_AU_11_bxa_Step-3.wav","S9","11","bxa","3","CN","MI","S9-MI","1","1","true"
"null","","fixation","html-keyboard-response","108","507267","0.0-9.0-0.40","5a6fbc25f1530b000103b557","condD","","<div class=""vertical-center"" style='width:60%;'><img src=""resources/images/US_flag_100x52.jpg"" style=""width:100px;height:52px;opacity:0.35;""> <br> <br> <p style='font-weight:bold;'>Does the middle word sound more like the first word (A) or the last word (B)?</p> <br> <div class=""container""> <div id=""a-box""> <p class=""title-text"">A</h3></p> </div> <div id=""x-box""> <p class=""title-text"">X<p> </div> <div id=""b-box""> <p class=""title-text"">B</p></div> <br> <div style='float: left;padding-left:30px;'><p>Press '1' for A</p></div><div style='float: right;padding-right:30px;'><p>Press '0' for B</p> </div> </div></div>","null","","","","","","","","","","","","","","","",""
"6060","","test","audio-keyboard-response","109","513313","0.0-9.0-1.40","5a6fbc25f1530b000103b557","condD","","resources/audio/wordStim/S9_AI_23_axb_Step-3.wav","49","","","","","","resources/audio/wordStim/S9_AI_23_axb_Step-3.wav","S9","23","axb","3","CN","MI","S9-MI","0","1","false"
"null","","fixation","html-keyboard-response","110","514314","0.0-9.0-0.41","5a6fbc25f1530b000103b557","condD","","<div class=""vertical-center"" style='width:60%;'><img src=""resources/images/US_flag_100x52.jpg"" style=""width:100px;height:52px;opacity:0.35;""> <br> <br> <p style='font-weight:bold;'>Does the middle word sound more like the first word (A) or the last word (B)?</p> <br> <div class=""container""> <div id=""a-box""> <p class=""title-text"">A</h3></p> </div> <div id=""x-box""> <p class=""title-text"">X<p> </div> <div id=""b-box""> <p class=""title-text"">B</p></div> <br> <div style='float: left;padding-left:30px;'><p>Press '1' for A</p></div><div style='float: right;padding-right:30px;'><p>Press '0' for B</p> </div> </div></div>","null","","","","","","","","","","","","","","","",""
"882","","test","audio-keyboard-response","111","515209","0.0-9.0-1.41","5a6fbc25f1530b000103b557","condD","","resources/audio/wordStim/S9_AU_18_axb_Step-3.wav","49","","","","","","resources/audio/wordStim/S9_AU_18_axb_Step-3.wav","S9","18","axb","3","CN","MI","S9-MI","0","1","false"
"1371.4650000002002","","break","html-keyboard-response","112","517081","0.0-9.0-2.41-0.41","5a6fbc25f1530b000103b557","condD","","<div class=""vertical-center""><p>Feel free to take a break!</p><i>When you're ready to continue, press SPACE to begin the next trial.</i></p></div>","32","","","","","","","","","","","","","","","",""
"null","","fixation","html-keyboard-response","113","517582","0.0-9.0-0.42","5a6fbc25f1530b000103b557","condD","","<div class=""vertical-center"" style='width:60%;'><img src=""resources/images/US_flag_100x52.jpg"" style=""width:100px;height:52px;opacity:0.35;""> <br> <br> <p style='font-weight:bold;'>Does the middle word sound more like the first word (A) or the last word (B)?</p> <br> <div class=""container""> <div id=""a-box""> <p class=""title-text"">A</h3></p> </div> <div id=""x-box""> <p class=""title-text"">X<p> </div> <div id=""b-box""> <p class=""title-text"">B</p></div> <br> <div style='float: left;padding-left:30px;'><p>Press '1' for A</p></div><div style='float: right;padding-right:30px;'><p>Press '0' for B</p> </div> </div></div>","null","","","","","","","","","","","","","","","",""
"3680","","test","audio-keyboard-response","114","521281","0.0-9.0-1.42","5a6fbc25f1530b000103b557","condD","","resources/audio/wordStim/S9_AU_11_axb_Step-4.wav","49","","","","","","resources/audio/wordStim/S9_AU_11_axb_Step-4.wav","S9","11","axb","4","CN","MI","S9-MI","0","1","false"
"null","","fixation","html-keyboard-response","115","522283","0.0-9.0-0.43","5a6fbc25f1530b000103b557","condD","","<div class=""vertical-center"" style='width:60%;'><img src=""resources/images/US_flag_100x52.jpg"" style=""width:100px;height:52px;opacity:0.35;""> <br> <br> <p style='font-weight:bold;'>Does the middle word sound more like the first word (A) or the last word (B)?</p> <br> <div class=""container""> <div id=""a-box""> <p class=""title-text"">A</h3></p> </div> <div id=""x-box""> <p class=""title-text"">X<p> </div> <div id=""b-box""> <p class=""title-text"">B</p></div> <br> <div style='float: left;padding-left:30px;'><p>Press '1' for A</p></div><div style='float: right;padding-right:30px;'><p>Press '0' for B</p> </div> </div></div>","null","","","","","","","","","","","","","","","",""
"4400","","test","audio-keyboard-response","116","526681","0.0-9.0-1.43","5a6fbc25f1530b000103b557","condD","","resources/audio/wordStim/S9_AI_25_axb_Step-5.wav","49","","","","","","resources/audio/wordStim/S9_AI_25_axb_Step-5.wav","S9","25","axb","5","CN","MI","S9-MI","0","1","false"
"null","","fixation","html-keyboard-response","117","527683","0.0-9.0-0.44","5a6fbc25f1530b000103b557","condD","","<div class=""vertical-center"" style='width:60%;'><img src=""resources/images/US_flag_100x52.jpg"" style=""width:100px;height:52px;opacity:0.35;""> <br> <br> <p style='font-weight:bold;'>Does the middle word sound more like the first word (A) or the last word (B)?</p> <br> <div class=""container""> <div id=""a-box""> <p class=""title-text"">A</h3></p> </div> <div id=""x-box""> <p class=""title-text"">X<p> </div> <div id=""b-box""> <p class=""title-text"">B</p></div> <br> <div style='float: left;padding-left:30px;'><p>Press '1' for A</p></div><div style='float: right;padding-right:30px;'><p>Press '0' for B</p> </div> </div></div>","null","","","","","","","","","","","","","","","",""
"4110","","test","audio-keyboard-response","118","531801","0.0-9.0-1.44","5a6fbc25f1530b000103b557","condD","","resources/audio/wordStim/S9_AU_11_axb_Step-3.wav","49","","","","","","resources/audio/wordStim/S9_AU_11_axb_Step-3.wav","S9","11","axb","3","CN","MI","S9-MI","0","1","false"
"null","","fixation","html-keyboard-response","119","532803","0.0-9.0-0.45","5a6fbc25f1530b000103b557","condD","","<div class=""vertical-center"" style='width:60%;'><img src=""resources/images/US_flag_100x52.jpg"" style=""width:100px;height:52px;opacity:0.35;""> <br> <br> <p style='font-weight:bold;'>Does the middle word sound more like the first word (A) or the last word (B)?</p> <br> <div class=""container""> <div id=""a-box""> <p class=""title-text"">A</h3></p> </div> <div id=""x-box""> <p class=""title-text"">X<p> </div> <div id=""b-box""> <p class=""title-text"">B</p></div> <br> <div style='float: left;padding-left:30px;'><p>Press '1' for A</p></div><div style='float: right;padding-right:30px;'><p>Press '0' for B</p> </div> </div></div>","null","","","","","","","","","","","","","","","",""
"3367","","test","audio-keyboard-response","120","536185","0.0-9.0-1.45","5a6fbc25f1530b000103b557","condD","","resources/audio/wordStim/S9_AU_20_axb_Step-3.wav","49","","","","","","resources/audio/wordStim/S9_AU_20_axb_Step-3.wav","S9","20","axb","3","CN","MI","S9-MI","0","1","false"
"null","","fixation","html-keyboard-response","121","537187","0.0-9.0-0.46","5a6fbc25f1530b000103b557","condD","","<div class=""vertical-center"" style='width:60%;'><img src=""resources/images/US_flag_100x52.jpg"" style=""width:100px;height:52px;opacity:0.35;""> <br> <br> <p style='font-weight:bold;'>Does the middle word sound more like the first word (A) or the last word (B)?</p> <br> <div class=""container""> <div id=""a-box""> <p class=""title-text"">A</h3></p> </div> <div id=""x-box""> <p class=""title-text"">X<p> </div> <div id=""b-box""> <p class=""title-text"">B</p></div> <br> <div style='float: left;padding-left:30px;'><p>Press '1' for A</p></div><div style='float: right;padding-right:30px;'><p>Press '0' for B</p> </div> </div></div>","null","","","","","","","","","","","","","","","",""
"4180","","test","audio-keyboard-response","122","541361","0.0-9.0-1.46","5a6fbc25f1530b000103b557","condD","","resources/audio/wordStim/S9_AU_11_bxa_Step-8.wav","49","","","","","","resources/audio/wordStim/S9_AU_11_bxa_Step-8.wav","S9","11","bxa","8","CN","MI","S9-MI","1","1","true"
"null","","fixation","html-keyboard-response","123","542363","0.0-9.0-0.47","5a6fbc25f1530b000103b557","condD","","<div class=""vertical-center"" style='width:60%;'><img src=""resources/images/US_flag_100x52.jpg"" style=""width:100px;height:52px;opacity:0.35;""> <br> <br> <p style='font-weight:bold;'>Does the middle word sound more like the first word (A) or the last word (B)?</p> <br> <div class=""container""> <div id=""a-box""> <p class=""title-text"">A</h3></p> </div> <div id=""x-box""> <p class=""title-text"">X<p> </div> <div id=""b-box""> <p class=""title-text"">B</p></div> <br> <div style='float: left;padding-left:30px;'><p>Press '1' for A</p></div><div style='float: right;padding-right:30px;'><p>Press '0' for B</p> </div> </div></div>","null","","","","","","","","","","","","","","","",""
"4841","","test","audio-keyboard-response","124","547202","0.0-9.0-1.47","5a6fbc25f1530b000103b557","condD","","resources/audio/wordStim/S9_AI_25_axb_Step-2.wav","49","","","","","","resources/audio/wordStim/S9_AI_25_axb_Step-2.wav","S9","25","axb","2","CN","MI","S9-MI","0","1","false"
"null","","fixation","html-keyboard-response","125","548204","0.0-9.0-0.48","5a6fbc25f1530b000103b557","condD","","<div class=""vertical-center"" style='width:60%;'><img src=""resources/images/US_flag_100x52.jpg"" style=""width:100px;height:52px;opacity:0.35;""> <br> <br> <p style='font-weight:bold;'>Does the middle word sound more like the first word (A) or the last word (B)?</p> <br> <div class=""container""> <div id=""a-box""> <p class=""title-text"">A</h3></p> </div> <div id=""x-box""> <p class=""title-text"">X<p> </div> <div id=""b-box""> <p class=""title-text"">B</p></div> <br> <div style='float: left;padding-left:30px;'><p>Press '1' for A</p></div><div style='float: right;padding-right:30px;'><p>Press '0' for B</p> </div> </div></div>","null","","","","","","","","","","","","","","","",""
"3820","","test","audio-keyboard-response","126","552025","0.0-9.0-1.48","5a6fbc25f1530b000103b557","condD","","resources/audio/wordStim/S9_AU_11_axb_Step-5.wav","49","","","","","","resources/audio/wordStim/S9_AU_11_axb_Step-5.wav","S9","11","axb","5","CN","MI","S9-MI","0","1","false"
"null","","fixation","html-keyboard-response","127","553027","0.0-9.0-0.49","5a6fbc25f1530b000103b557","condD","","<div class=""vertical-center"" style='width:60%;'><img src=""resources/images/US_flag_100x52.jpg"" style=""width:100px;height:52px;opacity:0.35;""> <br> <br> <p style='font-weight:bold;'>Does the middle word sound more like the first word (A) or the last word (B)?</p> <br> <div class=""container""> <div id=""a-box""> <p class=""title-text"">A</h3></p> </div> <div id=""x-box""> <p class=""title-text"">X<p> </div> <div id=""b-box""> <p class=""title-text"">B</p></div> <br> <div style='float: left;padding-left:30px;'><p>Press '1' for A</p></div><div style='float: right;padding-right:30px;'><p>Press '0' for B</p> </div> </div></div>","null","","","","","","","","","","","","","","","",""
"4748","","test","audio-keyboard-response","128","557778","0.0-9.0-1.49","5a6fbc25f1530b000103b557","condD","","resources/audio/wordStim/S9_AU_11_bxa_Step-6.wav","48","","","","","","resources/audio/wordStim/S9_AU_11_bxa_Step-6.wav","S9","11","bxa","6","CN","MI","S9-MI","1","0","false"
"null","","fixation","html-keyboard-response","129","558780","0.0-9.0-0.50","5a6fbc25f1530b000103b557","condD","","<div class=""vertical-center"" style='width:60%;'><img src=""resources/images/US_flag_100x52.jpg"" style=""width:100px;height:52px;opacity:0.35;""> <br> <br> <p style='font-weight:bold;'>Does the middle word sound more like the first word (A) or the last word (B)?</p> <br> <div class=""container""> <div id=""a-box""> <p class=""title-text"">A</h3></p> </div> <div id=""x-box""> <p class=""title-text"">X<p> </div> <div id=""b-box""> <p class=""title-text"">B</p></div> <br> <div style='float: left;padding-left:30px;'><p>Press '1' for A</p></div><div style='float: right;padding-right:30px;'><p>Press '0' for B</p> </div> </div></div>","null","","","","","","","","","","","","","","","",""
"1939","","test","audio-keyboard-response","130","560721","0.0-9.0-1.50","5a6fbc25f1530b000103b557","condD","","resources/audio/wordStim/S9_AU_20_axb_Step-5.wav","49","","","","","","resources/audio/wordStim/S9_AU_20_axb_Step-5.wav","S9","20","axb","5","CN","MI","S9-MI","0","1","false"
"null","","fixation","html-keyboard-response","131","561723","0.0-9.0-0.51","5a6fbc25f1530b000103b557","condD","","<div class=""vertical-center"" style='width:60%;'><img src=""resources/images/US_flag_100x52.jpg"" style=""width:100px;height:52px;opacity:0.35;""> <br> <br> <p style='font-weight:bold;'>Does the middle word sound more like the first word (A) or the last word (B)?</p> <br> <div class=""container""> <div id=""a-box""> <p class=""title-text"">A</h3></p> </div> <div id=""x-box""> <p class=""title-text"">X<p> </div> <div id=""b-box""> <p class=""title-text"">B</p></div> <br> <div style='float: left;padding-left:30px;'><p>Press '1' for A</p></div><div style='float: right;padding-right:30px;'><p>Press '0' for B</p> </div> </div></div>","null","","","","","","","","","","","","","","","",""
"6455","","test","audio-keyboard-response","132","568178","0.0-9.0-1.51","5a6fbc25f1530b000103b557","condD","","resources/audio/wordStim/S9_AI_23_axb_Step-7.wav","49","","","","","","resources/audio/wordStim/S9_AI_23_axb_Step-7.wav","S9","23","axb","7","CN","MI","S9-MI","0","1","false"
"null","","fixation","html-keyboard-response","133","569180","0.0-9.0-0.52","5a6fbc25f1530b000103b557","condD","","<div class=""vertical-center"" style='width:60%;'><img src=""resources/images/US_flag_100x52.jpg"" style=""width:100px;height:52px;opacity:0.35;""> <br> <br> <p style='font-weight:bold;'>Does the middle word sound more like the first word (A) or the last word (B)?</p> <br> <div class=""container""> <div id=""a-box""> <p class=""title-text"">A</h3></p> </div> <div id=""x-box""> <p class=""title-text"">X<p> </div> <div id=""b-box""> <p class=""title-text"">B</p></div> <br> <div style='float: left;padding-left:30px;'><p>Press '1' for A</p></div><div style='float: right;padding-right:30px;'><p>Press '0' for B</p> </div> </div></div>","null","","","","","","","","","","","","","","","",""
"3727","","test","audio-keyboard-response","134","572906","0.0-9.0-1.52","5a6fbc25f1530b000103b557","condD","","resources/audio/wordStim/S9_AU_18_bxa_Step-7.wav","48","","","","","","resources/audio/wordStim/S9_AU_18_bxa_Step-7.wav","S9","18","bxa","7","CN","MI","S9-MI","1","0","false"
"null","","fixation","html-keyboard-response","135","573907","0.0-9.0-0.53","5a6fbc25f1530b000103b557","condD","","<div class=""vertical-center"" style='width:60%;'><img src=""resources/images/US_flag_100x52.jpg"" style=""width:100px;height:52px;opacity:0.35;""> <br> <br> <p style='font-weight:bold;'>Does the middle word sound more like the first word (A) or the last word (B)?</p> <br> <div class=""container""> <div id=""a-box""> <p class=""title-text"">A</h3></p> </div> <div id=""x-box""> <p class=""title-text"">X<p> </div> <div id=""b-box""> <p class=""title-text"">B</p></div> <br> <div style='float: left;padding-left:30px;'><p>Press '1' for A</p></div><div style='float: right;padding-right:30px;'><p>Press '0' for B</p> </div> </div></div>","null","","","","","","","","","","","","","","","",""
"3843","","test","audio-keyboard-response","136","577737","0.0-9.0-1.53","5a6fbc25f1530b000103b557","condD","","resources/audio/wordStim/S9_AU_18_axb_Step-6.wav","49","","","","","","resources/audio/wordStim/S9_AU_18_axb_Step-6.wav","S9","18","axb","6","CN","MI","S9-MI","0","1","false"
"null","","fixation","html-keyboard-response","137","578739","0.0-9.0-0.54","5a6fbc25f1530b000103b557","condD","","<div class=""vertical-center"" style='width:60%;'><img src=""resources/images/US_flag_100x52.jpg"" style=""width:100px;height:52px;opacity:0.35;""> <br> <br> <p style='font-weight:bold;'>Does the middle word sound more like the first word (A) or the last word (B)?</p> <br> <div class=""container""> <div id=""a-box""> <p class=""title-text"">A</h3></p> </div> <div id=""x-box""> <p class=""title-text"">X<p> </div> <div id=""b-box""> <p class=""title-text"">B</p></div> <br> <div style='float: left;padding-left:30px;'><p>Press '1' for A</p></div><div style='float: right;padding-right:30px;'><p>Press '0' for B</p> </div> </div></div>","null","","","","","","","","","","","","","","","",""
"3506","","test","audio-keyboard-response","138","582242","0.0-9.0-1.54","5a6fbc25f1530b000103b557","condD","","resources/audio/wordStim/S9_AI_23_bxa_Step-3.wav","48","","","","","","resources/audio/wordStim/S9_AI_23_bxa_Step-3.wav","S9","23","bxa","3","CN","MI","S9-MI","1","0","false"
"null","","fixation","html-keyboard-response","139","583243","0.0-9.0-0.55","5a6fbc25f1530b000103b557","condD","","<div class=""vertical-center"" style='width:60%;'><img src=""resources/images/US_flag_100x52.jpg"" style=""width:100px;height:52px;opacity:0.35;""> <br> <br> <p style='font-weight:bold;'>Does the middle word sound more like the first word (A) or the last word (B)?</p> <br> <div class=""container""> <div id=""a-box""> <p class=""title-text"">A</h3></p> </div> <div id=""x-box""> <p class=""title-text"">X<p> </div> <div id=""b-box""> <p class=""title-text"">B</p></div> <br> <div style='float: left;padding-left:30px;'><p>Press '1' for A</p></div><div style='float: right;padding-right:30px;'><p>Press '0' for B</p> </div> </div></div>","null","","","","","","","","","","","","","","","",""
"4899","","test","audio-keyboard-response","140","588145","0.0-9.0-1.55","5a6fbc25f1530b000103b557","condD","","resources/audio/wordStim/S9_AU_20_bxa_Step-8.wav","49","","","","","","resources/audio/wordStim/S9_AU_20_bxa_Step-8.wav","S9","20","bxa","8","CN","MI","S9-MI","1","1","true"
"null","","fixation","html-keyboard-response","141","589147","0.0-9.0-0.56","5a6fbc25f1530b000103b557","condD","","<div class=""vertical-center"" style='width:60%;'><img src=""resources/images/US_flag_100x52.jpg"" style=""width:100px;height:52px;opacity:0.35;""> <br> <br> <p style='font-weight:bold;'>Does the middle word sound more like the first word (A) or the last word (B)?</p> <br> <div class=""container""> <div id=""a-box""> <p class=""title-text"">A</h3></p> </div> <div id=""x-box""> <p class=""title-text"">X<p> </div> <div id=""b-box""> <p class=""title-text"">B</p></div> <br> <div style='float: left;padding-left:30px;'><p>Press '1' for A</p></div><div style='float: right;padding-right:30px;'><p>Press '0' for B</p> </div> </div></div>","null","","","","","","","","","","","","","","","",""
"4516","","test","audio-keyboard-response","142","593682","0.0-9.0-1.56","5a6fbc25f1530b000103b557","condD","","resources/audio/wordStim/S9_AU_11_bxa_Step-4.wav","49","","","","","","resources/audio/wordStim/S9_AU_11_bxa_Step-4.wav","S9","11","bxa","4","CN","MI","S9-MI","1","1","true"
"null","","fixation","html-keyboard-response","143","594684","0.0-9.0-0.57","5a6fbc25f1530b000103b557","condD","","<div class=""vertical-center"" style='width:60%;'><img src=""resources/images/US_flag_100x52.jpg"" style=""width:100px;height:52px;opacity:0.35;""> <br> <br> <p style='font-weight:bold;'>Does the middle word sound more like the first word (A) or the last word (B)?</p> <br> <div class=""container""> <div id=""a-box""> <p class=""title-text"">A</h3></p> </div> <div id=""x-box""> <p class=""title-text"">X<p> </div> <div id=""b-box""> <p class=""title-text"">B</p></div> <br> <div style='float: left;padding-left:30px;'><p>Press '1' for A</p></div><div style='float: right;padding-right:30px;'><p>Press '0' for B</p> </div> </div></div>","null","","","","","","","","","","","","","","","",""
"3831","","test","audio-keyboard-response","144","598522","0.0-9.0-1.57","5a6fbc25f1530b000103b557","condD","","resources/audio/wordStim/S9_AI_29_axb_Step-2.wav","48","","","","","","resources/audio/wordStim/S9_AI_29_axb_Step-2.wav","S9","29","axb","2","CN","MI","S9-MI","0","0","true"
"null","","fixation","html-keyboard-response","145","599524","0.0-9.0-0.58","5a6fbc25f1530b000103b557","condD","","<div class=""vertical-center"" style='width:60%;'><img src=""resources/images/US_flag_100x52.jpg"" style=""width:100px;height:52px;opacity:0.35;""> <br> <br> <p style='font-weight:bold;'>Does the middle word sound more like the first word (A) or the last word (B)?</p> <br> <div class=""container""> <div id=""a-box""> <p class=""title-text"">A</h3></p> </div> <div id=""x-box""> <p class=""title-text"">X<p> </div> <div id=""b-box""> <p class=""title-text"">B</p></div> <br> <div style='float: left;padding-left:30px;'><p>Press '1' for A</p></div><div style='float: right;padding-right:30px;'><p>Press '0' for B</p> </div> </div></div>","null","","","","","","","","","","","","","","","",""
"4331","","test","audio-keyboard-response","146","603850","0.0-9.0-1.58","5a6fbc25f1530b000103b557","condD","","resources/audio/wordStim/S9_AI_23_axb_Step-4.wav","49","","","","","","resources/audio/wordStim/S9_AI_23_axb_Step-4.wav","S9","23","axb","4","CN","MI","S9-MI","0","1","false"
"null","","fixation","html-keyboard-response","147","604852","0.0-9.0-0.59","5a6fbc25f1530b000103b557","condD","","<div class=""vertical-center"" style='width:60%;'><img src=""resources/images/US_flag_100x52.jpg"" style=""width:100px;height:52px;opacity:0.35;""> <br> <br> <p style='font-weight:bold;'>Does the middle word sound more like the first word (A) or the last word (B)?</p> <br> <div class=""container""> <div id=""a-box""> <p class=""title-text"">A</h3></p> </div> <div id=""x-box""> <p class=""title-text"">X<p> </div> <div id=""b-box""> <p class=""title-text"">B</p></div> <br> <div style='float: left;padding-left:30px;'><p>Press '1' for A</p></div><div style='float: right;padding-right:30px;'><p>Press '0' for B</p> </div> </div></div>","null","","","","","","","","","","","","","","","",""
"3959","","test","audio-keyboard-response","148","608810","0.0-9.0-1.59","5a6fbc25f1530b000103b557","condD","","resources/audio/wordStim/S9_AU_20_axb_Step-8.wav","49","","","","","","resources/audio/wordStim/S9_AU_20_axb_Step-8.wav","S9","20","axb","8","CN","MI","S9-MI","0","1","false"
"null","","fixation","html-keyboard-response","149","609811","0.0-9.0-0.60","5a6fbc25f1530b000103b557","condD","","<div class=""vertical-center"" style='width:60%;'><img src=""resources/images/US_flag_100x52.jpg"" style=""width:100px;height:52px;opacity:0.35;""> <br> <br> <p style='font-weight:bold;'>Does the middle word sound more like the first word (A) or the last word (B)?</p> <br> <div class=""container""> <div id=""a-box""> <p class=""title-text"">A</h3></p> </div> <div id=""x-box""> <p class=""title-text"">X<p> </div> <div id=""b-box""> <p class=""title-text"">B</p></div> <br> <div style='float: left;padding-left:30px;'><p>Press '1' for A</p></div><div style='float: right;padding-right:30px;'><p>Press '0' for B</p> </div> </div></div>","null","","","","","","","","","","","","","","","",""
"3855","","test","audio-keyboard-response","150","613674","0.0-9.0-1.60","5a6fbc25f1530b000103b557","condD","","resources/audio/wordStim/S9_AI_29_bxa_Step-8.wav","49","","","","","","resources/audio/wordStim/S9_AI_29_bxa_Step-8.wav","S9","29","bxa","8","CN","MI","S9-MI","1","1","true"
"null","","fixation","html-keyboard-response","151","614675","0.0-9.0-0.61","5a6fbc25f1530b000103b557","condD","","<div class=""vertical-center"" style='width:60%;'><img src=""resources/images/US_flag_100x52.jpg"" style=""width:100px;height:52px;opacity:0.35;""> <br> <br> <p style='font-weight:bold;'>Does the middle word sound more like the first word (A) or the last word (B)?</p> <br> <div class=""container""> <div id=""a-box""> <p class=""title-text"">A</h3></p> </div> <div id=""x-box""> <p class=""title-text"">X<p> </div> <div id=""b-box""> <p class=""title-text"">B</p></div> <br> <div style='float: left;padding-left:30px;'><p>Press '1' for A</p></div><div style='float: right;padding-right:30px;'><p>Press '0' for B</p> </div> </div></div>","null","","","","","","","","","","","","","","","",""
"3889","","test","audio-keyboard-response","152","618562","0.0-9.0-1.61","5a6fbc25f1530b000103b557","condD","","resources/audio/wordStim/S9_AI_29_bxa_Step-5.wav","49","","","","","","resources/audio/wordStim/S9_AI_29_bxa_Step-5.wav","S9","29","bxa","5","CN","MI","S9-MI","1","1","true"
"null","","fixation","html-keyboard-response","153","619564","0.0-9.0-0.62","5a6fbc25f1530b000103b557","condD","","<div class=""vertical-center"" style='width:60%;'><img src=""resources/images/US_flag_100x52.jpg"" style=""width:100px;height:52px;opacity:0.35;""> <br> <br> <p style='font-weight:bold;'>Does the middle word sound more like the first word (A) or the last word (B)?</p> <br> <div class=""container""> <div id=""a-box""> <p class=""title-text"">A</h3></p> </div> <div id=""x-box""> <p class=""title-text"">X<p> </div> <div id=""b-box""> <p class=""title-text"">B</p></div> <br> <div style='float: left;padding-left:30px;'><p>Press '1' for A</p></div><div style='float: right;padding-right:30px;'><p>Press '0' for B</p> </div> </div></div>","null","","","","","","","","","","","","","","","",""
"3901","","test","audio-keyboard-response","154","623466","0.0-9.0-1.62","5a6fbc25f1530b000103b557","condD","","resources/audio/wordStim/S9_AI_25_bxa_Step-4.wav","49","","","","","","resources/audio/wordStim/S9_AI_25_bxa_Step-4.wav","S9","25","bxa","4","CN","MI","S9-MI","1","1","true"
"2298.584999999497","","break","html-keyboard-response","155","626266","0.0-9.0-2.62-0.62","5a6fbc25f1530b000103b557","condD","","<div class=""vertical-center""><p>Feel free to take a break!</p><i>When you're ready to continue, press SPACE to begin the next trial.</i></p></div>","32","","","","","","","","","","","","","","","",""
"null","","fixation","html-keyboard-response","156","626767","0.0-9.0-0.63","5a6fbc25f1530b000103b557","condD","","<div class=""vertical-center"" style='width:60%;'><img src=""resources/images/US_flag_100x52.jpg"" style=""width:100px;height:52px;opacity:0.35;""> <br> <br> <p style='font-weight:bold;'>Does the middle word sound more like the first word (A) or the last word (B)?</p> <br> <div class=""container""> <div id=""a-box""> <p class=""title-text"">A</h3></p> </div> <div id=""x-box""> <p class=""title-text"">X<p> </div> <div id=""b-box""> <p class=""title-text"">B</p></div> <br> <div style='float: left;padding-left:30px;'><p>Press '1' for A</p></div><div style='float: right;padding-right:30px;'><p>Press '0' for B</p> </div> </div></div>","null","","","","","","","","","","","","","","","",""
"3657","","test","audio-keyboard-response","157","630434","0.0-9.0-1.63","5a6fbc25f1530b000103b557","condD","","resources/audio/wordStim/S9_AU_18_axb_Step-8.wav","48","","","","","","resources/audio/wordStim/S9_AU_18_axb_Step-8.wav","S9","18","axb","8","CN","MI","S9-MI","0","0","true"
"null","","fixation","html-keyboard-response","158","631436","0.0-9.0-0.64","5a6fbc25f1530b000103b557","condD","","<div class=""vertical-center"" style='width:60%;'><img src=""resources/images/US_flag_100x52.jpg"" style=""width:100px;height:52px;opacity:0.35;""> <br> <br> <p style='font-weight:bold;'>Does the middle word sound more like the first word (A) or the last word (B)?</p> <br> <div class=""container""> <div id=""a-box""> <p class=""title-text"">A</h3></p> </div> <div id=""x-box""> <p class=""title-text"">X<p> </div> <div id=""b-box""> <p class=""title-text"">B</p></div> <br> <div style='float: left;padding-left:30px;'><p>Press '1' for A</p></div><div style='float: right;padding-right:30px;'><p>Press '0' for B</p> </div> </div></div>","null","","","","","","","","","","","","","","","",""
"3704","","test","audio-keyboard-response","159","635138","0.0-9.0-1.64","5a6fbc25f1530b000103b557","condD","","resources/audio/wordStim/S9_AU_18_axb_Step-2.wav","49","","","","","","resources/audio/wordStim/S9_AU_18_axb_Step-2.wav","S9","18","axb","2","CN","MI","S9-MI","0","1","false"
"null","","fixation","html-keyboard-response","160","636140","0.0-9.0-0.65","5a6fbc25f1530b000103b557","condD","","<div class=""vertical-center"" style='width:60%;'><img src=""resources/images/US_flag_100x52.jpg"" style=""width:100px;height:52px;opacity:0.35;""> <br> <br> <p style='font-weight:bold;'>Does the middle word sound more like the first word (A) or the last word (B)?</p> <br> <div class=""container""> <div id=""a-box""> <p class=""title-text"">A</h3></p> </div> <div id=""x-box""> <p class=""title-text"">X<p> </div> <div id=""b-box""> <p class=""title-text"">B</p></div> <br> <div style='float: left;padding-left:30px;'><p>Press '1' for A</p></div><div style='float: right;padding-right:30px;'><p>Press '0' for B</p> </div> </div></div>","null","","","","","","","","","","","","","","","",""
"3855","","test","audio-keyboard-response","161","639986","0.0-9.0-1.65","5a6fbc25f1530b000103b557","condD","","resources/audio/wordStim/S9_AU_18_axb_Step-4.wav","49","","","","","","resources/audio/wordStim/S9_AU_18_axb_Step-4.wav","S9","18","axb","4","CN","MI","S9-MI","0","1","false"
"null","","fixation","html-keyboard-response","162","640988","0.0-9.0-0.66","5a6fbc25f1530b000103b557","condD","","<div class=""vertical-center"" style='width:60%;'><img src=""resources/images/US_flag_100x52.jpg"" style=""width:100px;height:52px;opacity:0.35;""> <br> <br> <p style='font-weight:bold;'>Does the middle word sound more like the first word (A) or the last word (B)?</p> <br> <div class=""container""> <div id=""a-box""> <p class=""title-text"">A</h3></p> </div> <div id=""x-box""> <p class=""title-text"">X<p> </div> <div id=""b-box""> <p class=""title-text"">B</p></div> <br> <div style='float: left;padding-left:30px;'><p>Press '1' for A</p></div><div style='float: right;padding-right:30px;'><p>Press '0' for B</p> </div> </div></div>","null","","","","","","","","","","","","","","","",""
"3796","","test","audio-keyboard-response","163","644794","0.0-9.0-1.66","5a6fbc25f1530b000103b557","condD","","resources/audio/wordStim/S9_AU_11_bxa_Step-5.wav","49","","","","","","resources/audio/wordStim/S9_AU_11_bxa_Step-5.wav","S9","11","bxa","5","CN","MI","S9-MI","1","1","true"
"null","","fixation","html-keyboard-response","164","645796","0.0-9.0-0.67","5a6fbc25f1530b000103b557","condD","","<div class=""vertical-center"" style='width:60%;'><img src=""resources/images/US_flag_100x52.jpg"" style=""width:100px;height:52px;opacity:0.35;""> <br> <br> <p style='font-weight:bold;'>Does the middle word sound more like the first word (A) or the last word (B)?</p> <br> <div class=""container""> <div id=""a-box""> <p class=""title-text"">A</h3></p> </div> <div id=""x-box""> <p class=""title-text"">X<p> </div> <div id=""b-box""> <p class=""title-text"">B</p></div> <br> <div style='float: left;padding-left:30px;'><p>Press '1' for A</p></div><div style='float: right;padding-right:30px;'><p>Press '0' for B</p> </div> </div></div>","null","","","","","","","","","","","","","","","",""
"3913","","test","audio-keyboard-response","165","649714","0.0-9.0-1.67","5a6fbc25f1530b000103b557","condD","","resources/audio/wordStim/S9_AI_25_axb_Step-4.wav","49","","","","","","resources/audio/wordStim/S9_AI_25_axb_Step-4.wav","S9","25","axb","4","CN","MI","S9-MI","0","1","false"
"null","","fixation","html-keyboard-response","166","650716","0.0-9.0-0.68","5a6fbc25f1530b000103b557","condD","","<div class=""vertical-center"" style='width:60%;'><img src=""resources/images/US_flag_100x52.jpg"" style=""width:100px;height:52px;opacity:0.35;""> <br> <br> <p style='font-weight:bold;'>Does the middle word sound more like the first word (A) or the last word (B)?</p> <br> <div class=""container""> <div id=""a-box""> <p class=""title-text"">A</h3></p> </div> <div id=""x-box""> <p class=""title-text"">X<p> </div> <div id=""b-box""> <p class=""title-text"">B</p></div> <br> <div style='float: left;padding-left:30px;'><p>Press '1' for A</p></div><div style='float: right;padding-right:30px;'><p>Press '0' for B</p> </div> </div></div>","null","","","","","","","","","","","","","","","",""
"4969","","test","audio-keyboard-response","167","655699","0.0-9.0-1.68","5a6fbc25f1530b000103b557","condD","","resources/audio/wordStim/S9_AU_20_axb_Step-6.wav","48","","","","","","resources/audio/wordStim/S9_AU_20_axb_Step-6.wav","S9","20","axb","6","CN","MI","S9-MI","0","0","true"
"null","","fixation","html-keyboard-response","168","656700","0.0-9.0-0.69","5a6fbc25f1530b000103b557","condD","","<div class=""vertical-center"" style='width:60%;'><img src=""resources/images/US_flag_100x52.jpg"" style=""width:100px;height:52px;opacity:0.35;""> <br> <br> <p style='font-weight:bold;'>Does the middle word sound more like the first word (A) or the last word (B)?</p> <br> <div class=""container""> <div id=""a-box""> <p class=""title-text"">A</h3></p> </div> <div id=""x-box""> <p class=""title-text"">X<p> </div> <div id=""b-box""> <p class=""title-text"">B</p></div> <br> <div style='float: left;padding-left:30px;'><p>Press '1' for A</p></div><div style='float: right;padding-right:30px;'><p>Press '0' for B</p> </div> </div></div>","null","","","","","","","","","","","","","","","",""
"3587","","test","audio-keyboard-response","169","660282","0.0-9.0-1.69","5a6fbc25f1530b000103b557","condD","","resources/audio/wordStim/S9_AI_29_axb_Step-3.wav","49","","","","","","resources/audio/wordStim/S9_AI_29_axb_Step-3.wav","S9","29","axb","3","CN","MI","S9-MI","0","1","false"
"null","","fixation","html-keyboard-response","170","661284","0.0-9.0-0.70","5a6fbc25f1530b000103b557","condD","","<div class=""vertical-center"" style='width:60%;'><img src=""resources/images/US_flag_100x52.jpg"" style=""width:100px;height:52px;opacity:0.35;""> <br> <br> <p style='font-weight:bold;'>Does the middle word sound more like the first word (A) or the last word (B)?</p> <br> <div class=""container""> <div id=""a-box""> <p class=""title-text"">A</h3></p> </div> <div id=""x-box""> <p class=""title-text"">X<p> </div> <div id=""b-box""> <p class=""title-text"">B</p></div> <br> <div style='float: left;padding-left:30px;'><p>Press '1' for A</p></div><div style='float: right;padding-right:30px;'><p>Press '0' for B</p> </div> </div></div>","null","","","","","","","","","","","","","","","",""
"4563","","test","audio-keyboard-response","171","665859","0.0-9.0-1.70","5a6fbc25f1530b000103b557","condD","","resources/audio/wordStim/S9_AI_23_axb_Step-5.wav","48","","","","","","resources/audio/wordStim/S9_AI_23_axb_Step-5.wav","S9","23","axb","5","CN","MI","S9-MI","0","0","true"
"null","","fixation","html-keyboard-response","172","666861","0.0-9.0-0.71","5a6fbc25f1530b000103b557","condD","","<div class=""vertical-center"" style='width:60%;'><img src=""resources/images/US_flag_100x52.jpg"" style=""width:100px;height:52px;opacity:0.35;""> <br> <br> <p style='font-weight:bold;'>Does the middle word sound more like the first word (A) or the last word (B)?</p> <br> <div class=""container""> <div id=""a-box""> <p class=""title-text"">A</h3></p> </div> <div id=""x-box""> <p class=""title-text"">X<p> </div> <div id=""b-box""> <p class=""title-text"">B</p></div> <br> <div style='float: left;padding-left:30px;'><p>Press '1' for A</p></div><div style='float: right;padding-right:30px;'><p>Press '0' for B</p> </div> </div></div>","null","","","","","","","","","","","","","","","",""
"4075","","test","audio-keyboard-response","173","670939","0.0-9.0-1.71","5a6fbc25f1530b000103b557","condD","","resources/audio/wordStim/S9_AU_11_bxa_Step-2.wav","49","","","","","","resources/audio/wordStim/S9_AU_11_bxa_Step-2.wav","S9","11","bxa","2","CN","MI","S9-MI","1","1","true"
"null","","fixation","html-keyboard-response","174","671940","0.0-9.0-0.72","5a6fbc25f1530b000103b557","condD","","<div class=""vertical-center"" style='width:60%;'><img src=""resources/images/US_flag_100x52.jpg"" style=""width:100px;height:52px;opacity:0.35;""> <br> <br> <p style='font-weight:bold;'>Does the middle word sound more like the first word (A) or the last word (B)?</p> <br> <div class=""container""> <div id=""a-box""> <p class=""title-text"">A</h3></p> </div> <div id=""x-box""> <p class=""title-text"">X<p> </div> <div id=""b-box""> <p class=""title-text"">B</p></div> <br> <div style='float: left;padding-left:30px;'><p>Press '1' for A</p></div><div style='float: right;padding-right:30px;'><p>Press '0' for B</p> </div> </div></div>","null","","","","","","","","","","","","","","","",""
"3831","","test","audio-keyboard-response","175","675779","0.0-9.0-1.72","5a6fbc25f1530b000103b557","condD","","resources/audio/wordStim/S9_AI_29_axb_Step-5.wav","49","","","","","","resources/audio/wordStim/S9_AI_29_axb_Step-5.wav","S9","29","axb","5","CN","MI","S9-MI","0","1","false"
"null","","fixation","html-keyboard-response","176","676780","0.0-9.0-0.73","5a6fbc25f1530b000103b557","condD","","<div class=""vertical-center"" style='width:60%;'><img src=""resources/images/US_flag_100x52.jpg"" style=""width:100px;height:52px;opacity:0.35;""> <br> <br> <p style='font-weight:bold;'>Does the middle word sound more like the first word (A) or the last word (B)?</p> <br> <div class=""container""> <div id=""a-box""> <p class=""title-text"">A</h3></p> </div> <div id=""x-box""> <p class=""title-text"">X<p> </div> <div id=""b-box""> <p class=""title-text"">B</p></div> <br> <div style='float: left;padding-left:30px;'><p>Press '1' for A</p></div><div style='float: right;padding-right:30px;'><p>Press '0' for B</p> </div> </div></div>","null","","","","","","","","","","","","","","","",""
"3553","","test","audio-keyboard-response","177","680330","0.0-9.0-1.73","5a6fbc25f1530b000103b557","condD","","resources/audio/wordStim/S9_AI_25_axb_Step-3.wav","49","","","","","","resources/audio/wordStim/S9_AI_25_axb_Step-3.wav","S9","25","axb","3","CN","MI","S9-MI","0","1","false"
"null","","fixation","html-keyboard-response","178","681332","0.0-9.0-0.74","5a6fbc25f1530b000103b557","condD","","<div class=""vertical-center"" style='width:60%;'><img src=""resources/images/US_flag_100x52.jpg"" style=""width:100px;height:52px;opacity:0.35;""> <br> <br> <p style='font-weight:bold;'>Does the middle word sound more like the first word (A) or the last word (B)?</p> <br> <div class=""container""> <div id=""a-box""> <p class=""title-text"">A</h3></p> </div> <div id=""x-box""> <p class=""title-text"">X<p> </div> <div id=""b-box""> <p class=""title-text"">B</p></div> <br> <div style='float: left;padding-left:30px;'><p>Press '1' for A</p></div><div style='float: right;padding-right:30px;'><p>Press '0' for B</p> </div> </div></div>","null","","","","","","","","","","","","","","","",""
"7314","","test","audio-keyboard-response","179","688634","0.0-9.0-1.74","5a6fbc25f1530b000103b557","condD","","resources/audio/wordStim/S9_AI_29_axb_Step-8.wav","49","","","","","","resources/audio/wordStim/S9_AI_29_axb_Step-8.wav","S9","29","axb","8","CN","MI","S9-MI","0","1","false"
"null","","fixation","html-keyboard-response","180","689636","0.0-9.0-0.75","5a6fbc25f1530b000103b557","condD","","<div class=""vertical-center"" style='width:60%;'><img src=""resources/images/US_flag_100x52.jpg"" style=""width:100px;height:52px;opacity:0.35;""> <br> <br> <p style='font-weight:bold;'>Does the middle word sound more like the first word (A) or the last word (B)?</p> <br> <div class=""container""> <div id=""a-box""> <p class=""title-text"">A</h3></p> </div> <div id=""x-box""> <p class=""title-text"">X<p> </div> <div id=""b-box""> <p class=""title-text"">B</p></div> <br> <div style='float: left;padding-left:30px;'><p>Press '1' for A</p></div><div style='float: right;padding-right:30px;'><p>Press '0' for B</p> </div> </div></div>","null","","","","","","","","","","","","","","","",""
"3692","","test","audio-keyboard-response","181","693339","0.0-9.0-1.75","5a6fbc25f1530b000103b557","condD","","resources/audio/wordStim/S9_AU_18_bxa_Step-2.wav","48","","","","","","resources/audio/wordStim/S9_AU_18_bxa_Step-2.wav","S9","18","bxa","2","CN","MI","S9-MI","1","0","false"
"null","","fixation","html-keyboard-response","182","694340","0.0-9.0-0.76","5a6fbc25f1530b000103b557","condD","","<div class=""vertical-center"" style='width:60%;'><img src=""resources/images/US_flag_100x52.jpg"" style=""width:100px;height:52px;opacity:0.35;""> <br> <br> <p style='font-weight:bold;'>Does the middle word sound more like the first word (A) or the last word (B)?</p> <br> <div class=""container""> <div id=""a-box""> <p class=""title-text"">A</h3></p> </div> <div id=""x-box""> <p class=""title-text"">X<p> </div> <div id=""b-box""> <p class=""title-text"">B</p></div> <br> <div style='float: left;padding-left:30px;'><p>Press '1' for A</p></div><div style='float: right;padding-right:30px;'><p>Press '0' for B</p> </div> </div></div>","null","","","","","","","","","","","","","","","",""
"3820","","test","audio-keyboard-response","183","698163","0.0-9.0-1.76","5a6fbc25f1530b000103b557","condD","","resources/audio/wordStim/S9_AI_25_bxa_Step-7.wav","49","","","","","","resources/audio/wordStim/S9_AI_25_bxa_Step-7.wav","S9","25","bxa","7","CN","MI","S9-MI","1","1","true"
"null","","fixation","html-keyboard-response","184","699165","0.0-9.0-0.77","5a6fbc25f1530b000103b557","condD","","<div class=""vertical-center"" style='width:60%;'><img src=""resources/images/US_flag_100x52.jpg"" style=""width:100px;height:52px;opacity:0.35;""> <br> <br> <p style='font-weight:bold;'>Does the middle word sound more like the first word (A) or the last word (B)?</p> <br> <div class=""container""> <div id=""a-box""> <p class=""title-text"">A</h3></p> </div> <div id=""x-box""> <p class=""title-text"">X<p> </div> <div id=""b-box""> <p class=""title-text"">B</p></div> <br> <div style='float: left;padding-left:30px;'><p>Press '1' for A</p></div><div style='float: right;padding-right:30px;'><p>Press '0' for B</p> </div> </div></div>","null","","","","","","","","","","","","","","","",""
"4272","","test","audio-keyboard-response","185","703451","0.0-9.0-1.77","5a6fbc25f1530b000103b557","condD","","resources/audio/wordStim/S9_AU_20_axb_Step-7.wav","48","","","","","","resources/audio/wordStim/S9_AU_20_axb_Step-7.wav","S9","20","axb","7","CN","MI","S9-MI","0","0","true"
"null","","fixation","html-keyboard-response","186","704453","0.0-9.0-0.78","5a6fbc25f1530b000103b557","condD","","<div class=""vertical-center"" style='width:60%;'><img src=""resources/images/US_flag_100x52.jpg"" style=""width:100px;height:52px;opacity:0.35;""> <br> <br> <p style='font-weight:bold;'>Does the middle word sound more like the first word (A) or the last word (B)?</p> <br> <div class=""container""> <div id=""a-box""> <p class=""title-text"">A</h3></p> </div> <div id=""x-box""> <p class=""title-text"">X<p> </div> <div id=""b-box""> <p class=""title-text"">B</p></div> <br> <div style='float: left;padding-left:30px;'><p>Press '1' for A</p></div><div style='float: right;padding-right:30px;'><p>Press '0' for B</p> </div> </div></div>","null","","","","","","","","","","","","","","","",""
"4493","","test","audio-keyboard-response","187","708939","0.0-9.0-1.78","5a6fbc25f1530b000103b557","condD","","resources/audio/wordStim/S9_AU_18_bxa_Step-4.wav","48","","","","","","resources/audio/wordStim/S9_AU_18_bxa_Step-4.wav","S9","18","bxa","4","CN","MI","S9-MI","1","0","false"
"null","","fixation","html-keyboard-response","188","709941","0.0-9.0-0.79","5a6fbc25f1530b000103b557","condD","","<div class=""vertical-center"" style='width:60%;'><img src=""resources/images/US_flag_100x52.jpg"" style=""width:100px;height:52px;opacity:0.35;""> <br> <br> <p style='font-weight:bold;'>Does the middle word sound more like the first word (A) or the last word (B)?</p> <br> <div class=""container""> <div id=""a-box""> <p class=""title-text"">A</h3></p> </div> <div id=""x-box""> <p class=""title-text"">X<p> </div> <div id=""b-box""> <p class=""title-text"">B</p></div> <br> <div style='float: left;padding-left:30px;'><p>Press '1' for A</p></div><div style='float: right;padding-right:30px;'><p>Press '0' for B</p> </div> </div></div>","null","","","","","","","","","","","","","","","",""
"3750","","test","audio-keyboard-response","189","713699","0.0-9.0-1.79","5a6fbc25f1530b000103b557","condD","","resources/audio/wordStim/S9_AI_29_bxa_Step-2.wav","48","","","","","","resources/audio/wordStim/S9_AI_29_bxa_Step-2.wav","S9","29","bxa","2","CN","MI","S9-MI","1","0","false"
"null","","fixation","html-keyboard-response","190","714701","0.0-9.0-0.80","5a6fbc25f1530b000103b557","condD","","<div class=""vertical-center"" style='width:60%;'><img src=""resources/images/US_flag_100x52.jpg"" style=""width:100px;height:52px;opacity:0.35;""> <br> <br> <p style='font-weight:bold;'>Does the middle word sound more like the first word (A) or the last word (B)?</p> <br> <div class=""container""> <div id=""a-box""> <p class=""title-text"">A</h3></p> </div> <div id=""x-box""> <p class=""title-text"">X<p> </div> <div id=""b-box""> <p class=""title-text"">B</p></div> <br> <div style='float: left;padding-left:30px;'><p>Press '1' for A</p></div><div style='float: right;padding-right:30px;'><p>Press '0' for B</p> </div> </div></div>","null","","","","","","","","","","","","","","","",""
"3924","","test","audio-keyboard-response","191","718627","0.0-9.0-1.80","5a6fbc25f1530b000103b557","condD","","resources/audio/wordStim/S9_AI_25_axb_Step-6.wav","49","","","","","","resources/audio/wordStim/S9_AI_25_axb_Step-6.wav","S9","25","axb","6","CN","MI","S9-MI","0","1","false"
"null","","fixation","html-keyboard-response","192","719629","0.0-9.0-0.81","5a6fbc25f1530b000103b557","condD","","<div class=""vertical-center"" style='width:60%;'><img src=""resources/images/US_flag_100x52.jpg"" style=""width:100px;height:52px;opacity:0.35;""> <br> <br> <p style='font-weight:bold;'>Does the middle word sound more like the first word (A) or the last word (B)?</p> <br> <div class=""container""> <div id=""a-box""> <p class=""title-text"">A</h3></p> </div> <div id=""x-box""> <p class=""title-text"">X<p> </div> <div id=""b-box""> <p class=""title-text"">B</p></div> <br> <div style='float: left;padding-left:30px;'><p>Press '1' for A</p></div><div style='float: right;padding-right:30px;'><p>Press '0' for B</p> </div> </div></div>","null","","","","","","","","","","","","","","","",""
"4296","","test","audio-keyboard-response","193","723923","0.0-9.0-1.81","5a6fbc25f1530b000103b557","condD","","resources/audio/wordStim/S9_AU_20_bxa_Step-2.wav","48","","","","","","resources/audio/wordStim/S9_AU_20_bxa_Step-2.wav","S9","20","bxa","2","CN","MI","S9-MI","1","0","false"
