"rt","url","trial_role","trial_type","trial_index","time_elapsed","internal_node_id","participantId","conditionId","view_history","stimulus","key_press","button_pressed","correct_answer","correct_response","success","vowel","wordStim","speaker","sentNum","order","step","speakerIdentity","speakerGuise","guiseName","raised_answer","key_response","raised_response"
"37449","micr.axb.consent.html","consent","external-html","0","37495","0.0-0.0","5efc9e6602650605d21ca962","condD","","","","","","","","","","","","","","","","","","",""
"39302","","instructions","instructions","1","76804","0.0-1.0","5efc9e6602650605d21ca962","condD","[{""page_index"":0,""viewing_time"":15750},{""page_index"":1,""viewing_time"":8689.000000000015},{""page_index"":2,""viewing_time"":14861.999999999985}]","","","","","","","","","","","","","","","","","",""
"null","","fixation","html-keyboard-response","2","77306","0.0-2.0-0.0","5efc9e6602650605d21ca962","condD","","<div class=""vertical-center"" style=""font-size:60px;"">+</div>","null","","","","","","","","","","","","","","","",""
"4814.999999999985","","tonetest","audio-button-response","3","82157","0.0-2.0-1.0","5efc9e6602650605d21ca962","condD","","../../src/audio/toneTest_1.wav","","2","2","true","","","","","","","","","","","","",""
"null","","fixation","html-keyboard-response","4","82659","0.0-2.0-0.1","5efc9e6602650605d21ca962","condD","","<div class=""vertical-center"" style=""font-size:60px;"">+</div>","null","","","","","","","","","","","","","","","",""
"4120","","tonetest","audio-button-response","5","86780","0.0-2.0-1.1","5efc9e6602650605d21ca962","condD","","../../src/audio/toneTest_3.wav","","2","2","true","","","","","","","","","","","","",""
"null","","fixation","html-keyboard-response","6","87282","0.0-2.0-0.2","5efc9e6602650605d21ca962","condD","","<div class=""vertical-center"" style=""font-size:60px;"">+</div>","null","","","","","","","","","","","","","","","",""
"4192","","tonetest","audio-button-response","7","91475","0.0-2.0-1.2","5efc9e6602650605d21ca962","condD","","../../src/audio/toneTest_4.wav","","1","1","true","","","","","","","","","","","","",""
"null","","fixation","html-keyboard-response","8","91977","0.0-2.0-0.3","5efc9e6602650605d21ca962","condD","","<div class=""vertical-center"" style=""font-size:60px;"">+</div>","null","","","","","","","","","","","","","","","",""
"3707","","tonetest","audio-button-response","9","95686","0.0-2.0-1.3","5efc9e6602650605d21ca962","condD","","../../src/audio/toneTest_6.wav","","0","0","true","","","","","","","","","","","","",""
"null","","fixation","html-keyboard-response","10","96187","0.0-2.0-0.4","5efc9e6602650605d21ca962","condD","","<div class=""vertical-center"" style=""font-size:60px;"">+</div>","null","","","","","","","","","","","","","","","",""
"4307","","tonetest","audio-button-response","11","100495","0.0-2.0-1.4","5efc9e6602650605d21ca962","condD","","../../src/audio/toneTest_6.wav","","0","0","true","","","","","","","","","","","","",""
"null","","fixation","html-keyboard-response","12","100996","0.0-2.0-0.5","5efc9e6602650605d21ca962","condD","","<div class=""vertical-center"" style=""font-size:60px;"">+</div>","null","","","","","","","","","","","","","","","",""
"4213","","tonetest","audio-button-response","13","105210","0.0-2.0-1.5","5efc9e6602650605d21ca962","condD","","../../src/audio/toneTest_6.wav","","0","0","true","","","","","","","","","","","","",""
"4866","","instructions","html-keyboard-response","14","110077","0.0-3.0","5efc9e6602650605d21ca962","condD","","<div class=""vertical-center""><p><b>Your score was 6/6.</b></p><p>If you scored below 6, please ensure that you are wearing properly functioning headphones and in a quiet location free of distractions.</p><p><i>To continue to the main experiment, press SPACE.</i></p></div>","32","","","","","","","","","","","","","","","",""
"","","","fullscreen","15","113897","0.0-4.0","5efc9e6602650605d21ca962","condD","","","","","","","true","","","","","","","","","","","",""
"33467","","instructions","instructions","16","147364","0.0-5.0","5efc9e6602650605d21ca962","condD","[{""page_index"":0,""viewing_time"":33466}]","","","","","","","","","","","","","","","","","",""
"null","","fixation","html-keyboard-response","17","147867","0.0-6.0-0.0","5efc9e6602650605d21ca962","condD","","<div class=""vertical-center"" style='width:60%;'><p style='font-weight:bold;'>Does the middle word sound more like the first word (A) or the last word (B)?</p> <br> <div class=""container""> <div id=""a-box""> <p class=""title-text"">A</h3></p> </div> <div id=""x-box""> <p class=""title-text"">X<p> </div> <div id=""b-box""> <p class=""title-text"">B</p></div> <br> <div style='float: left;padding-left:30px;'><p>Press '1' for A</p></div><div style='float: right;padding-right:30px;'><p>Press '0' for B</p> </div> </div></div>","null","","","","","","","","","","","","","","","",""
"5950","","practice","audio-keyboard-response","18","153821","0.0-6.0-1.0","5efc9e6602650605d21ca962","condD","","resources/audio/practiceStim/S1_AU_14_bxa_Step-6.wav","48","","","","","","","","","","","","","","","",""
"null","","fixation","html-keyboard-response","19","154824","0.0-6.0-0.1","5efc9e6602650605d21ca962","condD","","<div class=""vertical-center"" style='width:60%;'><p style='font-weight:bold;'>Does the middle word sound more like the first word (A) or the last word (B)?</p> <br> <div class=""container""> <div id=""a-box""> <p class=""title-text"">A</h3></p> </div> <div id=""x-box""> <p class=""title-text"">X<p> </div> <div id=""b-box""> <p class=""title-text"">B</p></div> <br> <div style='float: left;padding-left:30px;'><p>Press '1' for A</p></div><div style='float: right;padding-right:30px;'><p>Press '0' for B</p> </div> </div></div>","null","","","","","","","","","","","","","","","",""
"3654","","practice","audio-keyboard-response","20","158478","0.0-6.0-1.1","5efc9e6602650605d21ca962","condD","","resources/audio/practiceStim/S1_AI_21_bxa_Step-6.wav","48","","","","","","","","","","","","","","","",""
"null","","fixation","html-keyboard-response","21","159479","0.0-6.0-0.2","5efc9e6602650605d21ca962","condD","","<div class=""vertical-center"" style='width:60%;'><p style='font-weight:bold;'>Does the middle word sound more like the first word (A) or the last word (B)?</p> <br> <div class=""container""> <div id=""a-box""> <p class=""title-text"">A</h3></p> </div> <div id=""x-box""> <p class=""title-text"">X<p> </div> <div id=""b-box""> <p class=""title-text"">B</p></div> <br> <div style='float: left;padding-left:30px;'><p>Press '1' for A</p></div><div style='float: right;padding-right:30px;'><p>Press '0' for B</p> </div> </div></div>","null","","","","","","","","","","","","","","","",""
"4101","","practice","audio-keyboard-response","22","163579","0.0-6.0-1.2","5efc9e6602650605d21ca962","condD","","resources/audio/practiceStim/S1_AU_14_axb_Step-6.wav","49","","","","","","","","","","","","","","","",""
"null","","fixation","html-keyboard-response","23","164582","0.0-6.0-0.3","5efc9e6602650605d21ca962","condD","","<div class=""vertical-center"" style='width:60%;'><p style='font-weight:bold;'>Does the middle word sound more like the first word (A) or the last word (B)?</p> <br> <div class=""container""> <div id=""a-box""> <p class=""title-text"">A</h3></p> </div> <div id=""x-box""> <p class=""title-text"">X<p> </div> <div id=""b-box""> <p class=""title-text"">B</p></div> <br> <div style='float: left;padding-left:30px;'><p>Press '1' for A</p></div><div style='float: right;padding-right:30px;'><p>Press '0' for B</p> </div> </div></div>","null","","","","","","","","","","","","","","","",""
"3027","","practice","audio-keyboard-response","24","167612","0.0-6.0-1.3","5efc9e6602650605d21ca962","condD","","resources/audio/practiceStim/S1_AI_21_axb_Step-6.wav","49","","","","","","","","","","","","","","","",""
"2389","","instructions","instructions","25","170502","0.0-7.0","5efc9e6602650605d21ca962","condD","[{""page_index"":0,""viewing_time"":2389}]","","","","","","","","","","","","","","","","","",""
"6046.999999999971","","","html-keyboard-response","26","176553","0.0-8.0","5efc9e6602650605d21ca962","condD","","<div class=""vertical-center""><img src=""resources/images/US_face_b.png"" style=""width:450px;height:300px;""><p>This is the speaker you're about to hear. She is from Detroit, Michigan.</p><p> <br> <i>Press SPACE to continue.</i></p></div>","32","","","","","","","","","","","","","","","",""
"null","","fixation","html-keyboard-response","27","177055","0.0-9.0-0.0","5efc9e6602650605d21ca962","condD","","<div class=""vertical-center"" style='width:60%;'><img src=""resources/images/US_flag_100x52.jpg"" style=""width:100px;height:52px;opacity:0.35;""> <br> <br> <p style='font-weight:bold;'>Does the middle word sound more like the first word (A) or the last word (B)?</p> <br> <div class=""container""> <div id=""a-box""> <p class=""title-text"">A</h3></p> </div> <div id=""x-box""> <p class=""title-text"">X<p> </div> <div id=""b-box""> <p class=""title-text"">B</p></div> <br> <div style='float: left;padding-left:30px;'><p>Press '1' for A</p></div><div style='float: right;padding-right:30px;'><p>Press '0' for B</p> </div> </div></div>","null","","","","","","","","","","","","","","","",""
"4397","","test","audio-keyboard-response","28","181455","0.0-9.0-1.0","5efc9e6602650605d21ca962","condD","","resources/audio/wordStim/S9_AI_29_axb_Step-5.wav","49","","","","","","resources/audio/wordStim/S9_AI_29_axb_Step-5.wav","S9","29","axb","5","CN","MI","S9-MI","0","1","false"
"null","","fixation","html-keyboard-response","29","182459","0.0-9.0-0.1","5efc9e6602650605d21ca962","condD","","<div class=""vertical-center"" style='width:60%;'><img src=""resources/images/US_flag_100x52.jpg"" style=""width:100px;height:52px;opacity:0.35;""> <br> <br> <p style='font-weight:bold;'>Does the middle word sound more like the first word (A) or the last word (B)?</p> <br> <div class=""container""> <div id=""a-box""> <p class=""title-text"">A</h3></p> </div> <div id=""x-box""> <p class=""title-text"">X<p> </div> <div id=""b-box""> <p class=""title-text"">B</p></div> <br> <div style='float: left;padding-left:30px;'><p>Press '1' for A</p></div><div style='float: right;padding-right:30px;'><p>Press '0' for B</p> </div> </div></div>","null","","","","","","","","","","","","","","","",""
"4548","","test","audio-keyboard-response","30","187010","0.0-9.0-1.1","5efc9e6602650605d21ca962","condD","","resources/audio/wordStim/S9_AU_18_bxa_Step-2.wav","49","","","","","","resources/audio/wordStim/S9_AU_18_bxa_Step-2.wav","S9","18","bxa","2","CN","MI","S9-MI","1","1","true"
"null","","fixation","html-keyboard-response","31","188014","0.0-9.0-0.2","5efc9e6602650605d21ca962","condD","","<div class=""vertical-center"" style='width:60%;'><img src=""resources/images/US_flag_100x52.jpg"" style=""width:100px;height:52px;opacity:0.35;""> <br> <br> <p style='font-weight:bold;'>Does the middle word sound more like the first word (A) or the last word (B)?</p> <br> <div class=""container""> <div id=""a-box""> <p class=""title-text"">A</h3></p> </div> <div id=""x-box""> <p class=""title-text"">X<p> </div> <div id=""b-box""> <p class=""title-text"">B</p></div> <br> <div style='float: left;padding-left:30px;'><p>Press '1' for A</p></div><div style='float: right;padding-right:30px;'><p>Press '0' for B</p> </div> </div></div>","null","","","","","","","","","","","","","","","",""
"6281","","test","audio-keyboard-response","32","194296","0.0-9.0-1.2","5efc9e6602650605d21ca962","condD","","resources/audio/wordStim/S9_AI_23_axb_Step-8.wav","49","","","","","","resources/audio/wordStim/S9_AI_23_axb_Step-8.wav","S9","23","axb","8","CN","MI","S9-MI","0","1","false"
"null","","fixation","html-keyboard-response","33","195300","0.0-9.0-0.3","5efc9e6602650605d21ca962","condD","","<div class=""vertical-center"" style='width:60%;'><img src=""resources/images/US_flag_100x52.jpg"" style=""width:100px;height:52px;opacity:0.35;""> <br> <br> <p style='font-weight:bold;'>Does the middle word sound more like the first word (A) or the last word (B)?</p> <br> <div class=""container""> <div id=""a-box""> <p class=""title-text"">A</h3></p> </div> <div id=""x-box""> <p class=""title-text"">X<p> </div> <div id=""b-box""> <p class=""title-text"">B</p></div> <br> <div style='float: left;padding-left:30px;'><p>Press '1' for A</p></div><div style='float: right;padding-right:30px;'><p>Press '0' for B</p> </div> </div></div>","null","","","","","","","","","","","","","","","",""
"3486","","test","audio-keyboard-response","34","198788","0.0-9.0-1.3","5efc9e6602650605d21ca962","condD","","resources/audio/wordStim/S9_AI_25_axb_Step-5.wav","49","","","","","","resources/audio/wordStim/S9_AI_25_axb_Step-5.wav","S9","25","axb","5","CN","MI","S9-MI","0","1","false"
"null","","fixation","html-keyboard-response","35","199792","0.0-9.0-0.4","5efc9e6602650605d21ca962","condD","","<div class=""vertical-center"" style='width:60%;'><img src=""resources/images/US_flag_100x52.jpg"" style=""width:100px;height:52px;opacity:0.35;""> <br> <br> <p style='font-weight:bold;'>Does the middle word sound more like the first word (A) or the last word (B)?</p> <br> <div class=""container""> <div id=""a-box""> <p class=""title-text"">A</h3></p> </div> <div id=""x-box""> <p class=""title-text"">X<p> </div> <div id=""b-box""> <p class=""title-text"">B</p></div> <br> <div style='float: left;padding-left:30px;'><p>Press '1' for A</p></div><div style='float: right;padding-right:30px;'><p>Press '0' for B</p> </div> </div></div>","null","","","","","","","","","","","","","","","",""
"3207","","test","audio-keyboard-response","36","203002","0.0-9.0-1.4","5efc9e6602650605d21ca962","condD","","resources/audio/wordStim/S9_AU_20_axb_Step-3.wav","49","","","","","","resources/audio/wordStim/S9_AU_20_axb_Step-3.wav","S9","20","axb","3","CN","MI","S9-MI","0","1","false"
"null","","fixation","html-keyboard-response","37","204004","0.0-9.0-0.5","5efc9e6602650605d21ca962","condD","","<div class=""vertical-center"" style='width:60%;'><img src=""resources/images/US_flag_100x52.jpg"" style=""width:100px;height:52px;opacity:0.35;""> <br> <br> <p style='font-weight:bold;'>Does the middle word sound more like the first word (A) or the last word (B)?</p> <br> <div class=""container""> <div id=""a-box""> <p class=""title-text"">A</h3></p> </div> <div id=""x-box""> <p class=""title-text"">X<p> </div> <div id=""b-box""> <p class=""title-text"">B</p></div> <br> <div style='float: left;padding-left:30px;'><p>Press '1' for A</p></div><div style='float: right;padding-right:30px;'><p>Press '0' for B</p> </div> </div></div>","null","","","","","","","","","","","","","","","",""
"3474","","test","audio-keyboard-response","38","207481","0.0-9.0-1.5","5efc9e6602650605d21ca962","condD","","resources/audio/wordStim/S9_AI_23_axb_Step-5.wav","49","","","","","","resources/audio/wordStim/S9_AI_23_axb_Step-5.wav","S9","23","axb","5","CN","MI","S9-MI","0","1","false"
"null","","fixation","html-keyboard-response","39","208484","0.0-9.0-0.6","5efc9e6602650605d21ca962","condD","","<div class=""vertical-center"" style='width:60%;'><img src=""resources/images/US_flag_100x52.jpg"" style=""width:100px;height:52px;opacity:0.35;""> <br> <br> <p style='font-weight:bold;'>Does the middle word sound more like the first word (A) or the last word (B)?</p> <br> <div class=""container""> <div id=""a-box""> <p class=""title-text"">A</h3></p> </div> <div id=""x-box""> <p class=""title-text"">X<p> </div> <div id=""b-box""> <p class=""title-text"">B</p></div> <br> <div style='float: left;padding-left:30px;'><p>Press '1' for A</p></div><div style='float: right;padding-right:30px;'><p>Press '0' for B</p> </div> </div></div>","null","","","","","","","","","","","","","","","",""
"3289","","test","audio-keyboard-response","40","211776","0.0-9.0-1.6","5efc9e6602650605d21ca962","condD","","resources/audio/wordStim/S9_AU_20_axb_Step-8.wav","49","","","","","","resources/audio/wordStim/S9_AU_20_axb_Step-8.wav","S9","20","axb","8","CN","MI","S9-MI","0","1","false"
"null","","fixation","html-keyboard-response","41","212779","0.0-9.0-0.7","5efc9e6602650605d21ca962","condD","","<div class=""vertical-center"" style='width:60%;'><img src=""resources/images/US_flag_100x52.jpg"" style=""width:100px;height:52px;opacity:0.35;""> <br> <br> <p style='font-weight:bold;'>Does the middle word sound more like the first word (A) or the last word (B)?</p> <br> <div class=""container""> <div id=""a-box""> <p class=""title-text"">A</h3></p> </div> <div id=""x-box""> <p class=""title-text"">X<p> </div> <div id=""b-box""> <p class=""title-text"">B</p></div> <br> <div style='float: left;padding-left:30px;'><p>Press '1' for A</p></div><div style='float: right;padding-right:30px;'><p>Press '0' for B</p> </div> </div></div>","null","","","","","","","","","","","","","","","",""
"3640","","test","audio-keyboard-response","42","216419","0.0-9.0-1.7","5efc9e6602650605d21ca962","condD","","resources/audio/wordStim/S9_AU_18_bxa_Step-4.wav","49","","","","","","resources/audio/wordStim/S9_AU_18_bxa_Step-4.wav","S9","18","bxa","4","CN","MI","S9-MI","1","1","true"
"null","","fixation","html-keyboard-response","43","217423","0.0-9.0-0.8","5efc9e6602650605d21ca962","condD","","<div class=""vertical-center"" style='width:60%;'><img src=""resources/images/US_flag_100x52.jpg"" style=""width:100px;height:52px;opacity:0.35;""> <br> <br> <p style='font-weight:bold;'>Does the middle word sound more like the first word (A) or the last word (B)?</p> <br> <div class=""container""> <div id=""a-box""> <p class=""title-text"">A</h3></p> </div> <div id=""x-box""> <p class=""title-text"">X<p> </div> <div id=""b-box""> <p class=""title-text"">B</p></div> <br> <div style='float: left;padding-left:30px;'><p>Press '1' for A</p></div><div style='float: right;padding-right:30px;'><p>Press '0' for B</p> </div> </div></div>","null","","","","","","","","","","","","","","","",""
"4931","","test","audio-keyboard-response","44","222356","0.0-9.0-1.8","5efc9e6602650605d21ca962","condD","","resources/audio/wordStim/S9_AU_11_bxa_Step-7.wav","49","","","","","","resources/audio/wordStim/S9_AU_11_bxa_Step-7.wav","S9","11","bxa","7","CN","MI","S9-MI","1","1","true"
"null","","fixation","html-keyboard-response","45","223358","0.0-9.0-0.9","5efc9e6602650605d21ca962","condD","","<div class=""vertical-center"" style='width:60%;'><img src=""resources/images/US_flag_100x52.jpg"" style=""width:100px;height:52px;opacity:0.35;""> <br> <br> <p style='font-weight:bold;'>Does the middle word sound more like the first word (A) or the last word (B)?</p> <br> <div class=""container""> <div id=""a-box""> <p class=""title-text"">A</h3></p> </div> <div id=""x-box""> <p class=""title-text"">X<p> </div> <div id=""b-box""> <p class=""title-text"">B</p></div> <br> <div style='float: left;padding-left:30px;'><p>Press '1' for A</p></div><div style='float: right;padding-right:30px;'><p>Press '0' for B</p> </div> </div></div>","null","","","","","","","","","","","","","","","",""
"3039","","test","audio-keyboard-response","46","226398","0.0-9.0-1.9","5efc9e6602650605d21ca962","condD","","resources/audio/wordStim/S9_AU_20_axb_Step-6.wav","49","","","","","","resources/audio/wordStim/S9_AU_20_axb_Step-6.wav","S9","20","axb","6","CN","MI","S9-MI","0","1","false"
"null","","fixation","html-keyboard-response","47","227401","0.0-9.0-0.10","5efc9e6602650605d21ca962","condD","","<div class=""vertical-center"" style='width:60%;'><img src=""resources/images/US_flag_100x52.jpg"" style=""width:100px;height:52px;opacity:0.35;""> <br> <br> <p style='font-weight:bold;'>Does the middle word sound more like the first word (A) or the last word (B)?</p> <br> <div class=""container""> <div id=""a-box""> <p class=""title-text"">A</h3></p> </div> <div id=""x-box""> <p class=""title-text"">X<p> </div> <div id=""b-box""> <p class=""title-text"">B</p></div> <br> <div style='float: left;padding-left:30px;'><p>Press '1' for A</p></div><div style='float: right;padding-right:30px;'><p>Press '0' for B</p> </div> </div></div>","null","","","","","","","","","","","","","","","",""
"3233","","test","audio-keyboard-response","48","230637","0.0-9.0-1.10","5efc9e6602650605d21ca962","condD","","resources/audio/wordStim/S9_AI_25_axb_Step-6.wav","49","","","","","","resources/audio/wordStim/S9_AI_25_axb_Step-6.wav","S9","25","axb","6","CN","MI","S9-MI","0","1","false"
"null","","fixation","html-keyboard-response","49","231641","0.0-9.0-0.11","5efc9e6602650605d21ca962","condD","","<div class=""vertical-center"" style='width:60%;'><img src=""resources/images/US_flag_100x52.jpg"" style=""width:100px;height:52px;opacity:0.35;""> <br> <br> <p style='font-weight:bold;'>Does the middle word sound more like the first word (A) or the last word (B)?</p> <br> <div class=""container""> <div id=""a-box""> <p class=""title-text"">A</h3></p> </div> <div id=""x-box""> <p class=""title-text"">X<p> </div> <div id=""b-box""> <p class=""title-text"">B</p></div> <br> <div style='float: left;padding-left:30px;'><p>Press '1' for A</p></div><div style='float: right;padding-right:30px;'><p>Press '0' for B</p> </div> </div></div>","null","","","","","","","","","","","","","","","",""
"2955","","test","audio-keyboard-response","50","234599","0.0-9.0-1.11","5efc9e6602650605d21ca962","condD","","resources/audio/wordStim/S9_AU_20_axb_Step-5.wav","49","","","","","","resources/audio/wordStim/S9_AU_20_axb_Step-5.wav","S9","20","axb","5","CN","MI","S9-MI","0","1","false"
"null","","fixation","html-keyboard-response","51","235602","0.0-9.0-0.12","5efc9e6602650605d21ca962","condD","","<div class=""vertical-center"" style='width:60%;'><img src=""resources/images/US_flag_100x52.jpg"" style=""width:100px;height:52px;opacity:0.35;""> <br> <br> <p style='font-weight:bold;'>Does the middle word sound more like the first word (A) or the last word (B)?</p> <br> <div class=""container""> <div id=""a-box""> <p class=""title-text"">A</h3></p> </div> <div id=""x-box""> <p class=""title-text"">X<p> </div> <div id=""b-box""> <p class=""title-text"">B</p></div> <br> <div style='float: left;padding-left:30px;'><p>Press '1' for A</p></div><div style='float: right;padding-right:30px;'><p>Press '0' for B</p> </div> </div></div>","null","","","","","","","","","","","","","","","",""
"2807","","test","audio-keyboard-response","52","238408","0.0-9.0-1.12","5efc9e6602650605d21ca962","condD","","resources/audio/wordStim/S9_AU_20_bxa_Step-8.wav","49","","","","","","resources/audio/wordStim/S9_AU_20_bxa_Step-8.wav","S9","20","bxa","8","CN","MI","S9-MI","1","1","true"
"null","","fixation","html-keyboard-response","53","239411","0.0-9.0-0.13","5efc9e6602650605d21ca962","condD","","<div class=""vertical-center"" style='width:60%;'><img src=""resources/images/US_flag_100x52.jpg"" style=""width:100px;height:52px;opacity:0.35;""> <br> <br> <p style='font-weight:bold;'>Does the middle word sound more like the first word (A) or the last word (B)?</p> <br> <div class=""container""> <div id=""a-box""> <p class=""title-text"">A</h3></p> </div> <div id=""x-box""> <p class=""title-text"">X<p> </div> <div id=""b-box""> <p class=""title-text"">B</p></div> <br> <div style='float: left;padding-left:30px;'><p>Press '1' for A</p></div><div style='float: right;padding-right:30px;'><p>Press '0' for B</p> </div> </div></div>","null","","","","","","","","","","","","","","","",""
"2833","","test","audio-keyboard-response","54","242247","0.0-9.0-1.13","5efc9e6602650605d21ca962","condD","","resources/audio/wordStim/S9_AU_20_bxa_Step-5.wav","49","","","","","","resources/audio/wordStim/S9_AU_20_bxa_Step-5.wav","S9","20","bxa","5","CN","MI","S9-MI","1","1","true"
"null","","fixation","html-keyboard-response","55","243251","0.0-9.0-0.14","5efc9e6602650605d21ca962","condD","","<div class=""vertical-center"" style='width:60%;'><img src=""resources/images/US_flag_100x52.jpg"" style=""width:100px;height:52px;opacity:0.35;""> <br> <br> <p style='font-weight:bold;'>Does the middle word sound more like the first word (A) or the last word (B)?</p> <br> <div class=""container""> <div id=""a-box""> <p class=""title-text"">A</h3></p> </div> <div id=""x-box""> <p class=""title-text"">X<p> </div> <div id=""b-box""> <p class=""title-text"">B</p></div> <br> <div style='float: left;padding-left:30px;'><p>Press '1' for A</p></div><div style='float: right;padding-right:30px;'><p>Press '0' for B</p> </div> </div></div>","null","","","","","","","","","","","","","","","",""
"3660","","test","audio-keyboard-response","56","246912","0.0-9.0-1.14","5efc9e6602650605d21ca962","condD","","resources/audio/wordStim/S9_AU_18_axb_Step-7.wav","48","","","","","","resources/audio/wordStim/S9_AU_18_axb_Step-7.wav","S9","18","axb","7","CN","MI","S9-MI","0","0","true"
"null","","fixation","html-keyboard-response","57","247916","0.0-9.0-0.15","5efc9e6602650605d21ca962","condD","","<div class=""vertical-center"" style='width:60%;'><img src=""resources/images/US_flag_100x52.jpg"" style=""width:100px;height:52px;opacity:0.35;""> <br> <br> <p style='font-weight:bold;'>Does the middle word sound more like the first word (A) or the last word (B)?</p> <br> <div class=""container""> <div id=""a-box""> <p class=""title-text"">A</h3></p> </div> <div id=""x-box""> <p class=""title-text"">X<p> </div> <div id=""b-box""> <p class=""title-text"">B</p></div> <br> <div style='float: left;padding-left:30px;'><p>Press '1' for A</p></div><div style='float: right;padding-right:30px;'><p>Press '0' for B</p> </div> </div></div>","null","","","","","","","","","","","","","","","",""
"3419","","test","audio-keyboard-response","58","251337","0.0-9.0-1.15","5efc9e6602650605d21ca962","condD","","resources/audio/wordStim/S9_AU_18_bxa_Step-8.wav","49","","","","","","resources/audio/wordStim/S9_AU_18_bxa_Step-8.wav","S9","18","bxa","8","CN","MI","S9-MI","1","1","true"
"null","","fixation","html-keyboard-response","59","252341","0.0-9.0-0.16","5efc9e6602650605d21ca962","condD","","<div class=""vertical-center"" style='width:60%;'><img src=""resources/images/US_flag_100x52.jpg"" style=""width:100px;height:52px;opacity:0.35;""> <br> <br> <p style='font-weight:bold;'>Does the middle word sound more like the first word (A) or the last word (B)?</p> <br> <div class=""container""> <div id=""a-box""> <p class=""title-text"">A</h3></p> </div> <div id=""x-box""> <p class=""title-text"">X<p> </div> <div id=""b-box""> <p class=""title-text"">B</p></div> <br> <div style='float: left;padding-left:30px;'><p>Press '1' for A</p></div><div style='float: right;padding-right:30px;'><p>Press '0' for B</p> </div> </div></div>","null","","","","","","","","","","","","","","","",""
"3071","","test","audio-keyboard-response","60","255415","0.0-9.0-1.16","5efc9e6602650605d21ca962","condD","","resources/audio/wordStim/S9_AI_23_bxa_Step-3.wav","49","","","","","","resources/audio/wordStim/S9_AI_23_bxa_Step-3.wav","S9","23","bxa","3","CN","MI","S9-MI","1","1","true"
"null","","fixation","html-keyboard-response","61","256417","0.0-9.0-0.17","5efc9e6602650605d21ca962","condD","","<div class=""vertical-center"" style='width:60%;'><img src=""resources/images/US_flag_100x52.jpg"" style=""width:100px;height:52px;opacity:0.35;""> <br> <br> <p style='font-weight:bold;'>Does the middle word sound more like the first word (A) or the last word (B)?</p> <br> <div class=""container""> <div id=""a-box""> <p class=""title-text"">A</h3></p> </div> <div id=""x-box""> <p class=""title-text"">X<p> </div> <div id=""b-box""> <p class=""title-text"">B</p></div> <br> <div style='float: left;padding-left:30px;'><p>Press '1' for A</p></div><div style='float: right;padding-right:30px;'><p>Press '0' for B</p> </div> </div></div>","null","","","","","","","","","","","","","","","",""
"3364","","test","audio-keyboard-response","62","259783","0.0-9.0-1.17","5efc9e6602650605d21ca962","condD","","resources/audio/wordStim/S9_AU_11_bxa_Step-2.wav","49","","","","","","resources/audio/wordStim/S9_AU_11_bxa_Step-2.wav","S9","11","bxa","2","CN","MI","S9-MI","1","1","true"
"null","","fixation","html-keyboard-response","63","260787","0.0-9.0-0.18","5efc9e6602650605d21ca962","condD","","<div class=""vertical-center"" style='width:60%;'><img src=""resources/images/US_flag_100x52.jpg"" style=""width:100px;height:52px;opacity:0.35;""> <br> <br> <p style='font-weight:bold;'>Does the middle word sound more like the first word (A) or the last word (B)?</p> <br> <div class=""container""> <div id=""a-box""> <p class=""title-text"">A</h3></p> </div> <div id=""x-box""> <p class=""title-text"">X<p> </div> <div id=""b-box""> <p class=""title-text"">B</p></div> <br> <div style='float: left;padding-left:30px;'><p>Press '1' for A</p></div><div style='float: right;padding-right:30px;'><p>Press '0' for B</p> </div> </div></div>","null","","","","","","","","","","","","","","","",""
"3132","","test","audio-keyboard-response","64","263921","0.0-9.0-1.18","5efc9e6602650605d21ca962","condD","","resources/audio/wordStim/S9_AI_29_bxa_Step-3.wav","49","","","","","","resources/audio/wordStim/S9_AI_29_bxa_Step-3.wav","S9","29","bxa","3","CN","MI","S9-MI","1","1","true"
"null","","fixation","html-keyboard-response","65","264924","0.0-9.0-0.19","5efc9e6602650605d21ca962","condD","","<div class=""vertical-center"" style='width:60%;'><img src=""resources/images/US_flag_100x52.jpg"" style=""width:100px;height:52px;opacity:0.35;""> <br> <br> <p style='font-weight:bold;'>Does the middle word sound more like the first word (A) or the last word (B)?</p> <br> <div class=""container""> <div id=""a-box""> <p class=""title-text"">A</h3></p> </div> <div id=""x-box""> <p class=""title-text"">X<p> </div> <div id=""b-box""> <p class=""title-text"">B</p></div> <br> <div style='float: left;padding-left:30px;'><p>Press '1' for A</p></div><div style='float: right;padding-right:30px;'><p>Press '0' for B</p> </div> </div></div>","null","","","","","","","","","","","","","","","",""
"2949","","test","audio-keyboard-response","66","267874","0.0-9.0-1.19","5efc9e6602650605d21ca962","condD","","resources/audio/wordStim/S9_AI_23_bxa_Step-4.wav","49","","","","","","resources/audio/wordStim/S9_AI_23_bxa_Step-4.wav","S9","23","bxa","4","CN","MI","S9-MI","1","1","true"
"null","","fixation","html-keyboard-response","67","268877","0.0-9.0-0.20","5efc9e6602650605d21ca962","condD","","<div class=""vertical-center"" style='width:60%;'><img src=""resources/images/US_flag_100x52.jpg"" style=""width:100px;height:52px;opacity:0.35;""> <br> <br> <p style='font-weight:bold;'>Does the middle word sound more like the first word (A) or the last word (B)?</p> <br> <div class=""container""> <div id=""a-box""> <p class=""title-text"">A</h3></p> </div> <div id=""x-box""> <p class=""title-text"">X<p> </div> <div id=""b-box""> <p class=""title-text"">B</p></div> <br> <div style='float: left;padding-left:30px;'><p>Press '1' for A</p></div><div style='float: right;padding-right:30px;'><p>Press '0' for B</p> </div> </div></div>","null","","","","","","","","","","","","","","","",""
"3361","","test","audio-keyboard-response","68","272240","0.0-9.0-1.20","5efc9e6602650605d21ca962","condD","","resources/audio/wordStim/S9_AU_18_bxa_Step-7.wav","49","","","","","","resources/audio/wordStim/S9_AU_18_bxa_Step-7.wav","S9","18","bxa","7","CN","MI","S9-MI","1","1","true"
"3512","","break","html-keyboard-response","69","276253","0.0-9.0-2.20-0.20","5efc9e6602650605d21ca962","condD","","<div class=""vertical-center""><p>Feel free to take a break!</p><i>When you're ready to continue, press SPACE to begin the next trial.</i></p></div>","32","","","","","","","","","","","","","","","",""
"null","","fixation","html-keyboard-response","70","276754","0.0-9.0-0.21","5efc9e6602650605d21ca962","condD","","<div class=""vertical-center"" style='width:60%;'><img src=""resources/images/US_flag_100x52.jpg"" style=""width:100px;height:52px;opacity:0.35;""> <br> <br> <p style='font-weight:bold;'>Does the middle word sound more like the first word (A) or the last word (B)?</p> <br> <div class=""container""> <div id=""a-box""> <p class=""title-text"">A</h3></p> </div> <div id=""x-box""> <p class=""title-text"">X<p> </div> <div id=""b-box""> <p class=""title-text"">B</p></div> <br> <div style='float: left;padding-left:30px;'><p>Press '1' for A</p></div><div style='float: right;padding-right:30px;'><p>Press '0' for B</p> </div> </div></div>","null","","","","","","","","","","","","","","","",""
"3852","","test","audio-keyboard-response","71","280608","0.0-9.0-1.21","5efc9e6602650605d21ca962","condD","","resources/audio/wordStim/S9_AU_18_axb_Step-5.wav","49","","","","","","resources/audio/wordStim/S9_AU_18_axb_Step-5.wav","S9","18","axb","5","CN","MI","S9-MI","0","1","false"
"null","","fixation","html-keyboard-response","72","281610","0.0-9.0-0.22","5efc9e6602650605d21ca962","condD","","<div class=""vertical-center"" style='width:60%;'><img src=""resources/images/US_flag_100x52.jpg"" style=""width:100px;height:52px;opacity:0.35;""> <br> <br> <p style='font-weight:bold;'>Does the middle word sound more like the first word (A) or the last word (B)?</p> <br> <div class=""container""> <div id=""a-box""> <p class=""title-text"">A</h3></p> </div> <div id=""x-box""> <p class=""title-text"">X<p> </div> <div id=""b-box""> <p class=""title-text"">B</p></div> <br> <div style='float: left;padding-left:30px;'><p>Press '1' for A</p></div><div style='float: right;padding-right:30px;'><p>Press '0' for B</p> </div> </div></div>","null","","","","","","","","","","","","","","","",""
"3721","","test","audio-keyboard-response","73","285332","0.0-9.0-1.22","5efc9e6602650605d21ca962","condD","","resources/audio/wordStim/S9_AI_25_axb_Step-8.wav","49","","","","","","resources/audio/wordStim/S9_AI_25_axb_Step-8.wav","S9","25","axb","8","CN","MI","S9-MI","0","1","false"
"null","","fixation","html-keyboard-response","74","286336","0.0-9.0-0.23","5efc9e6602650605d21ca962","condD","","<div class=""vertical-center"" style='width:60%;'><img src=""resources/images/US_flag_100x52.jpg"" style=""width:100px;height:52px;opacity:0.35;""> <br> <br> <p style='font-weight:bold;'>Does the middle word sound more like the first word (A) or the last word (B)?</p> <br> <div class=""container""> <div id=""a-box""> <p class=""title-text"">A</h3></p> </div> <div id=""x-box""> <p class=""title-text"">X<p> </div> <div id=""b-box""> <p class=""title-text"">B</p></div> <br> <div style='float: left;padding-left:30px;'><p>Press '1' for A</p></div><div style='float: right;padding-right:30px;'><p>Press '0' for B</p> </div> </div></div>","null","","","","","","","","","","","","","","","",""
"3503","","test","audio-keyboard-response","75","289841","0.0-9.0-1.23","5efc9e6602650605d21ca962","condD","","resources/audio/wordStim/S9_AU_11_bxa_Step-3.wav","49","","","","","","resources/audio/wordStim/S9_AU_11_bxa_Step-3.wav","S9","11","bxa","3","CN","MI","S9-MI","1","1","true"
"null","","fixation","html-keyboard-response","76","290845","0.0-9.0-0.24","5efc9e6602650605d21ca962","condD","","<div class=""vertical-center"" style='width:60%;'><img src=""resources/images/US_flag_100x52.jpg"" style=""width:100px;height:52px;opacity:0.35;""> <br> <br> <p style='font-weight:bold;'>Does the middle word sound more like the first word (A) or the last word (B)?</p> <br> <div class=""container""> <div id=""a-box""> <p class=""title-text"">A</h3></p> </div> <div id=""x-box""> <p class=""title-text"">X<p> </div> <div id=""b-box""> <p class=""title-text"">B</p></div> <br> <div style='float: left;padding-left:30px;'><p>Press '1' for A</p></div><div style='float: right;padding-right:30px;'><p>Press '0' for B</p> </div> </div></div>","null","","","","","","","","","","","","","","","",""
"3460","","test","audio-keyboard-response","77","294308","0.0-9.0-1.24","5efc9e6602650605d21ca962","condD","","resources/audio/wordStim/S9_AI_29_bxa_Step-5.wav","49","","","","","","resources/audio/wordStim/S9_AI_29_bxa_Step-5.wav","S9","29","bxa","5","CN","MI","S9-MI","1","1","true"
"null","","fixation","html-keyboard-response","78","295312","0.0-9.0-0.25","5efc9e6602650605d21ca962","condD","","<div class=""vertical-center"" style='width:60%;'><img src=""resources/images/US_flag_100x52.jpg"" style=""width:100px;height:52px;opacity:0.35;""> <br> <br> <p style='font-weight:bold;'>Does the middle word sound more like the first word (A) or the last word (B)?</p> <br> <div class=""container""> <div id=""a-box""> <p class=""title-text"">A</h3></p> </div> <div id=""x-box""> <p class=""title-text"">X<p> </div> <div id=""b-box""> <p class=""title-text"">B</p></div> <br> <div style='float: left;padding-left:30px;'><p>Press '1' for A</p></div><div style='float: right;padding-right:30px;'><p>Press '0' for B</p> </div> </div></div>","null","","","","","","","","","","","","","","","",""
"3091","","test","audio-keyboard-response","79","298406","0.0-9.0-1.25","5efc9e6602650605d21ca962","condD","","resources/audio/wordStim/S9_AI_25_bxa_Step-8.wav","49","","","","","","resources/audio/wordStim/S9_AI_25_bxa_Step-8.wav","S9","25","bxa","8","CN","MI","S9-MI","1","1","true"
"null","","fixation","html-keyboard-response","80","299410","0.0-9.0-0.26","5efc9e6602650605d21ca962","condD","","<div class=""vertical-center"" style='width:60%;'><img src=""resources/images/US_flag_100x52.jpg"" style=""width:100px;height:52px;opacity:0.35;""> <br> <br> <p style='font-weight:bold;'>Does the middle word sound more like the first word (A) or the last word (B)?</p> <br> <div class=""container""> <div id=""a-box""> <p class=""title-text"">A</h3></p> </div> <div id=""x-box""> <p class=""title-text"">X<p> </div> <div id=""b-box""> <p class=""title-text"">B</p></div> <br> <div style='float: left;padding-left:30px;'><p>Press '1' for A</p></div><div style='float: right;padding-right:30px;'><p>Press '0' for B</p> </div> </div></div>","null","","","","","","","","","","","","","","","",""
"2905","","test","audio-keyboard-response","81","302318","0.0-9.0-1.26","5efc9e6602650605d21ca962","condD","","resources/audio/wordStim/S9_AU_20_bxa_Step-6.wav","49","","","","","","resources/audio/wordStim/S9_AU_20_bxa_Step-6.wav","S9","20","bxa","6","CN","MI","S9-MI","1","1","true"
"null","","fixation","html-keyboard-response","82","303321","0.0-9.0-0.27","5efc9e6602650605d21ca962","condD","","<div class=""vertical-center"" style='width:60%;'><img src=""resources/images/US_flag_100x52.jpg"" style=""width:100px;height:52px;opacity:0.35;""> <br> <br> <p style='font-weight:bold;'>Does the middle word sound more like the first word (A) or the last word (B)?</p> <br> <div class=""container""> <div id=""a-box""> <p class=""title-text"">A</h3></p> </div> <div id=""x-box""> <p class=""title-text"">X<p> </div> <div id=""b-box""> <p class=""title-text"">B</p></div> <br> <div style='float: left;padding-left:30px;'><p>Press '1' for A</p></div><div style='float: right;padding-right:30px;'><p>Press '0' for B</p> </div> </div></div>","null","","","","","","","","","","","","","","","",""
"3196","","test","audio-keyboard-response","83","306517","0.0-9.0-1.27","5efc9e6602650605d21ca962","condD","","resources/audio/wordStim/S9_AI_29_bxa_Step-7.wav","48","","","","","","resources/audio/wordStim/S9_AI_29_bxa_Step-7.wav","S9","29","bxa","7","CN","MI","S9-MI","1","0","false"
"null","","fixation","html-keyboard-response","84","307523","0.0-9.0-0.28","5efc9e6602650605d21ca962","condD","","<div class=""vertical-center"" style='width:60%;'><img src=""resources/images/US_flag_100x52.jpg"" style=""width:100px;height:52px;opacity:0.35;""> <br> <br> <p style='font-weight:bold;'>Does the middle word sound more like the first word (A) or the last word (B)?</p> <br> <div class=""container""> <div id=""a-box""> <p class=""title-text"">A</h3></p> </div> <div id=""x-box""> <p class=""title-text"">X<p> </div> <div id=""b-box""> <p class=""title-text"">B</p></div> <br> <div style='float: left;padding-left:30px;'><p>Press '1' for A</p></div><div style='float: right;padding-right:30px;'><p>Press '0' for B</p> </div> </div></div>","null","","","","","","","","","","","","","","","",""
"3117","","test","audio-keyboard-response","85","310642","0.0-9.0-1.28","5efc9e6602650605d21ca962","condD","","resources/audio/wordStim/S9_AI_23_bxa_Step-2.wav","49","","","","","","resources/audio/wordStim/S9_AI_23_bxa_Step-2.wav","S9","23","bxa","2","CN","MI","S9-MI","1","1","true"
"null","","fixation","html-keyboard-response","86","311645","0.0-9.0-0.29","5efc9e6602650605d21ca962","condD","","<div class=""vertical-center"" style='width:60%;'><img src=""resources/images/US_flag_100x52.jpg"" style=""width:100px;height:52px;opacity:0.35;""> <br> <br> <p style='font-weight:bold;'>Does the middle word sound more like the first word (A) or the last word (B)?</p> <br> <div class=""container""> <div id=""a-box""> <p class=""title-text"">A</h3></p> </div> <div id=""x-box""> <p class=""title-text"">X<p> </div> <div id=""b-box""> <p class=""title-text"">B</p></div> <br> <div style='float: left;padding-left:30px;'><p>Press '1' for A</p></div><div style='float: right;padding-right:30px;'><p>Press '0' for B</p> </div> </div></div>","null","","","","","","","","","","","","","","","",""
"3187","","test","audio-keyboard-response","87","314832","0.0-9.0-1.29","5efc9e6602650605d21ca962","condD","","resources/audio/wordStim/S9_AI_25_bxa_Step-3.wav","49","","","","","","resources/audio/wordStim/S9_AI_25_bxa_Step-3.wav","S9","25","bxa","3","CN","MI","S9-MI","1","1","true"
"null","","fixation","html-keyboard-response","88","315836","0.0-9.0-0.30","5efc9e6602650605d21ca962","condD","","<div class=""vertical-center"" style='width:60%;'><img src=""resources/images/US_flag_100x52.jpg"" style=""width:100px;height:52px;opacity:0.35;""> <br> <br> <p style='font-weight:bold;'>Does the middle word sound more like the first word (A) or the last word (B)?</p> <br> <div class=""container""> <div id=""a-box""> <p class=""title-text"">A</h3></p> </div> <div id=""x-box""> <p class=""title-text"">X<p> </div> <div id=""b-box""> <p class=""title-text"">B</p></div> <br> <div style='float: left;padding-left:30px;'><p>Press '1' for A</p></div><div style='float: right;padding-right:30px;'><p>Press '0' for B</p> </div> </div></div>","null","","","","","","","","","","","","","","","",""
"3271","","test","audio-keyboard-response","89","319110","0.0-9.0-1.30","5efc9e6602650605d21ca962","condD","","resources/audio/wordStim/S9_AI_23_axb_Step-3.wav","48","","","","","","resources/audio/wordStim/S9_AI_23_axb_Step-3.wav","S9","23","axb","3","CN","MI","S9-MI","0","0","true"
"null","","fixation","html-keyboard-response","90","320114","0.0-9.0-0.31","5efc9e6602650605d21ca962","condD","","<div class=""vertical-center"" style='width:60%;'><img src=""resources/images/US_flag_100x52.jpg"" style=""width:100px;height:52px;opacity:0.35;""> <br> <br> <p style='font-weight:bold;'>Does the middle word sound more like the first word (A) or the last word (B)?</p> <br> <div class=""container""> <div id=""a-box""> <p class=""title-text"">A</h3></p> </div> <div id=""x-box""> <p class=""title-text"">X<p> </div> <div id=""b-box""> <p class=""title-text"">B</p></div> <br> <div style='float: left;padding-left:30px;'><p>Press '1' for A</p></div><div style='float: right;padding-right:30px;'><p>Press '0' for B</p> </div> </div></div>","null","","","","","","","","","","","","","","","",""
"3152","","test","audio-keyboard-response","91","323268","0.0-9.0-1.31","5efc9e6602650605d21ca962","condD","","resources/audio/wordStim/S9_AI_23_bxa_Step-8.wav","49","","","","","","resources/audio/wordStim/S9_AI_23_bxa_Step-8.wav","S9","23","bxa","8","CN","MI","S9-MI","1","1","true"
"null","","fixation","html-keyboard-response","92","324271","0.0-9.0-0.32","5efc9e6602650605d21ca962","condD","","<div class=""vertical-center"" style='width:60%;'><img src=""resources/images/US_flag_100x52.jpg"" style=""width:100px;height:52px;opacity:0.35;""> <br> <br> <p style='font-weight:bold;'>Does the middle word sound more like the first word (A) or the last word (B)?</p> <br> <div class=""container""> <div id=""a-box""> <p class=""title-text"">A</h3></p> </div> <div id=""x-box""> <p class=""title-text"">X<p> </div> <div id=""b-box""> <p class=""title-text"">B</p></div> <br> <div style='float: left;padding-left:30px;'><p>Press '1' for A</p></div><div style='float: right;padding-right:30px;'><p>Press '0' for B</p> </div> </div></div>","null","","","","","","","","","","","","","","","",""
"2911","","test","audio-keyboard-response","93","327183","0.0-9.0-1.32","5efc9e6602650605d21ca962","condD","","resources/audio/wordStim/S9_AU_20_bxa_Step-3.wav","49","","","","","","resources/audio/wordStim/S9_AU_20_bxa_Step-3.wav","S9","20","bxa","3","CN","MI","S9-MI","1","1","true"
"null","","fixation","html-keyboard-response","94","328186","0.0-9.0-0.33","5efc9e6602650605d21ca962","condD","","<div class=""vertical-center"" style='width:60%;'><img src=""resources/images/US_flag_100x52.jpg"" style=""width:100px;height:52px;opacity:0.35;""> <br> <br> <p style='font-weight:bold;'>Does the middle word sound more like the first word (A) or the last word (B)?</p> <br> <div class=""container""> <div id=""a-box""> <p class=""title-text"">A</h3></p> </div> <div id=""x-box""> <p class=""title-text"">X<p> </div> <div id=""b-box""> <p class=""title-text"">B</p></div> <br> <div style='float: left;padding-left:30px;'><p>Press '1' for A</p></div><div style='float: right;padding-right:30px;'><p>Press '0' for B</p> </div> </div></div>","null","","","","","","","","","","","","","","","",""
"3245","","test","audio-keyboard-response","95","331433","0.0-9.0-1.33","5efc9e6602650605d21ca962","condD","","resources/audio/wordStim/S9_AI_29_axb_Step-2.wav","49","","","","","","resources/audio/wordStim/S9_AI_29_axb_Step-2.wav","S9","29","axb","2","CN","MI","S9-MI","0","1","false"
"null","","fixation","html-keyboard-response","96","332437","0.0-9.0-0.34","5efc9e6602650605d21ca962","condD","","<div class=""vertical-center"" style='width:60%;'><img src=""resources/images/US_flag_100x52.jpg"" style=""width:100px;height:52px;opacity:0.35;""> <br> <br> <p style='font-weight:bold;'>Does the middle word sound more like the first word (A) or the last word (B)?</p> <br> <div class=""container""> <div id=""a-box""> <p class=""title-text"">A</h3></p> </div> <div id=""x-box""> <p class=""title-text"">X<p> </div> <div id=""b-box""> <p class=""title-text"">B</p></div> <br> <div style='float: left;padding-left:30px;'><p>Press '1' for A</p></div><div style='float: right;padding-right:30px;'><p>Press '0' for B</p> </div> </div></div>","null","","","","","","","","","","","","","","","",""
"3178","","test","audio-keyboard-response","97","335615","0.0-9.0-1.34","5efc9e6602650605d21ca962","condD","","resources/audio/wordStim/S9_AI_29_axb_Step-7.wav","49","","","","","","resources/audio/wordStim/S9_AI_29_axb_Step-7.wav","S9","29","axb","7","CN","MI","S9-MI","0","1","false"
"null","","fixation","html-keyboard-response","98","336619","0.0-9.0-0.35","5efc9e6602650605d21ca962","condD","","<div class=""vertical-center"" style='width:60%;'><img src=""resources/images/US_flag_100x52.jpg"" style=""width:100px;height:52px;opacity:0.35;""> <br> <br> <p style='font-weight:bold;'>Does the middle word sound more like the first word (A) or the last word (B)?</p> <br> <div class=""container""> <div id=""a-box""> <p class=""title-text"">A</h3></p> </div> <div id=""x-box""> <p class=""title-text"">X<p> </div> <div id=""b-box""> <p class=""title-text"">B</p></div> <br> <div style='float: left;padding-left:30px;'><p>Press '1' for A</p></div><div style='float: right;padding-right:30px;'><p>Press '0' for B</p> </div> </div></div>","null","","","","","","","","","","","","","","","",""
"2969","","test","audio-keyboard-response","99","339592","0.0-9.0-1.35","5efc9e6602650605d21ca962","condD","","resources/audio/wordStim/S9_AI_25_bxa_Step-6.wav","49","","","","","","resources/audio/wordStim/S9_AI_25_bxa_Step-6.wav","S9","25","bxa","6","CN","MI","S9-MI","1","1","true"
"null","","fixation","html-keyboard-response","100","340594","0.0-9.0-0.36","5efc9e6602650605d21ca962","condD","","<div class=""vertical-center"" style='width:60%;'><img src=""resources/images/US_flag_100x52.jpg"" style=""width:100px;height:52px;opacity:0.35;""> <br> <br> <p style='font-weight:bold;'>Does the middle word sound more like the first word (A) or the last word (B)?</p> <br> <div class=""container""> <div id=""a-box""> <p class=""title-text"">A</h3></p> </div> <div id=""x-box""> <p class=""title-text"">X<p> </div> <div id=""b-box""> <p class=""title-text"">B</p></div> <br> <div style='float: left;padding-left:30px;'><p>Press '1' for A</p></div><div style='float: right;padding-right:30px;'><p>Press '0' for B</p> </div> </div></div>","null","","","","","","","","","","","","","","","",""
"3091","","test","audio-keyboard-response","101","343686","0.0-9.0-1.36","5efc9e6602650605d21ca962","condD","","resources/audio/wordStim/S9_AI_25_bxa_Step-2.wav","49","","","","","","resources/audio/wordStim/S9_AI_25_bxa_Step-2.wav","S9","25","bxa","2","CN","MI","S9-MI","1","1","true"
"null","","fixation","html-keyboard-response","102","344689","0.0-9.0-0.37","5efc9e6602650605d21ca962","condD","","<div class=""vertical-center"" style='width:60%;'><img src=""resources/images/US_flag_100x52.jpg"" style=""width:100px;height:52px;opacity:0.35;""> <br> <br> <p style='font-weight:bold;'>Does the middle word sound more like the first word (A) or the last word (B)?</p> <br> <div class=""container""> <div id=""a-box""> <p class=""title-text"">A</h3></p> </div> <div id=""x-box""> <p class=""title-text"">X<p> </div> <div id=""b-box""> <p class=""title-text"">B</p></div> <br> <div style='float: left;padding-left:30px;'><p>Press '1' for A</p></div><div style='float: right;padding-right:30px;'><p>Press '0' for B</p> </div> </div></div>","null","","","","","","","","","","","","","","","",""
"3315","","test","audio-keyboard-response","103","348005","0.0-9.0-1.37","5efc9e6602650605d21ca962","condD","","resources/audio/wordStim/S9_AU_11_axb_Step-4.wav","49","","","","","","resources/audio/wordStim/S9_AU_11_axb_Step-4.wav","S9","11","axb","4","CN","MI","S9-MI","0","1","false"
"null","","fixation","html-keyboard-response","104","349008","0.0-9.0-0.38","5efc9e6602650605d21ca962","condD","","<div class=""vertical-center"" style='width:60%;'><img src=""resources/images/US_flag_100x52.jpg"" style=""width:100px;height:52px;opacity:0.35;""> <br> <br> <p style='font-weight:bold;'>Does the middle word sound more like the first word (A) or the last word (B)?</p> <br> <div class=""container""> <div id=""a-box""> <p class=""title-text"">A</h3></p> </div> <div id=""x-box""> <p class=""title-text"">X<p> </div> <div id=""b-box""> <p class=""title-text"">B</p></div> <br> <div style='float: left;padding-left:30px;'><p>Press '1' for A</p></div><div style='float: right;padding-right:30px;'><p>Press '0' for B</p> </div> </div></div>","null","","","","","","","","","","","","","","","",""
"3053","","test","audio-keyboard-response","105","352063","0.0-9.0-1.38","5efc9e6602650605d21ca962","condD","","resources/audio/wordStim/S9_AI_25_axb_Step-7.wav","49","","","","","","resources/audio/wordStim/S9_AI_25_axb_Step-7.wav","S9","25","axb","7","CN","MI","S9-MI","0","1","false"
"null","","fixation","html-keyboard-response","106","353066","0.0-9.0-0.39","5efc9e6602650605d21ca962","condD","","<div class=""vertical-center"" style='width:60%;'><img src=""resources/images/US_flag_100x52.jpg"" style=""width:100px;height:52px;opacity:0.35;""> <br> <br> <p style='font-weight:bold;'>Does the middle word sound more like the first word (A) or the last word (B)?</p> <br> <div class=""container""> <div id=""a-box""> <p class=""title-text"">A</h3></p> </div> <div id=""x-box""> <p class=""title-text"">X<p> </div> <div id=""b-box""> <p class=""title-text"">B</p></div> <br> <div style='float: left;padding-left:30px;'><p>Press '1' for A</p></div><div style='float: right;padding-right:30px;'><p>Press '0' for B</p> </div> </div></div>","null","","","","","","","","","","","","","","","",""
"3201","","test","audio-keyboard-response","107","356268","0.0-9.0-1.39","5efc9e6602650605d21ca962","condD","","resources/audio/wordStim/S9_AI_25_axb_Step-2.wav","49","","","","","","resources/audio/wordStim/S9_AI_25_axb_Step-2.wav","S9","25","axb","2","CN","MI","S9-MI","0","1","false"
"null","","fixation","html-keyboard-response","108","357271","0.0-9.0-0.40","5efc9e6602650605d21ca962","condD","","<div class=""vertical-center"" style='width:60%;'><img src=""resources/images/US_flag_100x52.jpg"" style=""width:100px;height:52px;opacity:0.35;""> <br> <br> <p style='font-weight:bold;'>Does the middle word sound more like the first word (A) or the last word (B)?</p> <br> <div class=""container""> <div id=""a-box""> <p class=""title-text"">A</h3></p> </div> <div id=""x-box""> <p class=""title-text"">X<p> </div> <div id=""b-box""> <p class=""title-text"">B</p></div> <br> <div style='float: left;padding-left:30px;'><p>Press '1' for A</p></div><div style='float: right;padding-right:30px;'><p>Press '0' for B</p> </div> </div></div>","null","","","","","","","","","","","","","","","",""
"3199","","test","audio-keyboard-response","109","360472","0.0-9.0-1.40","5efc9e6602650605d21ca962","condD","","resources/audio/wordStim/S9_AU_18_axb_Step-3.wav","48","","","","","","resources/audio/wordStim/S9_AU_18_axb_Step-3.wav","S9","18","axb","3","CN","MI","S9-MI","0","0","true"
"null","","fixation","html-keyboard-response","110","361476","0.0-9.0-0.41","5efc9e6602650605d21ca962","condD","","<div class=""vertical-center"" style='width:60%;'><img src=""resources/images/US_flag_100x52.jpg"" style=""width:100px;height:52px;opacity:0.35;""> <br> <br> <p style='font-weight:bold;'>Does the middle word sound more like the first word (A) or the last word (B)?</p> <br> <div class=""container""> <div id=""a-box""> <p class=""title-text"">A</h3></p> </div> <div id=""x-box""> <p class=""title-text"">X<p> </div> <div id=""b-box""> <p class=""title-text"">B</p></div> <br> <div style='float: left;padding-left:30px;'><p>Press '1' for A</p></div><div style='float: right;padding-right:30px;'><p>Press '0' for B</p> </div> </div></div>","null","","","","","","","","","","","","","","","",""
"3242","","test","audio-keyboard-response","111","364721","0.0-9.0-1.41","5efc9e6602650605d21ca962","condD","","resources/audio/wordStim/S9_AU_11_axb_Step-3.wav","49","","","","","","resources/audio/wordStim/S9_AU_11_axb_Step-3.wav","S9","11","axb","3","CN","MI","S9-MI","0","1","false"
"139699","","break","html-keyboard-response","112","504921","0.0-9.0-2.41-0.41","5efc9e6602650605d21ca962","condD","","<div class=""vertical-center""><p>Feel free to take a break!</p><i>When you're ready to continue, press SPACE to begin the next trial.</i></p></div>","32","","","","","","","","","","","","","","","",""
"null","","fixation","html-keyboard-response","113","505424","0.0-9.0-0.42","5efc9e6602650605d21ca962","condD","","<div class=""vertical-center"" style='width:60%;'><img src=""resources/images/US_flag_100x52.jpg"" style=""width:100px;height:52px;opacity:0.35;""> <br> <br> <p style='font-weight:bold;'>Does the middle word sound more like the first word (A) or the last word (B)?</p> <br> <div class=""container""> <div id=""a-box""> <p class=""title-text"">A</h3></p> </div> <div id=""x-box""> <p class=""title-text"">X<p> </div> <div id=""b-box""> <p class=""title-text"">B</p></div> <br> <div style='float: left;padding-left:30px;'><p>Press '1' for A</p></div><div style='float: right;padding-right:30px;'><p>Press '0' for B</p> </div> </div></div>","null","","","","","","","","","","","","","","","",""
"3733","","test","audio-keyboard-response","114","509158","0.0-9.0-1.42","5efc9e6602650605d21ca962","condD","","resources/audio/wordStim/S9_AU_20_bxa_Step-4.wav","48","","","","","","resources/audio/wordStim/S9_AU_20_bxa_Step-4.wav","S9","20","bxa","4","CN","MI","S9-MI","1","0","false"
"null","","fixation","html-keyboard-response","115","510161","0.0-9.0-0.43","5efc9e6602650605d21ca962","condD","","<div class=""vertical-center"" style='width:60%;'><img src=""resources/images/US_flag_100x52.jpg"" style=""width:100px;height:52px;opacity:0.35;""> <br> <br> <p style='font-weight:bold;'>Does the middle word sound more like the first word (A) or the last word (B)?</p> <br> <div class=""container""> <div id=""a-box""> <p class=""title-text"">A</h3></p> </div> <div id=""x-box""> <p class=""title-text"">X<p> </div> <div id=""b-box""> <p class=""title-text"">B</p></div> <br> <div style='float: left;padding-left:30px;'><p>Press '1' for A</p></div><div style='float: right;padding-right:30px;'><p>Press '0' for B</p> </div> </div></div>","null","","","","","","","","","","","","","","","",""
"3782","","test","audio-keyboard-response","116","513943","0.0-9.0-1.43","5efc9e6602650605d21ca962","condD","","resources/audio/wordStim/S9_AU_11_axb_Step-7.wav","48","","","","","","resources/audio/wordStim/S9_AU_11_axb_Step-7.wav","S9","11","axb","7","CN","MI","S9-MI","0","0","true"
"null","","fixation","html-keyboard-response","117","514947","0.0-9.0-0.44","5efc9e6602650605d21ca962","condD","","<div class=""vertical-center"" style='width:60%;'><img src=""resources/images/US_flag_100x52.jpg"" style=""width:100px;height:52px;opacity:0.35;""> <br> <br> <p style='font-weight:bold;'>Does the middle word sound more like the first word (A) or the last word (B)?</p> <br> <div class=""container""> <div id=""a-box""> <p class=""title-text"">A</h3></p> </div> <div id=""x-box""> <p class=""title-text"">X<p> </div> <div id=""b-box""> <p class=""title-text"">B</p></div> <br> <div style='float: left;padding-left:30px;'><p>Press '1' for A</p></div><div style='float: right;padding-right:30px;'><p>Press '0' for B</p> </div> </div></div>","null","","","","","","","","","","","","","","","",""
"3265","","test","audio-keyboard-response","118","518214","0.0-9.0-1.44","5efc9e6602650605d21ca962","condD","","resources/audio/wordStim/S9_AU_11_bxa_Step-5.wav","49","","","","","","resources/audio/wordStim/S9_AU_11_bxa_Step-5.wav","S9","11","bxa","5","CN","MI","S9-MI","1","1","true"
"null","","fixation","html-keyboard-response","119","519217","0.0-9.0-0.45","5efc9e6602650605d21ca962","condD","","<div class=""vertical-center"" style='width:60%;'><img src=""resources/images/US_flag_100x52.jpg"" style=""width:100px;height:52px;opacity:0.35;""> <br> <br> <p style='font-weight:bold;'>Does the middle word sound more like the first word (A) or the last word (B)?</p> <br> <div class=""container""> <div id=""a-box""> <p class=""title-text"">A</h3></p> </div> <div id=""x-box""> <p class=""title-text"">X<p> </div> <div id=""b-box""> <p class=""title-text"">B</p></div> <br> <div style='float: left;padding-left:30px;'><p>Press '1' for A</p></div><div style='float: right;padding-right:30px;'><p>Press '0' for B</p> </div> </div></div>","null","","","","","","","","","","","","","","","",""
"3570","","test","audio-keyboard-response","120","522787","0.0-9.0-1.45","5efc9e6602650605d21ca962","condD","","resources/audio/wordStim/S9_AI_29_bxa_Step-6.wav","48","","","","","","resources/audio/wordStim/S9_AI_29_bxa_Step-6.wav","S9","29","bxa","6","CN","MI","S9-MI","1","0","false"
"null","","fixation","html-keyboard-response","121","523791","0.0-9.0-0.46","5efc9e6602650605d21ca962","condD","","<div class=""vertical-center"" style='width:60%;'><img src=""resources/images/US_flag_100x52.jpg"" style=""width:100px;height:52px;opacity:0.35;""> <br> <br> <p style='font-weight:bold;'>Does the middle word sound more like the first word (A) or the last word (B)?</p> <br> <div class=""container""> <div id=""a-box""> <p class=""title-text"">A</h3></p> </div> <div id=""x-box""> <p class=""title-text"">X<p> </div> <div id=""b-box""> <p class=""title-text"">B</p></div> <br> <div style='float: left;padding-left:30px;'><p>Press '1' for A</p></div><div style='float: right;padding-right:30px;'><p>Press '0' for B</p> </div> </div></div>","null","","","","","","","","","","","","","","","",""
"3233","","test","audio-keyboard-response","122","527025","0.0-9.0-1.46","5efc9e6602650605d21ca962","condD","","resources/audio/wordStim/S9_AI_29_bxa_Step-4.wav","48","","","","","","resources/audio/wordStim/S9_AI_29_bxa_Step-4.wav","S9","29","bxa","4","CN","MI","S9-MI","1","0","false"
"null","","fixation","html-keyboard-response","123","528028","0.0-9.0-0.47","5efc9e6602650605d21ca962","condD","","<div class=""vertical-center"" style='width:60%;'><img src=""resources/images/US_flag_100x52.jpg"" style=""width:100px;height:52px;opacity:0.35;""> <br> <br> <p style='font-weight:bold;'>Does the middle word sound more like the first word (A) or the last word (B)?</p> <br> <div class=""container""> <div id=""a-box""> <p class=""title-text"">A</h3></p> </div> <div id=""x-box""> <p class=""title-text"">X<p> </div> <div id=""b-box""> <p class=""title-text"">B</p></div> <br> <div style='float: left;padding-left:30px;'><p>Press '1' for A</p></div><div style='float: right;padding-right:30px;'><p>Press '0' for B</p> </div> </div></div>","null","","","","","","","","","","","","","","","",""
"3286","","test","audio-keyboard-response","124","531316","0.0-9.0-1.47","5efc9e6602650605d21ca962","condD","","resources/audio/wordStim/S9_AU_11_axb_Step-6.wav","48","","","","","","resources/audio/wordStim/S9_AU_11_axb_Step-6.wav","S9","11","axb","6","CN","MI","S9-MI","0","0","true"
"null","","fixation","html-keyboard-response","125","532318","0.0-9.0-0.48","5efc9e6602650605d21ca962","condD","","<div class=""vertical-center"" style='width:60%;'><img src=""resources/images/US_flag_100x52.jpg"" style=""width:100px;height:52px;opacity:0.35;""> <br> <br> <p style='font-weight:bold;'>Does the middle word sound more like the first word (A) or the last word (B)?</p> <br> <div class=""container""> <div id=""a-box""> <p class=""title-text"">A</h3></p> </div> <div id=""x-box""> <p class=""title-text"">X<p> </div> <div id=""b-box""> <p class=""title-text"">B</p></div> <br> <div style='float: left;padding-left:30px;'><p>Press '1' for A</p></div><div style='float: right;padding-right:30px;'><p>Press '0' for B</p> </div> </div></div>","null","","","","","","","","","","","","","","","",""
"3036","","test","audio-keyboard-response","126","535356","0.0-9.0-1.48","5efc9e6602650605d21ca962","condD","","resources/audio/wordStim/S9_AU_20_bxa_Step-7.wav","49","","","","","","resources/audio/wordStim/S9_AU_20_bxa_Step-7.wav","S9","20","bxa","7","CN","MI","S9-MI","1","1","true"
"null","","fixation","html-keyboard-response","127","536359","0.0-9.0-0.49","5efc9e6602650605d21ca962","condD","","<div class=""vertical-center"" style='width:60%;'><img src=""resources/images/US_flag_100x52.jpg"" style=""width:100px;height:52px;opacity:0.35;""> <br> <br> <p style='font-weight:bold;'>Does the middle word sound more like the first word (A) or the last word (B)?</p> <br> <div class=""container""> <div id=""a-box""> <p class=""title-text"">A</h3></p> </div> <div id=""x-box""> <p class=""title-text"">X<p> </div> <div id=""b-box""> <p class=""title-text"">B</p></div> <br> <div style='float: left;padding-left:30px;'><p>Press '1' for A</p></div><div style='float: right;padding-right:30px;'><p>Press '0' for B</p> </div> </div></div>","null","","","","","","","","","","","","","","","",""
"3094","","test","audio-keyboard-response","128","539455","0.0-9.0-1.49","5efc9e6602650605d21ca962","condD","","resources/audio/wordStim/S9_AU_20_axb_Step-2.wav","49","","","","","","resources/audio/wordStim/S9_AU_20_axb_Step-2.wav","S9","20","axb","2","CN","MI","S9-MI","0","1","false"
"null","","fixation","html-keyboard-response","129","540457","0.0-9.0-0.50","5efc9e6602650605d21ca962","condD","","<div class=""vertical-center"" style='width:60%;'><img src=""resources/images/US_flag_100x52.jpg"" style=""width:100px;height:52px;opacity:0.35;""> <br> <br> <p style='font-weight:bold;'>Does the middle word sound more like the first word (A) or the last word (B)?</p> <br> <div class=""container""> <div id=""a-box""> <p class=""title-text"">A</h3></p> </div> <div id=""x-box""> <p class=""title-text"">X<p> </div> <div id=""b-box""> <p class=""title-text"">B</p></div> <br> <div style='float: left;padding-left:30px;'><p>Press '1' for A</p></div><div style='float: right;padding-right:30px;'><p>Press '0' for B</p> </div> </div></div>","null","","","","","","","","","","","","","","","",""
"3805","","test","audio-keyboard-response","130","544264","0.0-9.0-1.50","5efc9e6602650605d21ca962","condD","","resources/audio/wordStim/S9_AU_18_axb_Step-2.wav","49","","","","","","resources/audio/wordStim/S9_AU_18_axb_Step-2.wav","S9","18","axb","2","CN","MI","S9-MI","0","1","false"
"null","","fixation","html-keyboard-response","131","545267","0.0-9.0-0.51","5efc9e6602650605d21ca962","condD","","<div class=""vertical-center"" style='width:60%;'><img src=""resources/images/US_flag_100x52.jpg"" style=""width:100px;height:52px;opacity:0.35;""> <br> <br> <p style='font-weight:bold;'>Does the middle word sound more like the first word (A) or the last word (B)?</p> <br> <div class=""container""> <div id=""a-box""> <p class=""title-text"">A</h3></p> </div> <div id=""x-box""> <p class=""title-text"">X<p> </div> <div id=""b-box""> <p class=""title-text"">B</p></div> <br> <div style='float: left;padding-left:30px;'><p>Press '1' for A</p></div><div style='float: right;padding-right:30px;'><p>Press '0' for B</p> </div> </div></div>","null","","","","","","","","","","","","","","","",""
"3361","","test","audio-keyboard-response","132","548629","0.0-9.0-1.51","5efc9e6602650605d21ca962","condD","","resources/audio/wordStim/S9_AU_18_axb_Step-4.wav","49","","","","","","resources/audio/wordStim/S9_AU_18_axb_Step-4.wav","S9","18","axb","4","CN","MI","S9-MI","0","1","false"
"null","","fixation","html-keyboard-response","133","549634","0.0-9.0-0.52","5efc9e6602650605d21ca962","condD","","<div class=""vertical-center"" style='width:60%;'><img src=""resources/images/US_flag_100x52.jpg"" style=""width:100px;height:52px;opacity:0.35;""> <br> <br> <p style='font-weight:bold;'>Does the middle word sound more like the first word (A) or the last word (B)?</p> <br> <div class=""container""> <div id=""a-box""> <p class=""title-text"">A</h3></p> </div> <div id=""x-box""> <p class=""title-text"">X<p> </div> <div id=""b-box""> <p class=""title-text"">B</p></div> <br> <div style='float: left;padding-left:30px;'><p>Press '1' for A</p></div><div style='float: right;padding-right:30px;'><p>Press '0' for B</p> </div> </div></div>","null","","","","","","","","","","","","","","","",""
"3294","","test","audio-keyboard-response","134","552930","0.0-9.0-1.52","5efc9e6602650605d21ca962","condD","","resources/audio/wordStim/S9_AI_23_axb_Step-6.wav","49","","","","","","resources/audio/wordStim/S9_AI_23_axb_Step-6.wav","S9","23","axb","6","CN","MI","S9-MI","0","1","false"
"null","","fixation","html-keyboard-response","135","553933","0.0-9.0-0.53","5efc9e6602650605d21ca962","condD","","<div class=""vertical-center"" style='width:60%;'><img src=""resources/images/US_flag_100x52.jpg"" style=""width:100px;height:52px;opacity:0.35;""> <br> <br> <p style='font-weight:bold;'>Does the middle word sound more like the first word (A) or the last word (B)?</p> <br> <div class=""container""> <div id=""a-box""> <p class=""title-text"">A</h3></p> </div> <div id=""x-box""> <p class=""title-text"">X<p> </div> <div id=""b-box""> <p class=""title-text"">B</p></div> <br> <div style='float: left;padding-left:30px;'><p>Press '1' for A</p></div><div style='float: right;padding-right:30px;'><p>Press '0' for B</p> </div> </div></div>","null","","","","","","","","","","","","","","","",""
"3637","","test","audio-keyboard-response","136","557571","0.0-9.0-1.53","5efc9e6602650605d21ca962","condD","","resources/audio/wordStim/S9_AI_29_axb_Step-8.wav","49","","","","","","resources/audio/wordStim/S9_AI_29_axb_Step-8.wav","S9","29","axb","8","CN","MI","S9-MI","0","1","false"
"null","","fixation","html-keyboard-response","137","558574","0.0-9.0-0.54","5efc9e6602650605d21ca962","condD","","<div class=""vertical-center"" style='width:60%;'><img src=""resources/images/US_flag_100x52.jpg"" style=""width:100px;height:52px;opacity:0.35;""> <br> <br> <p style='font-weight:bold;'>Does the middle word sound more like the first word (A) or the last word (B)?</p> <br> <div class=""container""> <div id=""a-box""> <p class=""title-text"">A</h3></p> </div> <div id=""x-box""> <p class=""title-text"">X<p> </div> <div id=""b-box""> <p class=""title-text"">B</p></div> <br> <div style='float: left;padding-left:30px;'><p>Press '1' for A</p></div><div style='float: right;padding-right:30px;'><p>Press '0' for B</p> </div> </div></div>","null","","","","","","","","","","","","","","","",""
"2934","","test","audio-keyboard-response","138","561510","0.0-9.0-1.54","5efc9e6602650605d21ca962","condD","","resources/audio/wordStim/S9_AI_23_bxa_Step-5.wav","48","","","","","","resources/audio/wordStim/S9_AI_23_bxa_Step-5.wav","S9","23","bxa","5","CN","MI","S9-MI","1","0","false"
"null","","fixation","html-keyboard-response","139","562514","0.0-9.0-0.55","5efc9e6602650605d21ca962","condD","","<div class=""vertical-center"" style='width:60%;'><img src=""resources/images/US_flag_100x52.jpg"" style=""width:100px;height:52px;opacity:0.35;""> <br> <br> <p style='font-weight:bold;'>Does the middle word sound more like the first word (A) or the last word (B)?</p> <br> <div class=""container""> <div id=""a-box""> <p class=""title-text"">A</h3></p> </div> <div id=""x-box""> <p class=""title-text"">X<p> </div> <div id=""b-box""> <p class=""title-text"">B</p></div> <br> <div style='float: left;padding-left:30px;'><p>Press '1' for A</p></div><div style='float: right;padding-right:30px;'><p>Press '0' for B</p> </div> </div></div>","null","","","","","","","","","","","","","","","",""
"3495","","test","audio-keyboard-response","140","566007","0.0-9.0-1.55","5efc9e6602650605d21ca962","condD","","resources/audio/wordStim/S9_AU_18_axb_Step-8.wav","48","","","","","","resources/audio/wordStim/S9_AU_18_axb_Step-8.wav","S9","18","axb","8","CN","MI","S9-MI","0","0","true"
"null","","fixation","html-keyboard-response","141","567011","0.0-9.0-0.56","5efc9e6602650605d21ca962","condD","","<div class=""vertical-center"" style='width:60%;'><img src=""resources/images/US_flag_100x52.jpg"" style=""width:100px;height:52px;opacity:0.35;""> <br> <br> <p style='font-weight:bold;'>Does the middle word sound more like the first word (A) or the last word (B)?</p> <br> <div class=""container""> <div id=""a-box""> <p class=""title-text"">A</h3></p> </div> <div id=""x-box""> <p class=""title-text"">X<p> </div> <div id=""b-box""> <p class=""title-text"">B</p></div> <br> <div style='float: left;padding-left:30px;'><p>Press '1' for A</p></div><div style='float: right;padding-right:30px;'><p>Press '0' for B</p> </div> </div></div>","null","","","","","","","","","","","","","","","",""
"3164","","test","audio-keyboard-response","142","570177","0.0-9.0-1.56","5efc9e6602650605d21ca962","condD","","resources/audio/wordStim/S9_AU_18_axb_Step-6.wav","49","","","","","","resources/audio/wordStim/S9_AU_18_axb_Step-6.wav","S9","18","axb","6","CN","MI","S9-MI","0","1","false"
"null","","fixation","html-keyboard-response","143","571181","0.0-9.0-0.57","5efc9e6602650605d21ca962","condD","","<div class=""vertical-center"" style='width:60%;'><img src=""resources/images/US_flag_100x52.jpg"" style=""width:100px;height:52px;opacity:0.35;""> <br> <br> <p style='font-weight:bold;'>Does the middle word sound more like the first word (A) or the last word (B)?</p> <br> <div class=""container""> <div id=""a-box""> <p class=""title-text"">A</h3></p> </div> <div id=""x-box""> <p class=""title-text"">X<p> </div> <div id=""b-box""> <p class=""title-text"">B</p></div> <br> <div style='float: left;padding-left:30px;'><p>Press '1' for A</p></div><div style='float: right;padding-right:30px;'><p>Press '0' for B</p> </div> </div></div>","null","","","","","","","","","","","","","","","",""
"3242","","test","audio-keyboard-response","144","574426","0.0-9.0-1.57","5efc9e6602650605d21ca962","condD","","resources/audio/wordStim/S9_AU_20_axb_Step-4.wav","49","","","","","","resources/audio/wordStim/S9_AU_20_axb_Step-4.wav","S9","20","axb","4","CN","MI","S9-MI","0","1","false"
"null","","fixation","html-keyboard-response","145","575430","0.0-9.0-0.58","5efc9e6602650605d21ca962","condD","","<div class=""vertical-center"" style='width:60%;'><img src=""resources/images/US_flag_100x52.jpg"" style=""width:100px;height:52px;opacity:0.35;""> <br> <br> <p style='font-weight:bold;'>Does the middle word sound more like the first word (A) or the last word (B)?</p> <br> <div class=""container""> <div id=""a-box""> <p class=""title-text"">A</h3></p> </div> <div id=""x-box""> <p class=""title-text"">X<p> </div> <div id=""b-box""> <p class=""title-text"">B</p></div> <br> <div style='float: left;padding-left:30px;'><p>Press '1' for A</p></div><div style='float: right;padding-right:30px;'><p>Press '0' for B</p> </div> </div></div>","null","","","","","","","","","","","","","","","",""
"5201","","test","audio-keyboard-response","146","580631","0.0-9.0-1.58","5efc9e6602650605d21ca962","condD","","resources/audio/wordStim/S9_AU_18_bxa_Step-3.wav","49","","","","","","resources/audio/wordStim/S9_AU_18_bxa_Step-3.wav","S9","18","bxa","3","CN","MI","S9-MI","1","1","true"
"null","","fixation","html-keyboard-response","147","581634","0.0-9.0-0.59","5efc9e6602650605d21ca962","condD","","<div class=""vertical-center"" style='width:60%;'><img src=""resources/images/US_flag_100x52.jpg"" style=""width:100px;height:52px;opacity:0.35;""> <br> <br> <p style='font-weight:bold;'>Does the middle word sound more like the first word (A) or the last word (B)?</p> <br> <div class=""container""> <div id=""a-box""> <p class=""title-text"">A</h3></p> </div> <div id=""x-box""> <p class=""title-text"">X<p> </div> <div id=""b-box""> <p class=""title-text"">B</p></div> <br> <div style='float: left;padding-left:30px;'><p>Press '1' for A</p></div><div style='float: right;padding-right:30px;'><p>Press '0' for B</p> </div> </div></div>","null","","","","","","","","","","","","","","","",""
"3547","","test","audio-keyboard-response","148","585183","0.0-9.0-1.59","5efc9e6602650605d21ca962","condD","","resources/audio/wordStim/S9_AI_25_bxa_Step-5.wav","49","","","","","","resources/audio/wordStim/S9_AI_25_bxa_Step-5.wav","S9","25","bxa","5","CN","MI","S9-MI","1","1","true"
"null","","fixation","html-keyboard-response","149","586186","0.0-9.0-0.60","5efc9e6602650605d21ca962","condD","","<div class=""vertical-center"" style='width:60%;'><img src=""resources/images/US_flag_100x52.jpg"" style=""width:100px;height:52px;opacity:0.35;""> <br> <br> <p style='font-weight:bold;'>Does the middle word sound more like the first word (A) or the last word (B)?</p> <br> <div class=""container""> <div id=""a-box""> <p class=""title-text"">A</h3></p> </div> <div id=""x-box""> <p class=""title-text"">X<p> </div> <div id=""b-box""> <p class=""title-text"">B</p></div> <br> <div style='float: left;padding-left:30px;'><p>Press '1' for A</p></div><div style='float: right;padding-right:30px;'><p>Press '0' for B</p> </div> </div></div>","null","","","","","","","","","","","","","","","",""
"3036","","test","audio-keyboard-response","150","589226","0.0-9.0-1.60","5efc9e6602650605d21ca962","condD","","resources/audio/wordStim/S9_AI_25_axb_Step-3.wav","49","","","","","","resources/audio/wordStim/S9_AI_25_axb_Step-3.wav","S9","25","axb","3","CN","MI","S9-MI","0","1","false"
"null","","fixation","html-keyboard-response","151","590230","0.0-9.0-0.61","5efc9e6602650605d21ca962","condD","","<div class=""vertical-center"" style='width:60%;'><img src=""resources/images/US_flag_100x52.jpg"" style=""width:100px;height:52px;opacity:0.35;""> <br> <br> <p style='font-weight:bold;'>Does the middle word sound more like the first word (A) or the last word (B)?</p> <br> <div class=""container""> <div id=""a-box""> <p class=""title-text"">A</h3></p> </div> <div id=""x-box""> <p class=""title-text"">X<p> </div> <div id=""b-box""> <p class=""title-text"">B</p></div> <br> <div style='float: left;padding-left:30px;'><p>Press '1' for A</p></div><div style='float: right;padding-right:30px;'><p>Press '0' for B</p> </div> </div></div>","null","","","","","","","","","","","","","","","",""
"3669","","test","audio-keyboard-response","152","593902","0.0-9.0-1.61","5efc9e6602650605d21ca962","condD","","resources/audio/wordStim/S9_AI_29_axb_Step-3.wav","48","","","","","","resources/audio/wordStim/S9_AI_29_axb_Step-3.wav","S9","29","axb","3","CN","MI","S9-MI","0","0","true"
"null","","fixation","html-keyboard-response","153","594905","0.0-9.0-0.62","5efc9e6602650605d21ca962","condD","","<div class=""vertical-center"" style='width:60%;'><img src=""resources/images/US_flag_100x52.jpg"" style=""width:100px;height:52px;opacity:0.35;""> <br> <br> <p style='font-weight:bold;'>Does the middle word sound more like the first word (A) or the last word (B)?</p> <br> <div class=""container""> <div id=""a-box""> <p class=""title-text"">A</h3></p> </div> <div id=""x-box""> <p class=""title-text"">X<p> </div> <div id=""b-box""> <p class=""title-text"">B</p></div> <br> <div style='float: left;padding-left:30px;'><p>Press '1' for A</p></div><div style='float: right;padding-right:30px;'><p>Press '0' for B</p> </div> </div></div>","null","","","","","","","","","","","","","","","",""
"3582","","test","audio-keyboard-response","154","598487","0.0-9.0-1.62","5efc9e6602650605d21ca962","condD","","resources/audio/wordStim/S9_AI_23_bxa_Step-7.wav","48","","","","","","resources/audio/wordStim/S9_AI_23_bxa_Step-7.wav","S9","23","bxa","7","CN","MI","S9-MI","1","0","false"
"81616.99999999988","","break","html-keyboard-response","155","680606","0.0-9.0-2.62-0.62","5efc9e6602650605d21ca962","condD","","<div class=""vertical-center""><p>Feel free to take a break!</p><i>When you're ready to continue, press SPACE to begin the next trial.</i></p></div>","32","","","","","","","","","","","","","","","",""
"null","","fixation","html-keyboard-response","156","681107","0.0-9.0-0.63","5efc9e6602650605d21ca962","condD","","<div class=""vertical-center"" style='width:60%;'><img src=""resources/images/US_flag_100x52.jpg"" style=""width:100px;height:52px;opacity:0.35;""> <br> <br> <p style='font-weight:bold;'>Does the middle word sound more like the first word (A) or the last word (B)?</p> <br> <div class=""container""> <div id=""a-box""> <p class=""title-text"">A</h3></p> </div> <div id=""x-box""> <p class=""title-text"">X<p> </div> <div id=""b-box""> <p class=""title-text"">B</p></div> <br> <div style='float: left;padding-left:30px;'><p>Press '1' for A</p></div><div style='float: right;padding-right:30px;'><p>Press '0' for B</p> </div> </div></div>","null","","","","","","","","","","","","","","","",""
"2992","","test","audio-keyboard-response","157","684101","0.0-9.0-1.63","5efc9e6602650605d21ca962","condD","","resources/audio/wordStim/S9_AI_29_axb_Step-6.wav","48","","","","","","resources/audio/wordStim/S9_AI_29_axb_Step-6.wav","S9","29","axb","6","CN","MI","S9-MI","0","0","true"
"null","","fixation","html-keyboard-response","158","685104","0.0-9.0-0.64","5efc9e6602650605d21ca962","condD","","<div class=""vertical-center"" style='width:60%;'><img src=""resources/images/US_flag_100x52.jpg"" style=""width:100px;height:52px;opacity:0.35;""> <br> <br> <p style='font-weight:bold;'>Does the middle word sound more like the first word (A) or the last word (B)?</p> <br> <div class=""container""> <div id=""a-box""> <p class=""title-text"">A</h3></p> </div> <div id=""x-box""> <p class=""title-text"">X<p> </div> <div id=""b-box""> <p class=""title-text"">B</p></div> <br> <div style='float: left;padding-left:30px;'><p>Press '1' for A</p></div><div style='float: right;padding-right:30px;'><p>Press '0' for B</p> </div> </div></div>","null","","","","","","","","","","","","","","","",""
"3233","","test","audio-keyboard-response","159","688339","0.0-9.0-1.64","5efc9e6602650605d21ca962","condD","","resources/audio/wordStim/S9_AI_23_axb_Step-2.wav","49","","","","","","resources/audio/wordStim/S9_AI_23_axb_Step-2.wav","S9","23","axb","2","CN","MI","S9-MI","0","1","false"
"null","","fixation","html-keyboard-response","160","689343","0.0-9.0-0.65","5efc9e6602650605d21ca962","condD","","<div class=""vertical-center"" style='width:60%;'><img src=""resources/images/US_flag_100x52.jpg"" style=""width:100px;height:52px;opacity:0.35;""> <br> <br> <p style='font-weight:bold;'>Does the middle word sound more like the first word (A) or the last word (B)?</p> <br> <div class=""container""> <div id=""a-box""> <p class=""title-text"">A</h3></p> </div> <div id=""x-box""> <p class=""title-text"">X<p> </div> <div id=""b-box""> <p class=""title-text"">B</p></div> <br> <div style='float: left;padding-left:30px;'><p>Press '1' for A</p></div><div style='float: right;padding-right:30px;'><p>Press '0' for B</p> </div> </div></div>","null","","","","","","","","","","","","","","","",""
"3564","","test","audio-keyboard-response","161","692908","0.0-9.0-1.65","5efc9e6602650605d21ca962","condD","","resources/audio/wordStim/S9_AU_11_axb_Step-8.wav","49","","","","","","resources/audio/wordStim/S9_AU_11_axb_Step-8.wav","S9","11","axb","8","CN","MI","S9-MI","0","1","false"
"null","","fixation","html-keyboard-response","162","693911","0.0-9.0-0.66","5efc9e6602650605d21ca962","condD","","<div class=""vertical-center"" style='width:60%;'><img src=""resources/images/US_flag_100x52.jpg"" style=""width:100px;height:52px;opacity:0.35;""> <br> <br> <p style='font-weight:bold;'>Does the middle word sound more like the first word (A) or the last word (B)?</p> <br> <div class=""container""> <div id=""a-box""> <p class=""title-text"">A</h3></p> </div> <div id=""x-box""> <p class=""title-text"">X<p> </div> <div id=""b-box""> <p class=""title-text"">B</p></div> <br> <div style='float: left;padding-left:30px;'><p>Press '1' for A</p></div><div style='float: right;padding-right:30px;'><p>Press '0' for B</p> </div> </div></div>","null","","","","","","","","","","","","","","","",""
"3021","","test","audio-keyboard-response","163","696936","0.0-9.0-1.66","5efc9e6602650605d21ca962","condD","","resources/audio/wordStim/S9_AI_23_axb_Step-4.wav","49","","","","","","resources/audio/wordStim/S9_AI_23_axb_Step-4.wav","S9","23","axb","4","CN","MI","S9-MI","0","1","false"
"null","","fixation","html-keyboard-response","164","697940","0.0-9.0-0.67","5efc9e6602650605d21ca962","condD","","<div class=""vertical-center"" style='width:60%;'><img src=""resources/images/US_flag_100x52.jpg"" style=""width:100px;height:52px;opacity:0.35;""> <br> <br> <p style='font-weight:bold;'>Does the middle word sound more like the first word (A) or the last word (B)?</p> <br> <div class=""container""> <div id=""a-box""> <p class=""title-text"">A</h3></p> </div> <div id=""x-box""> <p class=""title-text"">X<p> </div> <div id=""b-box""> <p class=""title-text"">B</p></div> <br> <div style='float: left;padding-left:30px;'><p>Press '1' for A</p></div><div style='float: right;padding-right:30px;'><p>Press '0' for B</p> </div> </div></div>","null","","","","","","","","","","","","","","","",""
"2911","","test","audio-keyboard-response","165","700851","0.0-9.0-1.67","5efc9e6602650605d21ca962","condD","","resources/audio/wordStim/S9_AU_20_bxa_Step-2.wav","49","","","","","","resources/audio/wordStim/S9_AU_20_bxa_Step-2.wav","S9","20","bxa","2","CN","MI","S9-MI","1","1","true"
"null","","fixation","html-keyboard-response","166","701854","0.0-9.0-0.68","5efc9e6602650605d21ca962","condD","","<div class=""vertical-center"" style='width:60%;'><img src=""resources/images/US_flag_100x52.jpg"" style=""width:100px;height:52px;opacity:0.35;""> <br> <br> <p style='font-weight:bold;'>Does the middle word sound more like the first word (A) or the last word (B)?</p> <br> <div class=""container""> <div id=""a-box""> <p class=""title-text"">A</h3></p> </div> <div id=""x-box""> <p class=""title-text"">X<p> </div> <div id=""b-box""> <p class=""title-text"">B</p></div> <br> <div style='float: left;padding-left:30px;'><p>Press '1' for A</p></div><div style='float: right;padding-right:30px;'><p>Press '0' for B</p> </div> </div></div>","null","","","","","","","","","","","","","","","",""
"3036","","test","audio-keyboard-response","167","704890","0.0-9.0-1.68","5efc9e6602650605d21ca962","condD","","resources/audio/wordStim/S9_AI_29_bxa_Step-2.wav","48","","","","","","resources/audio/wordStim/S9_AI_29_bxa_Step-2.wav","S9","29","bxa","2","CN","MI","S9-MI","1","0","false"
"null","","fixation","html-keyboard-response","168","705893","0.0-9.0-0.69","5efc9e6602650605d21ca962","condD","","<div class=""vertical-center"" style='width:60%;'><img src=""resources/images/US_flag_100x52.jpg"" style=""width:100px;height:52px;opacity:0.35;""> <br> <br> <p style='font-weight:bold;'>Does the middle word sound more like the first word (A) or the last word (B)?</p> <br> <div class=""container""> <div id=""a-box""> <p class=""title-text"">A</h3></p> </div> <div id=""x-box""> <p class=""title-text"">X<p> </div> <div id=""b-box""> <p class=""title-text"">B</p></div> <br> <div style='float: left;padding-left:30px;'><p>Press '1' for A</p></div><div style='float: right;padding-right:30px;'><p>Press '0' for B</p> </div> </div></div>","null","","","","","","","","","","","","","","","",""
"3312","","test","audio-keyboard-response","169","709206","0.0-9.0-1.69","5efc9e6602650605d21ca962","condD","","resources/audio/wordStim/S9_AI_23_bxa_Step-6.wav","49","","","","","","resources/audio/wordStim/S9_AI_23_bxa_Step-6.wav","S9","23","bxa","6","CN","MI","S9-MI","1","1","true"
"null","","fixation","html-keyboard-response","170","710210","0.0-9.0-0.70","5efc9e6602650605d21ca962","condD","","<div class=""vertical-center"" style='width:60%;'><img src=""resources/images/US_flag_100x52.jpg"" style=""width:100px;height:52px;opacity:0.35;""> <br> <br> <p style='font-weight:bold;'>Does the middle word sound more like the first word (A) or the last word (B)?</p> <br> <div class=""container""> <div id=""a-box""> <p class=""title-text"">A</h3></p> </div> <div id=""x-box""> <p class=""title-text"">X<p> </div> <div id=""b-box""> <p class=""title-text"">B</p></div> <br> <div style='float: left;padding-left:30px;'><p>Press '1' for A</p></div><div style='float: right;padding-right:30px;'><p>Press '0' for B</p> </div> </div></div>","null","","","","","","","","","","","","","","","",""
"3585","","test","audio-keyboard-response","171","713796","0.0-9.0-1.70","5efc9e6602650605d21ca962","condD","","resources/audio/wordStim/S9_AI_25_axb_Step-4.wav","48","","","","","","resources/audio/wordStim/S9_AI_25_axb_Step-4.wav","S9","25","axb","4","CN","MI","S9-MI","0","0","true"
"null","","fixation","html-keyboard-response","172","714799","0.0-9.0-0.71","5efc9e6602650605d21ca962","condD","","<div class=""vertical-center"" style='width:60%;'><img src=""resources/images/US_flag_100x52.jpg"" style=""width:100px;height:52px;opacity:0.35;""> <br> <br> <p style='font-weight:bold;'>Does the middle word sound more like the first word (A) or the last word (B)?</p> <br> <div class=""container""> <div id=""a-box""> <p class=""title-text"">A</h3></p> </div> <div id=""x-box""> <p class=""title-text"">X<p> </div> <div id=""b-box""> <p class=""title-text"">B</p></div> <br> <div style='float: left;padding-left:30px;'><p>Press '1' for A</p></div><div style='float: right;padding-right:30px;'><p>Press '0' for B</p> </div> </div></div>","null","","","","","","","","","","","","","","","",""
"3463","","test","audio-keyboard-response","173","718263","0.0-9.0-1.71","5efc9e6602650605d21ca962","condD","","resources/audio/wordStim/S9_AU_18_bxa_Step-6.wav","49","","","","","","resources/audio/wordStim/S9_AU_18_bxa_Step-6.wav","S9","18","bxa","6","CN","MI","S9-MI","1","1","true"
"null","","fixation","html-keyboard-response","174","719267","0.0-9.0-0.72","5efc9e6602650605d21ca962","condD","","<div class=""vertical-center"" style='width:60%;'><img src=""resources/images/US_flag_100x52.jpg"" style=""width:100px;height:52px;opacity:0.35;""> <br> <br> <p style='font-weight:bold;'>Does the middle word sound more like the first word (A) or the last word (B)?</p> <br> <div class=""container""> <div id=""a-box""> <p class=""title-text"">A</h3></p> </div> <div id=""x-box""> <p class=""title-text"">X<p> </div> <div id=""b-box""> <p class=""title-text"">B</p></div> <br> <div style='float: left;padding-left:30px;'><p>Press '1' for A</p></div><div style='float: right;padding-right:30px;'><p>Press '0' for B</p> </div> </div></div>","null","","","","","","","","","","","","","","","",""
"3199","","test","audio-keyboard-response","175","722469","0.0-9.0-1.72","5efc9e6602650605d21ca962","condD","","resources/audio/wordStim/S9_AI_25_bxa_Step-4.wav","49","","","","","","resources/audio/wordStim/S9_AI_25_bxa_Step-4.wav","S9","25","bxa","4","CN","MI","S9-MI","1","1","true"
"null","","fixation","html-keyboard-response","176","723472","0.0-9.0-0.73","5efc9e6602650605d21ca962","condD","","<div class=""vertical-center"" style='width:60%;'><img src=""resources/images/US_flag_100x52.jpg"" style=""width:100px;height:52px;opacity:0.35;""> <br> <br> <p style='font-weight:bold;'>Does the middle word sound more like the first word (A) or the last word (B)?</p> <br> <div class=""container""> <div id=""a-box""> <p class=""title-text"">A</h3></p> </div> <div id=""x-box""> <p class=""title-text"">X<p> </div> <div id=""b-box""> <p class=""title-text"">B</p></div> <br> <div style='float: left;padding-left:30px;'><p>Press '1' for A</p></div><div style='float: right;padding-right:30px;'><p>Press '0' for B</p> </div> </div></div>","null","","","","","","","","","","","","","","","",""
"3500","","test","audio-keyboard-response","177","726973","0.0-9.0-1.73","5efc9e6602650605d21ca962","condD","","resources/audio/wordStim/S9_AU_18_bxa_Step-5.wav","48","","","","","","resources/audio/wordStim/S9_AU_18_bxa_Step-5.wav","S9","18","bxa","5","CN","MI","S9-MI","1","0","false"
"null","","fixation","html-keyboard-response","178","727976","0.0-9.0-0.74","5efc9e6602650605d21ca962","condD","","<div class=""vertical-center"" style='width:60%;'><img src=""resources/images/US_flag_100x52.jpg"" style=""width:100px;height:52px;opacity:0.35;""> <br> <br> <p style='font-weight:bold;'>Does the middle word sound more like the first word (A) or the last word (B)?</p> <br> <div class=""container""> <div id=""a-box""> <p class=""title-text"">A</h3></p> </div> <div id=""x-box""> <p class=""title-text"">X<p> </div> <div id=""b-box""> <p class=""title-text"">B</p></div> <br> <div style='float: left;padding-left:30px;'><p>Press '1' for A</p></div><div style='float: right;padding-right:30px;'><p>Press '0' for B</p> </div> </div></div>","null","","","","","","","","","","","","","","","",""
"3503","","test","audio-keyboard-response","179","731480","0.0-9.0-1.74","5efc9e6602650605d21ca962","condD","","resources/audio/wordStim/S9_AI_25_bxa_Step-7.wav","48","","","","","","resources/audio/wordStim/S9_AI_25_bxa_Step-7.wav","S9","25","bxa","7","CN","MI","S9-MI","1","0","false"
"null","","fixation","html-keyboard-response","180","732483","0.0-9.0-0.75","5efc9e6602650605d21ca962","condD","","<div class=""vertical-center"" style='width:60%;'><img src=""resources/images/US_flag_100x52.jpg"" style=""width:100px;height:52px;opacity:0.35;""> <br> <br> <p style='font-weight:bold;'>Does the middle word sound more like the first word (A) or the last word (B)?</p> <br> <div class=""container""> <div id=""a-box""> <p class=""title-text"">A</h3></p> </div> <div id=""x-box""> <p class=""title-text"">X<p> </div> <div id=""b-box""> <p class=""title-text"">B</p></div> <br> <div style='float: left;padding-left:30px;'><p>Press '1' for A</p></div><div style='float: right;padding-right:30px;'><p>Press '0' for B</p> </div> </div></div>","null","","","","","","","","","","","","","","","",""
"3648","","test","audio-keyboard-response","181","736133","0.0-9.0-1.75","5efc9e6602650605d21ca962","condD","","resources/audio/wordStim/S9_AU_11_bxa_Step-4.wav","48","","","","","","resources/audio/wordStim/S9_AU_11_bxa_Step-4.wav","S9","11","bxa","4","CN","MI","S9-MI","1","0","false"
"null","","fixation","html-keyboard-response","182","737137","0.0-9.0-0.76","5efc9e6602650605d21ca962","condD","","<div class=""vertical-center"" style='width:60%;'><img src=""resources/images/US_flag_100x52.jpg"" style=""width:100px;height:52px;opacity:0.35;""> <br> <br> <p style='font-weight:bold;'>Does the middle word sound more like the first word (A) or the last word (B)?</p> <br> <div class=""container""> <div id=""a-box""> <p class=""title-text"">A</h3></p> </div> <div id=""x-box""> <p class=""title-text"">X<p> </div> <div id=""b-box""> <p class=""title-text"">B</p></div> <br> <div style='float: left;padding-left:30px;'><p>Press '1' for A</p></div><div style='float: right;padding-right:30px;'><p>Press '0' for B</p> </div> </div></div>","null","","","","","","","","","","","","","","","",""
"3593","","test","audio-keyboard-response","183","740733","0.0-9.0-1.76","5efc9e6602650605d21ca962","condD","","resources/audio/wordStim/S9_AU_11_axb_Step-2.wav","49","","","","","","resources/audio/wordStim/S9_AU_11_axb_Step-2.wav","S9","11","axb","2","CN","MI","S9-MI","0","1","false"
"null","","fixation","html-keyboard-response","184","741736","0.0-9.0-0.77","5efc9e6602650605d21ca962","condD","","<div class=""vertical-center"" style='width:60%;'><img src=""resources/images/US_flag_100x52.jpg"" style=""width:100px;height:52px;opacity:0.35;""> <br> <br> <p style='font-weight:bold;'>Does the middle word sound more like the first word (A) or the last word (B)?</p> <br> <div class=""container""> <div id=""a-box""> <p class=""title-text"">A</h3></p> </div> <div id=""x-box""> <p class=""title-text"">X<p> </div> <div id=""b-box""> <p class=""title-text"">B</p></div> <br> <div style='float: left;padding-left:30px;'><p>Press '1' for A</p></div><div style='float: right;padding-right:30px;'><p>Press '0' for B</p> </div> </div></div>","null","","","","","","","","","","","","","","","",""
"3323","","test","audio-keyboard-response","185","745062","0.0-9.0-1.77","5efc9e6602650605d21ca962","condD","","resources/audio/wordStim/S9_AU_11_bxa_Step-6.wav","49","","","","","","resources/audio/wordStim/S9_AU_11_bxa_Step-6.wav","S9","11","bxa","6","CN","MI","S9-MI","1","1","true"
"null","","fixation","html-keyboard-response","186","746065","0.0-9.0-0.78","5efc9e6602650605d21ca962","condD","","<div class=""vertical-center"" style='width:60%;'><img src=""resources/images/US_flag_100x52.jpg"" style=""width:100px;height:52px;opacity:0.35;""> <br> <br> <p style='font-weight:bold;'>Does the middle word sound more like the first word (A) or the last word (B)?</p> <br> <div class=""container""> <div id=""a-box""> <p class=""title-text"">A</h3></p> </div> <div id=""x-box""> <p class=""title-text"">X<p> </div> <div id=""b-box""> <p class=""title-text"">B</p></div> <br> <div style='float: left;padding-left:30px;'><p>Press '1' for A</p></div><div style='float: right;padding-right:30px;'><p>Press '0' for B</p> </div> </div></div>","null","","","","","","","","","","","","","","","",""
"2975","","test","audio-keyboard-response","187","749042","0.0-9.0-1.78","5efc9e6602650605d21ca962","condD","","resources/audio/wordStim/S9_AI_23_axb_Step-7.wav","49","","","","","","resources/audio/wordStim/S9_AI_23_axb_Step-7.wav","S9","23","axb","7","CN","MI","S9-MI","0","1","false"
"null","","fixation","html-keyboard-response","188","750046","0.0-9.0-0.79","5efc9e6602650605d21ca962","condD","","<div class=""vertical-center"" style='width:60%;'><img src=""resources/images/US_flag_100x52.jpg"" style=""width:100px;height:52px;opacity:0.35;""> <br> <br> <p style='font-weight:bold;'>Does the middle word sound more like the first word (A) or the last word (B)?</p> <br> <div class=""container""> <div id=""a-box""> <p class=""title-text"">A</h3></p> </div> <div id=""x-box""> <p class=""title-text"">X<p> </div> <div id=""b-box""> <p class=""title-text"">B</p></div> <br> <div style='float: left;padding-left:30px;'><p>Press '1' for A</p></div><div style='float: right;padding-right:30px;'><p>Press '0' for B</p> </div> </div></div>","null","","","","","","","","","","","","","","","",""
"3323","","test","audio-keyboard-response","189","753370","0.0-9.0-1.79","5efc9e6602650605d21ca962","condD","","resources/audio/wordStim/S9_AU_11_bxa_Step-8.wav","49","","","","","","resources/audio/wordStim/S9_AU_11_bxa_Step-8.wav","S9","11","bxa","8","CN","MI","S9-MI","1","1","true"
"null","","fixation","html-keyboard-response","190","754374","0.0-9.0-0.80","5efc9e6602650605d21ca962","condD","","<div class=""vertical-center"" style='width:60%;'><img src=""resources/images/US_flag_100x52.jpg"" style=""width:100px;height:52px;opacity:0.35;""> <br> <br> <p style='font-weight:bold;'>Does the middle word sound more like the first word (A) or the last word (B)?</p> <br> <div class=""container""> <div id=""a-box""> <p class=""title-text"">A</h3></p> </div> <div id=""x-box""> <p class=""title-text"">X<p> </div> <div id=""b-box""> <p class=""title-text"">B</p></div> <br> <div style='float: left;padding-left:30px;'><p>Press '1' for A</p></div><div style='float: right;padding-right:30px;'><p>Press '0' for B</p> </div> </div></div>","null","","","","","","","","","","","","","","","",""
"3434","","test","audio-keyboard-response","191","757809","0.0-9.0-1.80","5efc9e6602650605d21ca962","condD","","resources/audio/wordStim/S9_AU_20_axb_Step-7.wav","48","","","","","","resources/audio/wordStim/S9_AU_20_axb_Step-7.wav","S9","20","axb","7","CN","MI","S9-MI","0","0","true"
"null","","fixation","html-keyboard-response","192","758811","0.0-9.0-0.81","5efc9e6602650605d21ca962","condD","","<div class=""vertical-center"" style='width:60%;'><img src=""resources/images/US_flag_100x52.jpg"" style=""width:100px;height:52px;opacity:0.35;""> <br> <br> <p style='font-weight:bold;'>Does the middle word sound more like the first word (A) or the last word (B)?</p> <br> <div class=""container""> <div id=""a-box""> <p class=""title-text"">A</h3></p> </div> <div id=""x-box""> <p class=""title-text"">X<p> </div> <div id=""b-box""> <p class=""title-text"">B</p></div> <br> <div style='float: left;padding-left:30px;'><p>Press '1' for A</p></div><div style='float: right;padding-right:30px;'><p>Press '0' for B</p> </div> </div></div>","null","","","","","","","","","","","","","","","",""
"3492","","test","audio-keyboard-response","193","762305","0.0-9.0-1.81","5efc9e6602650605d21ca962","condD","","resources/audio/wordStim/S9_AI_29_axb_Step-4.wav","48","","","","","","resources/audio/wordStim/S9_AI_29_axb_Step-4.wav","S9","29","axb","4","CN","MI","S9-MI","0","0","true"
