"rt","url","trial_role","trial_type","trial_index","time_elapsed","internal_node_id","participantId","conditionId","view_history","stimulus","key_press","button_pressed","correct_answer","correct_response","success","vowel","wordStim","speaker","sentNum","order","step","speakerIdentity","speakerGuise","guiseName","raised_answer","key_response","raised_response"
"31637.39999999234","micr.axb.consent.html","consent","external-html","0","31771","0.0-0.0","5f088a5a76b70d0b1ef1dd85","condD","","","","","","","","","","","","","","","","","","",""
"118563.1449999928","","instructions","instructions","1","150351","0.0-1.0","5f088a5a76b70d0b1ef1dd85","condD","[{""page_index"":0,""viewing_time"":104415.04500000156},{""page_index"":1,""viewing_time"":3080.774999994901},{""page_index"":2,""viewing_time"":2203.5699999978533},{""page_index"":1,""viewing_time"":1080.67999999912},{""page_index"":2,""viewing_time"":7782.1400000102585}]","","","","","","","","","","","","","","","","","",""
"null","","fixation","html-keyboard-response","2","150855","0.0-2.0-0.0","5f088a5a76b70d0b1ef1dd85","condD","","<div class=""vertical-center"" style=""font-size:60px;"">+</div>","null","","","","","","","","","","","","","","","",""
"4375.9249999857275","","tonetest","audio-button-response","3","155234","0.0-2.0-1.0","5f088a5a76b70d0b1ef1dd85","condD","","../../src/audio/toneTest_6.wav","","0","0","true","","","","","","","","","","","","",""
"null","","fixation","html-keyboard-response","4","155736","0.0-2.0-0.1","5f088a5a76b70d0b1ef1dd85","condD","","<div class=""vertical-center"" style=""font-size:60px;"">+</div>","null","","","","","","","","","","","","","","","",""
"4077.659999995376","","tonetest","audio-button-response","5","159814","0.0-2.0-1.1","5f088a5a76b70d0b1ef1dd85","condD","","../../src/audio/toneTest_5.wav","","0","0","true","","","","","","","","","","","","",""
"null","","fixation","html-keyboard-response","6","160316","0.0-2.0-0.2","5f088a5a76b70d0b1ef1dd85","condD","","<div class=""vertical-center"" style=""font-size:60px;"">+</div>","null","","","","","","","","","","","","","","","",""
"3818.5599999997066","","tonetest","audio-button-response","7","164136","0.0-2.0-1.2","5f088a5a76b70d0b1ef1dd85","condD","","../../src/audio/toneTest_4.wav","","1","1","true","","","","","","","","","","","","",""
"null","","fixation","html-keyboard-response","8","164637","0.0-2.0-0.3","5f088a5a76b70d0b1ef1dd85","condD","","<div class=""vertical-center"" style=""font-size:60px;"">+</div>","null","","","","","","","","","","","","","","","",""
"4236.04499999783","","tonetest","audio-button-response","9","168874","0.0-2.0-1.3","5f088a5a76b70d0b1ef1dd85","condD","","../../src/audio/toneTest_2.wav","","1","1","true","","","","","","","","","","","","",""
"null","","fixation","html-keyboard-response","10","169376","0.0-2.0-0.4","5f088a5a76b70d0b1ef1dd85","condD","","<div class=""vertical-center"" style=""font-size:60px;"">+</div>","null","","","","","","","","","","","","","","","",""
"3880.0350000092294","","tonetest","audio-button-response","11","173258","0.0-2.0-1.4","5f088a5a76b70d0b1ef1dd85","condD","","../../src/audio/toneTest_6.wav","","0","0","true","","","","","","","","","","","","",""
"null","","fixation","html-keyboard-response","12","173761","0.0-2.0-0.5","5f088a5a76b70d0b1ef1dd85","condD","","<div class=""vertical-center"" style=""font-size:60px;"">+</div>","null","","","","","","","","","","","","","","","",""
"3613.649999999325","","tonetest","audio-button-response","13","177376","0.0-2.0-1.5","5f088a5a76b70d0b1ef1dd85","condD","","../../src/audio/toneTest_1.wav","","2","2","true","","","","","","","","","","","","",""
"8058.980000001611","","instructions","html-keyboard-response","14","185437","0.0-3.0","5f088a5a76b70d0b1ef1dd85","condD","","<div class=""vertical-center""><p><b>Your score was 6/6.</b></p><p>If you scored below 6, please ensure that you are wearing properly functioning headphones and in a quiet location free of distractions.</p><p><i>To continue to the main experiment, press SPACE.</i></p></div>","32","","","","","","","","","","","","","","","",""
"","","","fullscreen","15","191408","0.0-4.0","5f088a5a76b70d0b1ef1dd85","condD","","","","","","","true","","","","","","","","","","","",""
"11458.399999988615","","instructions","instructions","16","202868","0.0-5.0","5f088a5a76b70d0b1ef1dd85","condD","[{""page_index"":0,""viewing_time"":11458.259999999427}]","","","","","","","","","","","","","","","","","",""
"null","","fixation","html-keyboard-response","17","203369","0.0-6.0-0.0","5f088a5a76b70d0b1ef1dd85","condD","","<div class=""vertical-center"" style='width:60%;'><p style='font-weight:bold;'>Does the middle word sound more like the first word (A) or the last word (B)?</p> <br> <div class=""container""> <div id=""a-box""> <p class=""title-text"">A</h3></p> </div> <div id=""x-box""> <p class=""title-text"">X<p> </div> <div id=""b-box""> <p class=""title-text"">B</p></div> <br> <div style='float: left;padding-left:30px;'><p>Press '1' for A</p></div><div style='float: right;padding-right:30px;'><p>Press '0' for B</p> </div> </div></div>","null","","","","","","","","","","","","","","","",""
"7552","","practice","audio-keyboard-response","18","210925","0.0-6.0-1.0","5f088a5a76b70d0b1ef1dd85","condD","","resources/audio/practiceStim/S1_AU_14_axb_Step-6.wav","48","","","","","","","","","","","","","","","",""
"null","","fixation","html-keyboard-response","19","211930","0.0-6.0-0.1","5f088a5a76b70d0b1ef1dd85","condD","","<div class=""vertical-center"" style='width:60%;'><p style='font-weight:bold;'>Does the middle word sound more like the first word (A) or the last word (B)?</p> <br> <div class=""container""> <div id=""a-box""> <p class=""title-text"">A</h3></p> </div> <div id=""x-box""> <p class=""title-text"">X<p> </div> <div id=""b-box""> <p class=""title-text"">B</p></div> <br> <div style='float: left;padding-left:30px;'><p>Press '1' for A</p></div><div style='float: right;padding-right:30px;'><p>Press '0' for B</p> </div> </div></div>","null","","","","","","","","","","","","","","","",""
"4063","","practice","audio-keyboard-response","20","215998","0.0-6.0-1.1","5f088a5a76b70d0b1ef1dd85","condD","","resources/audio/practiceStim/S1_AI_21_bxa_Step-6.wav","48","","","","","","","","","","","","","","","",""
"null","","fixation","html-keyboard-response","21","217002","0.0-6.0-0.2","5f088a5a76b70d0b1ef1dd85","condD","","<div class=""vertical-center"" style='width:60%;'><p style='font-weight:bold;'>Does the middle word sound more like the first word (A) or the last word (B)?</p> <br> <div class=""container""> <div id=""a-box""> <p class=""title-text"">A</h3></p> </div> <div id=""x-box""> <p class=""title-text"">X<p> </div> <div id=""b-box""> <p class=""title-text"">B</p></div> <br> <div style='float: left;padding-left:30px;'><p>Press '1' for A</p></div><div style='float: right;padding-right:30px;'><p>Press '0' for B</p> </div> </div></div>","null","","","","","","","","","","","","","","","",""
"3274","","practice","audio-keyboard-response","22","220279","0.0-6.0-1.2","5f088a5a76b70d0b1ef1dd85","condD","","resources/audio/practiceStim/S1_AI_21_axb_Step-6.wav","49","","","","","","","","","","","","","","","",""
"null","","fixation","html-keyboard-response","23","221284","0.0-6.0-0.3","5f088a5a76b70d0b1ef1dd85","condD","","<div class=""vertical-center"" style='width:60%;'><p style='font-weight:bold;'>Does the middle word sound more like the first word (A) or the last word (B)?</p> <br> <div class=""container""> <div id=""a-box""> <p class=""title-text"">A</h3></p> </div> <div id=""x-box""> <p class=""title-text"">X<p> </div> <div id=""b-box""> <p class=""title-text"">B</p></div> <br> <div style='float: left;padding-left:30px;'><p>Press '1' for A</p></div><div style='float: right;padding-right:30px;'><p>Press '0' for B</p> </div> </div></div>","null","","","","","","","","","","","","","","","",""
"2473","","practice","audio-keyboard-response","24","223758","0.0-6.0-1.3","5f088a5a76b70d0b1ef1dd85","condD","","resources/audio/practiceStim/S1_AU_14_bxa_Step-6.wav","48","","","","","","","","","","","","","","","",""
"1480.6400000088615","","instructions","instructions","25","225741","0.0-7.0","5f088a5a76b70d0b1ef1dd85","condD","[{""page_index"":0,""viewing_time"":1480.5150000029244}]","","","","","","","","","","","","","","","","","",""
"1878.660000002128","","","html-keyboard-response","26","227621","0.0-8.0","5f088a5a76b70d0b1ef1dd85","condD","","<div class=""vertical-center""><img src=""resources/images/US_face_b.png"" style=""width:450px;height:300px;""><p>This is the speaker you're about to hear. She is from Detroit, Michigan.</p><p> <br> <i>Press SPACE to continue.</i></p></div>","32","","","","","","","","","","","","","","","",""
"null","","fixation","html-keyboard-response","27","228123","0.0-9.0-0.0","5f088a5a76b70d0b1ef1dd85","condD","","<div class=""vertical-center"" style='width:60%;'><img src=""resources/images/US_flag_100x52.jpg"" style=""width:100px;height:52px;opacity:0.35;""> <br> <br> <p style='font-weight:bold;'>Does the middle word sound more like the first word (A) or the last word (B)?</p> <br> <div class=""container""> <div id=""a-box""> <p class=""title-text"">A</h3></p> </div> <div id=""x-box""> <p class=""title-text"">X<p> </div> <div id=""b-box""> <p class=""title-text"">B</p></div> <br> <div style='float: left;padding-left:30px;'><p>Press '1' for A</p></div><div style='float: right;padding-right:30px;'><p>Press '0' for B</p> </div> </div></div>","null","","","","","","","","","","","","","","","",""
"3959","","test","audio-keyboard-response","28","232084","0.0-9.0-1.0","5f088a5a76b70d0b1ef1dd85","condD","","resources/audio/wordStim/S9_AU_18_bxa_Step-6.wav","49","","","","","","resources/audio/wordStim/S9_AU_18_bxa_Step-6.wav","S9","18","bxa","6","CN","MI","S9-MI","1","1","true"
"null","","fixation","html-keyboard-response","29","233088","0.0-9.0-0.1","5f088a5a76b70d0b1ef1dd85","condD","","<div class=""vertical-center"" style='width:60%;'><img src=""resources/images/US_flag_100x52.jpg"" style=""width:100px;height:52px;opacity:0.35;""> <br> <br> <p style='font-weight:bold;'>Does the middle word sound more like the first word (A) or the last word (B)?</p> <br> <div class=""container""> <div id=""a-box""> <p class=""title-text"">A</h3></p> </div> <div id=""x-box""> <p class=""title-text"">X<p> </div> <div id=""b-box""> <p class=""title-text"">B</p></div> <br> <div style='float: left;padding-left:30px;'><p>Press '1' for A</p></div><div style='float: right;padding-right:30px;'><p>Press '0' for B</p> </div> </div></div>","null","","","","","","","","","","","","","","","",""
"3413","","test","audio-keyboard-response","30","236501","0.0-9.0-1.1","5f088a5a76b70d0b1ef1dd85","condD","","resources/audio/wordStim/S9_AU_18_bxa_Step-7.wav","49","","","","","","resources/audio/wordStim/S9_AU_18_bxa_Step-7.wav","S9","18","bxa","7","CN","MI","S9-MI","1","1","true"
"null","","fixation","html-keyboard-response","31","237506","0.0-9.0-0.2","5f088a5a76b70d0b1ef1dd85","condD","","<div class=""vertical-center"" style='width:60%;'><img src=""resources/images/US_flag_100x52.jpg"" style=""width:100px;height:52px;opacity:0.35;""> <br> <br> <p style='font-weight:bold;'>Does the middle word sound more like the first word (A) or the last word (B)?</p> <br> <div class=""container""> <div id=""a-box""> <p class=""title-text"">A</h3></p> </div> <div id=""x-box""> <p class=""title-text"">X<p> </div> <div id=""b-box""> <p class=""title-text"">B</p></div> <br> <div style='float: left;padding-left:30px;'><p>Press '1' for A</p></div><div style='float: right;padding-right:30px;'><p>Press '0' for B</p> </div> </div></div>","null","","","","","","","","","","","","","","","",""
"3576","","test","audio-keyboard-response","32","241078","0.0-9.0-1.2","5f088a5a76b70d0b1ef1dd85","condD","","resources/audio/wordStim/S9_AI_29_bxa_Step-4.wav","49","","","","","","resources/audio/wordStim/S9_AI_29_bxa_Step-4.wav","S9","29","bxa","4","CN","MI","S9-MI","1","1","true"
"null","","fixation","html-keyboard-response","33","242084","0.0-9.0-0.3","5f088a5a76b70d0b1ef1dd85","condD","","<div class=""vertical-center"" style='width:60%;'><img src=""resources/images/US_flag_100x52.jpg"" style=""width:100px;height:52px;opacity:0.35;""> <br> <br> <p style='font-weight:bold;'>Does the middle word sound more like the first word (A) or the last word (B)?</p> <br> <div class=""container""> <div id=""a-box""> <p class=""title-text"">A</h3></p> </div> <div id=""x-box""> <p class=""title-text"">X<p> </div> <div id=""b-box""> <p class=""title-text"">B</p></div> <br> <div style='float: left;padding-left:30px;'><p>Press '1' for A</p></div><div style='float: right;padding-right:30px;'><p>Press '0' for B</p> </div> </div></div>","null","","","","","","","","","","","","","","","",""
"3431","","test","audio-keyboard-response","34","245514","0.0-9.0-1.3","5f088a5a76b70d0b1ef1dd85","condD","","resources/audio/wordStim/S9_AI_25_bxa_Step-3.wav","48","","","","","","resources/audio/wordStim/S9_AI_25_bxa_Step-3.wav","S9","25","bxa","3","CN","MI","S9-MI","1","0","false"
"null","","fixation","html-keyboard-response","35","246519","0.0-9.0-0.4","5f088a5a76b70d0b1ef1dd85","condD","","<div class=""vertical-center"" style='width:60%;'><img src=""resources/images/US_flag_100x52.jpg"" style=""width:100px;height:52px;opacity:0.35;""> <br> <br> <p style='font-weight:bold;'>Does the middle word sound more like the first word (A) or the last word (B)?</p> <br> <div class=""container""> <div id=""a-box""> <p class=""title-text"">A</h3></p> </div> <div id=""x-box""> <p class=""title-text"">X<p> </div> <div id=""b-box""> <p class=""title-text"">B</p></div> <br> <div style='float: left;padding-left:30px;'><p>Press '1' for A</p></div><div style='float: right;padding-right:30px;'><p>Press '0' for B</p> </div> </div></div>","null","","","","","","","","","","","","","","","",""
"3268","","test","audio-keyboard-response","36","249789","0.0-9.0-1.4","5f088a5a76b70d0b1ef1dd85","condD","","resources/audio/wordStim/S9_AU_20_bxa_Step-6.wav","49","","","","","","resources/audio/wordStim/S9_AU_20_bxa_Step-6.wav","S9","20","bxa","6","CN","MI","S9-MI","1","1","true"
"null","","fixation","html-keyboard-response","37","250793","0.0-9.0-0.5","5f088a5a76b70d0b1ef1dd85","condD","","<div class=""vertical-center"" style='width:60%;'><img src=""resources/images/US_flag_100x52.jpg"" style=""width:100px;height:52px;opacity:0.35;""> <br> <br> <p style='font-weight:bold;'>Does the middle word sound more like the first word (A) or the last word (B)?</p> <br> <div class=""container""> <div id=""a-box""> <p class=""title-text"">A</h3></p> </div> <div id=""x-box""> <p class=""title-text"">X<p> </div> <div id=""b-box""> <p class=""title-text"">B</p></div> <br> <div style='float: left;padding-left:30px;'><p>Press '1' for A</p></div><div style='float: right;padding-right:30px;'><p>Press '0' for B</p> </div> </div></div>","null","","","","","","","","","","","","","","","",""
"4139","","test","audio-keyboard-response","38","254934","0.0-9.0-1.5","5f088a5a76b70d0b1ef1dd85","condD","","resources/audio/wordStim/S9_AU_20_axb_Step-3.wav","49","","","","","","resources/audio/wordStim/S9_AU_20_axb_Step-3.wav","S9","20","axb","3","CN","MI","S9-MI","0","1","false"
"null","","fixation","html-keyboard-response","39","255937","0.0-9.0-0.6","5f088a5a76b70d0b1ef1dd85","condD","","<div class=""vertical-center"" style='width:60%;'><img src=""resources/images/US_flag_100x52.jpg"" style=""width:100px;height:52px;opacity:0.35;""> <br> <br> <p style='font-weight:bold;'>Does the middle word sound more like the first word (A) or the last word (B)?</p> <br> <div class=""container""> <div id=""a-box""> <p class=""title-text"">A</h3></p> </div> <div id=""x-box""> <p class=""title-text"">X<p> </div> <div id=""b-box""> <p class=""title-text"">B</p></div> <br> <div style='float: left;padding-left:30px;'><p>Press '1' for A</p></div><div style='float: right;padding-right:30px;'><p>Press '0' for B</p> </div> </div></div>","null","","","","","","","","","","","","","","","",""
"3884","","test","audio-keyboard-response","40","259819","0.0-9.0-1.6","5f088a5a76b70d0b1ef1dd85","condD","","resources/audio/wordStim/S9_AI_25_axb_Step-4.wav","48","","","","","","resources/audio/wordStim/S9_AI_25_axb_Step-4.wav","S9","25","axb","4","CN","MI","S9-MI","0","0","true"
"null","","fixation","html-keyboard-response","41","260823","0.0-9.0-0.7","5f088a5a76b70d0b1ef1dd85","condD","","<div class=""vertical-center"" style='width:60%;'><img src=""resources/images/US_flag_100x52.jpg"" style=""width:100px;height:52px;opacity:0.35;""> <br> <br> <p style='font-weight:bold;'>Does the middle word sound more like the first word (A) or the last word (B)?</p> <br> <div class=""container""> <div id=""a-box""> <p class=""title-text"">A</h3></p> </div> <div id=""x-box""> <p class=""title-text"">X<p> </div> <div id=""b-box""> <p class=""title-text"">B</p></div> <br> <div style='float: left;padding-left:30px;'><p>Press '1' for A</p></div><div style='float: right;padding-right:30px;'><p>Press '0' for B</p> </div> </div></div>","null","","","","","","","","","","","","","","","",""
"3500","","test","audio-keyboard-response","42","264322","0.0-9.0-1.7","5f088a5a76b70d0b1ef1dd85","condD","","resources/audio/wordStim/S9_AU_18_axb_Step-8.wav","48","","","","","","resources/audio/wordStim/S9_AU_18_axb_Step-8.wav","S9","18","axb","8","CN","MI","S9-MI","0","0","true"
"null","","fixation","html-keyboard-response","43","265327","0.0-9.0-0.8","5f088a5a76b70d0b1ef1dd85","condD","","<div class=""vertical-center"" style='width:60%;'><img src=""resources/images/US_flag_100x52.jpg"" style=""width:100px;height:52px;opacity:0.35;""> <br> <br> <p style='font-weight:bold;'>Does the middle word sound more like the first word (A) or the last word (B)?</p> <br> <div class=""container""> <div id=""a-box""> <p class=""title-text"">A</h3></p> </div> <div id=""x-box""> <p class=""title-text"">X<p> </div> <div id=""b-box""> <p class=""title-text"">B</p></div> <br> <div style='float: left;padding-left:30px;'><p>Press '1' for A</p></div><div style='float: right;padding-right:30px;'><p>Press '0' for B</p> </div> </div></div>","null","","","","","","","","","","","","","","","",""
"3855","","test","audio-keyboard-response","44","269180","0.0-9.0-1.8","5f088a5a76b70d0b1ef1dd85","condD","","resources/audio/wordStim/S9_AU_11_bxa_Step-7.wav","48","","","","","","resources/audio/wordStim/S9_AU_11_bxa_Step-7.wav","S9","11","bxa","7","CN","MI","S9-MI","1","0","false"
"null","","fixation","html-keyboard-response","45","270183","0.0-9.0-0.9","5f088a5a76b70d0b1ef1dd85","condD","","<div class=""vertical-center"" style='width:60%;'><img src=""resources/images/US_flag_100x52.jpg"" style=""width:100px;height:52px;opacity:0.35;""> <br> <br> <p style='font-weight:bold;'>Does the middle word sound more like the first word (A) or the last word (B)?</p> <br> <div class=""container""> <div id=""a-box""> <p class=""title-text"">A</h3></p> </div> <div id=""x-box""> <p class=""title-text"">X<p> </div> <div id=""b-box""> <p class=""title-text"">B</p></div> <br> <div style='float: left;padding-left:30px;'><p>Press '1' for A</p></div><div style='float: right;padding-right:30px;'><p>Press '0' for B</p> </div> </div></div>","null","","","","","","","","","","","","","","","",""
"3233","","test","audio-keyboard-response","46","273413","0.0-9.0-1.9","5f088a5a76b70d0b1ef1dd85","condD","","resources/audio/wordStim/S9_AI_25_bxa_Step-2.wav","48","","","","","","resources/audio/wordStim/S9_AI_25_bxa_Step-2.wav","S9","25","bxa","2","CN","MI","S9-MI","1","0","false"
"null","","fixation","html-keyboard-response","47","274419","0.0-9.0-0.10","5f088a5a76b70d0b1ef1dd85","condD","","<div class=""vertical-center"" style='width:60%;'><img src=""resources/images/US_flag_100x52.jpg"" style=""width:100px;height:52px;opacity:0.35;""> <br> <br> <p style='font-weight:bold;'>Does the middle word sound more like the first word (A) or the last word (B)?</p> <br> <div class=""container""> <div id=""a-box""> <p class=""title-text"">A</h3></p> </div> <div id=""x-box""> <p class=""title-text"">X<p> </div> <div id=""b-box""> <p class=""title-text"">B</p></div> <br> <div style='float: left;padding-left:30px;'><p>Press '1' for A</p></div><div style='float: right;padding-right:30px;'><p>Press '0' for B</p> </div> </div></div>","null","","","","","","","","","","","","","","","",""
"3402","","test","audio-keyboard-response","48","277824","0.0-9.0-1.10","5f088a5a76b70d0b1ef1dd85","condD","","resources/audio/wordStim/S9_AU_20_bxa_Step-4.wav","49","","","","","","resources/audio/wordStim/S9_AU_20_bxa_Step-4.wav","S9","20","bxa","4","CN","MI","S9-MI","1","1","true"
"null","","fixation","html-keyboard-response","49","278829","0.0-9.0-0.11","5f088a5a76b70d0b1ef1dd85","condD","","<div class=""vertical-center"" style='width:60%;'><img src=""resources/images/US_flag_100x52.jpg"" style=""width:100px;height:52px;opacity:0.35;""> <br> <br> <p style='font-weight:bold;'>Does the middle word sound more like the first word (A) or the last word (B)?</p> <br> <div class=""container""> <div id=""a-box""> <p class=""title-text"">A</h3></p> </div> <div id=""x-box""> <p class=""title-text"">X<p> </div> <div id=""b-box""> <p class=""title-text"">B</p></div> <br> <div style='float: left;padding-left:30px;'><p>Press '1' for A</p></div><div style='float: right;padding-right:30px;'><p>Press '0' for B</p> </div> </div></div>","null","","","","","","","","","","","","","","","",""
"3587","","test","audio-keyboard-response","50","282419","0.0-9.0-1.11","5f088a5a76b70d0b1ef1dd85","condD","","resources/audio/wordStim/S9_AI_29_bxa_Step-3.wav","49","","","","","","resources/audio/wordStim/S9_AI_29_bxa_Step-3.wav","S9","29","bxa","3","CN","MI","S9-MI","1","1","true"
"null","","fixation","html-keyboard-response","51","283423","0.0-9.0-0.12","5f088a5a76b70d0b1ef1dd85","condD","","<div class=""vertical-center"" style='width:60%;'><img src=""resources/images/US_flag_100x52.jpg"" style=""width:100px;height:52px;opacity:0.35;""> <br> <br> <p style='font-weight:bold;'>Does the middle word sound more like the first word (A) or the last word (B)?</p> <br> <div class=""container""> <div id=""a-box""> <p class=""title-text"">A</h3></p> </div> <div id=""x-box""> <p class=""title-text"">X<p> </div> <div id=""b-box""> <p class=""title-text"">B</p></div> <br> <div style='float: left;padding-left:30px;'><p>Press '1' for A</p></div><div style='float: right;padding-right:30px;'><p>Press '0' for B</p> </div> </div></div>","null","","","","","","","","","","","","","","","",""
"3843","","test","audio-keyboard-response","52","287265","0.0-9.0-1.12","5f088a5a76b70d0b1ef1dd85","condD","","resources/audio/wordStim/S9_AU_18_bxa_Step-5.wav","49","","","","","","resources/audio/wordStim/S9_AU_18_bxa_Step-5.wav","S9","18","bxa","5","CN","MI","S9-MI","1","1","true"
"null","","fixation","html-keyboard-response","53","288268","0.0-9.0-0.13","5f088a5a76b70d0b1ef1dd85","condD","","<div class=""vertical-center"" style='width:60%;'><img src=""resources/images/US_flag_100x52.jpg"" style=""width:100px;height:52px;opacity:0.35;""> <br> <br> <p style='font-weight:bold;'>Does the middle word sound more like the first word (A) or the last word (B)?</p> <br> <div class=""container""> <div id=""a-box""> <p class=""title-text"">A</h3></p> </div> <div id=""x-box""> <p class=""title-text"">X<p> </div> <div id=""b-box""> <p class=""title-text"">B</p></div> <br> <div style='float: left;padding-left:30px;'><p>Press '1' for A</p></div><div style='float: right;padding-right:30px;'><p>Press '0' for B</p> </div> </div></div>","null","","","","","","","","","","","","","","","",""
"3193","","test","audio-keyboard-response","54","291466","0.0-9.0-1.13","5f088a5a76b70d0b1ef1dd85","condD","","resources/audio/wordStim/S9_AI_25_bxa_Step-6.wav","48","","","","","","resources/audio/wordStim/S9_AI_25_bxa_Step-6.wav","S9","25","bxa","6","CN","MI","S9-MI","1","0","false"
"null","","fixation","html-keyboard-response","55","292468","0.0-9.0-0.14","5f088a5a76b70d0b1ef1dd85","condD","","<div class=""vertical-center"" style='width:60%;'><img src=""resources/images/US_flag_100x52.jpg"" style=""width:100px;height:52px;opacity:0.35;""> <br> <br> <p style='font-weight:bold;'>Does the middle word sound more like the first word (A) or the last word (B)?</p> <br> <div class=""container""> <div id=""a-box""> <p class=""title-text"">A</h3></p> </div> <div id=""x-box""> <p class=""title-text"">X<p> </div> <div id=""b-box""> <p class=""title-text"">B</p></div> <br> <div style='float: left;padding-left:30px;'><p>Press '1' for A</p></div><div style='float: right;padding-right:30px;'><p>Press '0' for B</p> </div> </div></div>","null","","","","","","","","","","","","","","","",""
"3442","","test","audio-keyboard-response","56","295913","0.0-9.0-1.14","5f088a5a76b70d0b1ef1dd85","condD","","resources/audio/wordStim/S9_AI_23_axb_Step-4.wav","48","","","","","","resources/audio/wordStim/S9_AI_23_axb_Step-4.wav","S9","23","axb","4","CN","MI","S9-MI","0","0","true"
"null","","fixation","html-keyboard-response","57","296919","0.0-9.0-0.15","5f088a5a76b70d0b1ef1dd85","condD","","<div class=""vertical-center"" style='width:60%;'><img src=""resources/images/US_flag_100x52.jpg"" style=""width:100px;height:52px;opacity:0.35;""> <br> <br> <p style='font-weight:bold;'>Does the middle word sound more like the first word (A) or the last word (B)?</p> <br> <div class=""container""> <div id=""a-box""> <p class=""title-text"">A</h3></p> </div> <div id=""x-box""> <p class=""title-text"">X<p> </div> <div id=""b-box""> <p class=""title-text"">B</p></div> <br> <div style='float: left;padding-left:30px;'><p>Press '1' for A</p></div><div style='float: right;padding-right:30px;'><p>Press '0' for B</p> </div> </div></div>","null","","","","","","","","","","","","","","","",""
"3222","","test","audio-keyboard-response","58","300139","0.0-9.0-1.15","5f088a5a76b70d0b1ef1dd85","condD","","resources/audio/wordStim/S9_AI_29_axb_Step-2.wav","49","","","","","","resources/audio/wordStim/S9_AI_29_axb_Step-2.wav","S9","29","axb","2","CN","MI","S9-MI","0","1","false"
"null","","fixation","html-keyboard-response","59","301141","0.0-9.0-0.16","5f088a5a76b70d0b1ef1dd85","condD","","<div class=""vertical-center"" style='width:60%;'><img src=""resources/images/US_flag_100x52.jpg"" style=""width:100px;height:52px;opacity:0.35;""> <br> <br> <p style='font-weight:bold;'>Does the middle word sound more like the first word (A) or the last word (B)?</p> <br> <div class=""container""> <div id=""a-box""> <p class=""title-text"">A</h3></p> </div> <div id=""x-box""> <p class=""title-text"">X<p> </div> <div id=""b-box""> <p class=""title-text"">B</p></div> <br> <div style='float: left;padding-left:30px;'><p>Press '1' for A</p></div><div style='float: right;padding-right:30px;'><p>Press '0' for B</p> </div> </div></div>","null","","","","","","","","","","","","","","","",""
"3744","","test","audio-keyboard-response","60","304887","0.0-9.0-1.16","5f088a5a76b70d0b1ef1dd85","condD","","resources/audio/wordStim/S9_AU_11_bxa_Step-3.wav","49","","","","","","resources/audio/wordStim/S9_AU_11_bxa_Step-3.wav","S9","11","bxa","3","CN","MI","S9-MI","1","1","true"
"null","","fixation","html-keyboard-response","61","305890","0.0-9.0-0.17","5f088a5a76b70d0b1ef1dd85","condD","","<div class=""vertical-center"" style='width:60%;'><img src=""resources/images/US_flag_100x52.jpg"" style=""width:100px;height:52px;opacity:0.35;""> <br> <br> <p style='font-weight:bold;'>Does the middle word sound more like the first word (A) or the last word (B)?</p> <br> <div class=""container""> <div id=""a-box""> <p class=""title-text"">A</h3></p> </div> <div id=""x-box""> <p class=""title-text"">X<p> </div> <div id=""b-box""> <p class=""title-text"">B</p></div> <br> <div style='float: left;padding-left:30px;'><p>Press '1' for A</p></div><div style='float: right;padding-right:30px;'><p>Press '0' for B</p> </div> </div></div>","null","","","","","","","","","","","","","","","",""
"3402","","test","audio-keyboard-response","62","309290","0.0-9.0-1.17","5f088a5a76b70d0b1ef1dd85","condD","","resources/audio/wordStim/S9_AI_23_bxa_Step-6.wav","49","","","","","","resources/audio/wordStim/S9_AI_23_bxa_Step-6.wav","S9","23","bxa","6","CN","MI","S9-MI","1","1","true"
"null","","fixation","html-keyboard-response","63","310295","0.0-9.0-0.18","5f088a5a76b70d0b1ef1dd85","condD","","<div class=""vertical-center"" style='width:60%;'><img src=""resources/images/US_flag_100x52.jpg"" style=""width:100px;height:52px;opacity:0.35;""> <br> <br> <p style='font-weight:bold;'>Does the middle word sound more like the first word (A) or the last word (B)?</p> <br> <div class=""container""> <div id=""a-box""> <p class=""title-text"">A</h3></p> </div> <div id=""x-box""> <p class=""title-text"">X<p> </div> <div id=""b-box""> <p class=""title-text"">B</p></div> <br> <div style='float: left;padding-left:30px;'><p>Press '1' for A</p></div><div style='float: right;padding-right:30px;'><p>Press '0' for B</p> </div> </div></div>","null","","","","","","","","","","","","","","","",""
"3785","","test","audio-keyboard-response","64","314079","0.0-9.0-1.18","5f088a5a76b70d0b1ef1dd85","condD","","resources/audio/wordStim/S9_AU_11_axb_Step-6.wav","48","","","","","","resources/audio/wordStim/S9_AU_11_axb_Step-6.wav","S9","11","axb","6","CN","MI","S9-MI","0","0","true"
"null","","fixation","html-keyboard-response","65","315084","0.0-9.0-0.19","5f088a5a76b70d0b1ef1dd85","condD","","<div class=""vertical-center"" style='width:60%;'><img src=""resources/images/US_flag_100x52.jpg"" style=""width:100px;height:52px;opacity:0.35;""> <br> <br> <p style='font-weight:bold;'>Does the middle word sound more like the first word (A) or the last word (B)?</p> <br> <div class=""container""> <div id=""a-box""> <p class=""title-text"">A</h3></p> </div> <div id=""x-box""> <p class=""title-text"">X<p> </div> <div id=""b-box""> <p class=""title-text"">B</p></div> <br> <div style='float: left;padding-left:30px;'><p>Press '1' for A</p></div><div style='float: right;padding-right:30px;'><p>Press '0' for B</p> </div> </div></div>","null","","","","","","","","","","","","","","","",""
"3274","","test","audio-keyboard-response","66","318358","0.0-9.0-1.19","5f088a5a76b70d0b1ef1dd85","condD","","resources/audio/wordStim/S9_AI_29_bxa_Step-5.wav","49","","","","","","resources/audio/wordStim/S9_AI_29_bxa_Step-5.wav","S9","29","bxa","5","CN","MI","S9-MI","1","1","true"
"null","","fixation","html-keyboard-response","67","319362","0.0-9.0-0.20","5f088a5a76b70d0b1ef1dd85","condD","","<div class=""vertical-center"" style='width:60%;'><img src=""resources/images/US_flag_100x52.jpg"" style=""width:100px;height:52px;opacity:0.35;""> <br> <br> <p style='font-weight:bold;'>Does the middle word sound more like the first word (A) or the last word (B)?</p> <br> <div class=""container""> <div id=""a-box""> <p class=""title-text"">A</h3></p> </div> <div id=""x-box""> <p class=""title-text"">X<p> </div> <div id=""b-box""> <p class=""title-text"">B</p></div> <br> <div style='float: left;padding-left:30px;'><p>Press '1' for A</p></div><div style='float: right;padding-right:30px;'><p>Press '0' for B</p> </div> </div></div>","null","","","","","","","","","","","","","","","",""
"3669","","test","audio-keyboard-response","68","323030","0.0-9.0-1.20","5f088a5a76b70d0b1ef1dd85","condD","","resources/audio/wordStim/S9_AI_25_axb_Step-7.wav","49","","","","","","resources/audio/wordStim/S9_AI_25_axb_Step-7.wav","S9","25","axb","7","CN","MI","S9-MI","0","1","false"
"1212.8200000006473","","break","html-keyboard-response","69","324744","0.0-9.0-2.20-0.20","5f088a5a76b70d0b1ef1dd85","condD","","<div class=""vertical-center""><p>Feel free to take a break!</p><i>When you're ready to continue, press SPACE to begin the next trial.</i></p></div>","32","","","","","","","","","","","","","","","",""
"null","","fixation","html-keyboard-response","70","325247","0.0-9.0-0.21","5f088a5a76b70d0b1ef1dd85","condD","","<div class=""vertical-center"" style='width:60%;'><img src=""resources/images/US_flag_100x52.jpg"" style=""width:100px;height:52px;opacity:0.35;""> <br> <br> <p style='font-weight:bold;'>Does the middle word sound more like the first word (A) or the last word (B)?</p> <br> <div class=""container""> <div id=""a-box""> <p class=""title-text"">A</h3></p> </div> <div id=""x-box""> <p class=""title-text"">X<p> </div> <div id=""b-box""> <p class=""title-text"">B</p></div> <br> <div style='float: left;padding-left:30px;'><p>Press '1' for A</p></div><div style='float: right;padding-right:30px;'><p>Press '0' for B</p> </div> </div></div>","null","","","","","","","","","","","","","","","",""
"2926","","test","audio-keyboard-response","71","328174","0.0-9.0-1.21","5f088a5a76b70d0b1ef1dd85","condD","","resources/audio/wordStim/S9_AU_20_axb_Step-5.wav","49","","","","","","resources/audio/wordStim/S9_AU_20_axb_Step-5.wav","S9","20","axb","5","CN","MI","S9-MI","0","1","false"
"null","","fixation","html-keyboard-response","72","329179","0.0-9.0-0.22","5f088a5a76b70d0b1ef1dd85","condD","","<div class=""vertical-center"" style='width:60%;'><img src=""resources/images/US_flag_100x52.jpg"" style=""width:100px;height:52px;opacity:0.35;""> <br> <br> <p style='font-weight:bold;'>Does the middle word sound more like the first word (A) or the last word (B)?</p> <br> <div class=""container""> <div id=""a-box""> <p class=""title-text"">A</h3></p> </div> <div id=""x-box""> <p class=""title-text"">X<p> </div> <div id=""b-box""> <p class=""title-text"">B</p></div> <br> <div style='float: left;padding-left:30px;'><p>Press '1' for A</p></div><div style='float: right;padding-right:30px;'><p>Press '0' for B</p> </div> </div></div>","null","","","","","","","","","","","","","","","",""
"3239","","test","audio-keyboard-response","73","332419","0.0-9.0-1.22","5f088a5a76b70d0b1ef1dd85","condD","","resources/audio/wordStim/S9_AI_23_axb_Step-6.wav","49","","","","","","resources/audio/wordStim/S9_AI_23_axb_Step-6.wav","S9","23","axb","6","CN","MI","S9-MI","0","1","false"
"null","","fixation","html-keyboard-response","74","333421","0.0-9.0-0.23","5f088a5a76b70d0b1ef1dd85","condD","","<div class=""vertical-center"" style='width:60%;'><img src=""resources/images/US_flag_100x52.jpg"" style=""width:100px;height:52px;opacity:0.35;""> <br> <br> <p style='font-weight:bold;'>Does the middle word sound more like the first word (A) or the last word (B)?</p> <br> <div class=""container""> <div id=""a-box""> <p class=""title-text"">A</h3></p> </div> <div id=""x-box""> <p class=""title-text"">X<p> </div> <div id=""b-box""> <p class=""title-text"">B</p></div> <br> <div style='float: left;padding-left:30px;'><p>Press '1' for A</p></div><div style='float: right;padding-right:30px;'><p>Press '0' for B</p> </div> </div></div>","null","","","","","","","","","","","","","","","",""
"3500","","test","audio-keyboard-response","75","336922","0.0-9.0-1.23","5f088a5a76b70d0b1ef1dd85","condD","","resources/audio/wordStim/S9_AU_18_axb_Step-7.wav","49","","","","","","resources/audio/wordStim/S9_AU_18_axb_Step-7.wav","S9","18","axb","7","CN","MI","S9-MI","0","1","false"
"null","","fixation","html-keyboard-response","76","337927","0.0-9.0-0.24","5f088a5a76b70d0b1ef1dd85","condD","","<div class=""vertical-center"" style='width:60%;'><img src=""resources/images/US_flag_100x52.jpg"" style=""width:100px;height:52px;opacity:0.35;""> <br> <br> <p style='font-weight:bold;'>Does the middle word sound more like the first word (A) or the last word (B)?</p> <br> <div class=""container""> <div id=""a-box""> <p class=""title-text"">A</h3></p> </div> <div id=""x-box""> <p class=""title-text"">X<p> </div> <div id=""b-box""> <p class=""title-text"">B</p></div> <br> <div style='float: left;padding-left:30px;'><p>Press '1' for A</p></div><div style='float: right;padding-right:30px;'><p>Press '0' for B</p> </div> </div></div>","null","","","","","","","","","","","","","","","",""
"3257","","test","audio-keyboard-response","77","341182","0.0-9.0-1.24","5f088a5a76b70d0b1ef1dd85","condD","","resources/audio/wordStim/S9_AU_11_axb_Step-3.wav","49","","","","","","resources/audio/wordStim/S9_AU_11_axb_Step-3.wav","S9","11","axb","3","CN","MI","S9-MI","0","1","false"
"null","","fixation","html-keyboard-response","78","342186","0.0-9.0-0.25","5f088a5a76b70d0b1ef1dd85","condD","","<div class=""vertical-center"" style='width:60%;'><img src=""resources/images/US_flag_100x52.jpg"" style=""width:100px;height:52px;opacity:0.35;""> <br> <br> <p style='font-weight:bold;'>Does the middle word sound more like the first word (A) or the last word (B)?</p> <br> <div class=""container""> <div id=""a-box""> <p class=""title-text"">A</h3></p> </div> <div id=""x-box""> <p class=""title-text"">X<p> </div> <div id=""b-box""> <p class=""title-text"">B</p></div> <br> <div style='float: left;padding-left:30px;'><p>Press '1' for A</p></div><div style='float: right;padding-right:30px;'><p>Press '0' for B</p> </div> </div></div>","null","","","","","","","","","","","","","","","",""
"3222","","test","audio-keyboard-response","79","345412","0.0-9.0-1.25","5f088a5a76b70d0b1ef1dd85","condD","","resources/audio/wordStim/S9_AU_11_axb_Step-7.wav","49","","","","","","resources/audio/wordStim/S9_AU_11_axb_Step-7.wav","S9","11","axb","7","CN","MI","S9-MI","0","1","false"
"null","","fixation","html-keyboard-response","80","346414","0.0-9.0-0.26","5f088a5a76b70d0b1ef1dd85","condD","","<div class=""vertical-center"" style='width:60%;'><img src=""resources/images/US_flag_100x52.jpg"" style=""width:100px;height:52px;opacity:0.35;""> <br> <br> <p style='font-weight:bold;'>Does the middle word sound more like the first word (A) or the last word (B)?</p> <br> <div class=""container""> <div id=""a-box""> <p class=""title-text"">A</h3></p> </div> <div id=""x-box""> <p class=""title-text"">X<p> </div> <div id=""b-box""> <p class=""title-text"">B</p></div> <br> <div style='float: left;padding-left:30px;'><p>Press '1' for A</p></div><div style='float: right;padding-right:30px;'><p>Press '0' for B</p> </div> </div></div>","null","","","","","","","","","","","","","","","",""
"3164","","test","audio-keyboard-response","81","349580","0.0-9.0-1.26","5f088a5a76b70d0b1ef1dd85","condD","","resources/audio/wordStim/S9_AU_20_bxa_Step-3.wav","48","","","","","","resources/audio/wordStim/S9_AU_20_bxa_Step-3.wav","S9","20","bxa","3","CN","MI","S9-MI","1","0","false"
"null","","fixation","html-keyboard-response","82","350584","0.0-9.0-0.27","5f088a5a76b70d0b1ef1dd85","condD","","<div class=""vertical-center"" style='width:60%;'><img src=""resources/images/US_flag_100x52.jpg"" style=""width:100px;height:52px;opacity:0.35;""> <br> <br> <p style='font-weight:bold;'>Does the middle word sound more like the first word (A) or the last word (B)?</p> <br> <div class=""container""> <div id=""a-box""> <p class=""title-text"">A</h3></p> </div> <div id=""x-box""> <p class=""title-text"">X<p> </div> <div id=""b-box""> <p class=""title-text"">B</p></div> <br> <div style='float: left;padding-left:30px;'><p>Press '1' for A</p></div><div style='float: right;padding-right:30px;'><p>Press '0' for B</p> </div> </div></div>","null","","","","","","","","","","","","","","","",""
"3338","","test","audio-keyboard-response","83","353924","0.0-9.0-1.27","5f088a5a76b70d0b1ef1dd85","condD","","resources/audio/wordStim/S9_AU_18_axb_Step-3.wav","49","","","","","","resources/audio/wordStim/S9_AU_18_axb_Step-3.wav","S9","18","axb","3","CN","MI","S9-MI","0","1","false"
"null","","fixation","html-keyboard-response","84","354930","0.0-9.0-0.28","5f088a5a76b70d0b1ef1dd85","condD","","<div class=""vertical-center"" style='width:60%;'><img src=""resources/images/US_flag_100x52.jpg"" style=""width:100px;height:52px;opacity:0.35;""> <br> <br> <p style='font-weight:bold;'>Does the middle word sound more like the first word (A) or the last word (B)?</p> <br> <div class=""container""> <div id=""a-box""> <p class=""title-text"">A</h3></p> </div> <div id=""x-box""> <p class=""title-text"">X<p> </div> <div id=""b-box""> <p class=""title-text"">B</p></div> <br> <div style='float: left;padding-left:30px;'><p>Press '1' for A</p></div><div style='float: right;padding-right:30px;'><p>Press '0' for B</p> </div> </div></div>","null","","","","","","","","","","","","","","","",""
"3617","","test","audio-keyboard-response","85","358550","0.0-9.0-1.28","5f088a5a76b70d0b1ef1dd85","condD","","resources/audio/wordStim/S9_AU_18_axb_Step-4.wav","48","","","","","","resources/audio/wordStim/S9_AU_18_axb_Step-4.wav","S9","18","axb","4","CN","MI","S9-MI","0","0","true"
"null","","fixation","html-keyboard-response","86","359556","0.0-9.0-0.29","5f088a5a76b70d0b1ef1dd85","condD","","<div class=""vertical-center"" style='width:60%;'><img src=""resources/images/US_flag_100x52.jpg"" style=""width:100px;height:52px;opacity:0.35;""> <br> <br> <p style='font-weight:bold;'>Does the middle word sound more like the first word (A) or the last word (B)?</p> <br> <div class=""container""> <div id=""a-box""> <p class=""title-text"">A</h3></p> </div> <div id=""x-box""> <p class=""title-text"">X<p> </div> <div id=""b-box""> <p class=""title-text"">B</p></div> <br> <div style='float: left;padding-left:30px;'><p>Press '1' for A</p></div><div style='float: right;padding-right:30px;'><p>Press '0' for B</p> </div> </div></div>","null","","","","","","","","","","","","","","","",""
"3071","","test","audio-keyboard-response","87","362630","0.0-9.0-1.29","5f088a5a76b70d0b1ef1dd85","condD","","resources/audio/wordStim/S9_AU_20_axb_Step-6.wav","48","","","","","","resources/audio/wordStim/S9_AU_20_axb_Step-6.wav","S9","20","axb","6","CN","MI","S9-MI","0","0","true"
"null","","fixation","html-keyboard-response","88","363632","0.0-9.0-0.30","5f088a5a76b70d0b1ef1dd85","condD","","<div class=""vertical-center"" style='width:60%;'><img src=""resources/images/US_flag_100x52.jpg"" style=""width:100px;height:52px;opacity:0.35;""> <br> <br> <p style='font-weight:bold;'>Does the middle word sound more like the first word (A) or the last word (B)?</p> <br> <div class=""container""> <div id=""a-box""> <p class=""title-text"">A</h3></p> </div> <div id=""x-box""> <p class=""title-text"">X<p> </div> <div id=""b-box""> <p class=""title-text"">B</p></div> <br> <div style='float: left;padding-left:30px;'><p>Press '1' for A</p></div><div style='float: right;padding-right:30px;'><p>Press '0' for B</p> </div> </div></div>","null","","","","","","","","","","","","","","","",""
"3199","","test","audio-keyboard-response","89","366832","0.0-9.0-1.30","5f088a5a76b70d0b1ef1dd85","condD","","resources/audio/wordStim/S9_AI_23_axb_Step-3.wav","49","","","","","","resources/audio/wordStim/S9_AI_23_axb_Step-3.wav","S9","23","axb","3","CN","MI","S9-MI","0","1","false"
"null","","fixation","html-keyboard-response","90","367835","0.0-9.0-0.31","5f088a5a76b70d0b1ef1dd85","condD","","<div class=""vertical-center"" style='width:60%;'><img src=""resources/images/US_flag_100x52.jpg"" style=""width:100px;height:52px;opacity:0.35;""> <br> <br> <p style='font-weight:bold;'>Does the middle word sound more like the first word (A) or the last word (B)?</p> <br> <div class=""container""> <div id=""a-box""> <p class=""title-text"">A</h3></p> </div> <div id=""x-box""> <p class=""title-text"">X<p> </div> <div id=""b-box""> <p class=""title-text"">B</p></div> <br> <div style='float: left;padding-left:30px;'><p>Press '1' for A</p></div><div style='float: right;padding-right:30px;'><p>Press '0' for B</p> </div> </div></div>","null","","","","","","","","","","","","","","","",""
"3599","","test","audio-keyboard-response","91","371434","0.0-9.0-1.31","5f088a5a76b70d0b1ef1dd85","condD","","resources/audio/wordStim/S9_AI_29_axb_Step-6.wav","49","","","","","","resources/audio/wordStim/S9_AI_29_axb_Step-6.wav","S9","29","axb","6","CN","MI","S9-MI","0","1","false"
"null","","fixation","html-keyboard-response","92","372439","0.0-9.0-0.32","5f088a5a76b70d0b1ef1dd85","condD","","<div class=""vertical-center"" style='width:60%;'><img src=""resources/images/US_flag_100x52.jpg"" style=""width:100px;height:52px;opacity:0.35;""> <br> <br> <p style='font-weight:bold;'>Does the middle word sound more like the first word (A) or the last word (B)?</p> <br> <div class=""container""> <div id=""a-box""> <p class=""title-text"">A</h3></p> </div> <div id=""x-box""> <p class=""title-text"">X<p> </div> <div id=""b-box""> <p class=""title-text"">B</p></div> <br> <div style='float: left;padding-left:30px;'><p>Press '1' for A</p></div><div style='float: right;padding-right:30px;'><p>Press '0' for B</p> </div> </div></div>","null","","","","","","","","","","","","","","","",""
"3367","","test","audio-keyboard-response","93","375806","0.0-9.0-1.32","5f088a5a76b70d0b1ef1dd85","condD","","resources/audio/wordStim/S9_AI_23_axb_Step-8.wav","48","","","","","","resources/audio/wordStim/S9_AI_23_axb_Step-8.wav","S9","23","axb","8","CN","MI","S9-MI","0","0","true"
"null","","fixation","html-keyboard-response","94","376811","0.0-9.0-0.33","5f088a5a76b70d0b1ef1dd85","condD","","<div class=""vertical-center"" style='width:60%;'><img src=""resources/images/US_flag_100x52.jpg"" style=""width:100px;height:52px;opacity:0.35;""> <br> <br> <p style='font-weight:bold;'>Does the middle word sound more like the first word (A) or the last word (B)?</p> <br> <div class=""container""> <div id=""a-box""> <p class=""title-text"">A</h3></p> </div> <div id=""x-box""> <p class=""title-text"">X<p> </div> <div id=""b-box""> <p class=""title-text"">B</p></div> <br> <div style='float: left;padding-left:30px;'><p>Press '1' for A</p></div><div style='float: right;padding-right:30px;'><p>Press '0' for B</p> </div> </div></div>","null","","","","","","","","","","","","","","","",""
"7581","","test","audio-keyboard-response","95","384393","0.0-9.0-1.33","5f088a5a76b70d0b1ef1dd85","condD","","resources/audio/wordStim/S9_AI_23_axb_Step-7.wav","48","","","","","","resources/audio/wordStim/S9_AI_23_axb_Step-7.wav","S9","23","axb","7","CN","MI","S9-MI","0","0","true"
"null","","fixation","html-keyboard-response","96","385396","0.0-9.0-0.34","5f088a5a76b70d0b1ef1dd85","condD","","<div class=""vertical-center"" style='width:60%;'><img src=""resources/images/US_flag_100x52.jpg"" style=""width:100px;height:52px;opacity:0.35;""> <br> <br> <p style='font-weight:bold;'>Does the middle word sound more like the first word (A) or the last word (B)?</p> <br> <div class=""container""> <div id=""a-box""> <p class=""title-text"">A</h3></p> </div> <div id=""x-box""> <p class=""title-text"">X<p> </div> <div id=""b-box""> <p class=""title-text"">B</p></div> <br> <div style='float: left;padding-left:30px;'><p>Press '1' for A</p></div><div style='float: right;padding-right:30px;'><p>Press '0' for B</p> </div> </div></div>","null","","","","","","","","","","","","","","","",""
"4197","","test","audio-keyboard-response","97","389596","0.0-9.0-1.34","5f088a5a76b70d0b1ef1dd85","condD","","resources/audio/wordStim/S9_AI_25_axb_Step-2.wav","49","","","","","","resources/audio/wordStim/S9_AI_25_axb_Step-2.wav","S9","25","axb","2","CN","MI","S9-MI","0","1","false"
"null","","fixation","html-keyboard-response","98","390601","0.0-9.0-0.35","5f088a5a76b70d0b1ef1dd85","condD","","<div class=""vertical-center"" style='width:60%;'><img src=""resources/images/US_flag_100x52.jpg"" style=""width:100px;height:52px;opacity:0.35;""> <br> <br> <p style='font-weight:bold;'>Does the middle word sound more like the first word (A) or the last word (B)?</p> <br> <div class=""container""> <div id=""a-box""> <p class=""title-text"">A</h3></p> </div> <div id=""x-box""> <p class=""title-text"">X<p> </div> <div id=""b-box""> <p class=""title-text"">B</p></div> <br> <div style='float: left;padding-left:30px;'><p>Press '1' for A</p></div><div style='float: right;padding-right:30px;'><p>Press '0' for B</p> </div> </div></div>","null","","","","","","","","","","","","","","","",""
"4052","","test","audio-keyboard-response","99","394657","0.0-9.0-1.35","5f088a5a76b70d0b1ef1dd85","condD","","resources/audio/wordStim/S9_AI_23_bxa_Step-8.wav","49","","","","","","resources/audio/wordStim/S9_AI_23_bxa_Step-8.wav","S9","23","bxa","8","CN","MI","S9-MI","1","1","true"
"null","","fixation","html-keyboard-response","100","395661","0.0-9.0-0.36","5f088a5a76b70d0b1ef1dd85","condD","","<div class=""vertical-center"" style='width:60%;'><img src=""resources/images/US_flag_100x52.jpg"" style=""width:100px;height:52px;opacity:0.35;""> <br> <br> <p style='font-weight:bold;'>Does the middle word sound more like the first word (A) or the last word (B)?</p> <br> <div class=""container""> <div id=""a-box""> <p class=""title-text"">A</h3></p> </div> <div id=""x-box""> <p class=""title-text"">X<p> </div> <div id=""b-box""> <p class=""title-text"">B</p></div> <br> <div style='float: left;padding-left:30px;'><p>Press '1' for A</p></div><div style='float: right;padding-right:30px;'><p>Press '0' for B</p> </div> </div></div>","null","","","","","","","","","","","","","","","",""
"4081","","test","audio-keyboard-response","101","399739","0.0-9.0-1.36","5f088a5a76b70d0b1ef1dd85","condD","","resources/audio/wordStim/S9_AU_18_axb_Step-5.wav","49","","","","","","resources/audio/wordStim/S9_AU_18_axb_Step-5.wav","S9","18","axb","5","CN","MI","S9-MI","0","1","false"
"null","","fixation","html-keyboard-response","102","400745","0.0-9.0-0.37","5f088a5a76b70d0b1ef1dd85","condD","","<div class=""vertical-center"" style='width:60%;'><img src=""resources/images/US_flag_100x52.jpg"" style=""width:100px;height:52px;opacity:0.35;""> <br> <br> <p style='font-weight:bold;'>Does the middle word sound more like the first word (A) or the last word (B)?</p> <br> <div class=""container""> <div id=""a-box""> <p class=""title-text"">A</h3></p> </div> <div id=""x-box""> <p class=""title-text"">X<p> </div> <div id=""b-box""> <p class=""title-text"">B</p></div> <br> <div style='float: left;padding-left:30px;'><p>Press '1' for A</p></div><div style='float: right;padding-right:30px;'><p>Press '0' for B</p> </div> </div></div>","null","","","","","","","","","","","","","","","",""
"4058","","test","audio-keyboard-response","103","404803","0.0-9.0-1.37","5f088a5a76b70d0b1ef1dd85","condD","","resources/audio/wordStim/S9_AU_20_axb_Step-4.wav","49","","","","","","resources/audio/wordStim/S9_AU_20_axb_Step-4.wav","S9","20","axb","4","CN","MI","S9-MI","0","1","false"
"null","","fixation","html-keyboard-response","104","405807","0.0-9.0-0.38","5f088a5a76b70d0b1ef1dd85","condD","","<div class=""vertical-center"" style='width:60%;'><img src=""resources/images/US_flag_100x52.jpg"" style=""width:100px;height:52px;opacity:0.35;""> <br> <br> <p style='font-weight:bold;'>Does the middle word sound more like the first word (A) or the last word (B)?</p> <br> <div class=""container""> <div id=""a-box""> <p class=""title-text"">A</h3></p> </div> <div id=""x-box""> <p class=""title-text"">X<p> </div> <div id=""b-box""> <p class=""title-text"">B</p></div> <br> <div style='float: left;padding-left:30px;'><p>Press '1' for A</p></div><div style='float: right;padding-right:30px;'><p>Press '0' for B</p> </div> </div></div>","null","","","","","","","","","","","","","","","",""
"3802","","test","audio-keyboard-response","105","409612","0.0-9.0-1.38","5f088a5a76b70d0b1ef1dd85","condD","","resources/audio/wordStim/S9_AI_29_axb_Step-5.wav","49","","","","","","resources/audio/wordStim/S9_AI_29_axb_Step-5.wav","S9","29","axb","5","CN","MI","S9-MI","0","1","false"
"null","","fixation","html-keyboard-response","106","410615","0.0-9.0-0.39","5f088a5a76b70d0b1ef1dd85","condD","","<div class=""vertical-center"" style='width:60%;'><img src=""resources/images/US_flag_100x52.jpg"" style=""width:100px;height:52px;opacity:0.35;""> <br> <br> <p style='font-weight:bold;'>Does the middle word sound more like the first word (A) or the last word (B)?</p> <br> <div class=""container""> <div id=""a-box""> <p class=""title-text"">A</h3></p> </div> <div id=""x-box""> <p class=""title-text"">X<p> </div> <div id=""b-box""> <p class=""title-text"">B</p></div> <br> <div style='float: left;padding-left:30px;'><p>Press '1' for A</p></div><div style='float: right;padding-right:30px;'><p>Press '0' for B</p> </div> </div></div>","null","","","","","","","","","","","","","","","",""
"3982","","test","audio-keyboard-response","107","414599","0.0-9.0-1.39","5f088a5a76b70d0b1ef1dd85","condD","","resources/audio/wordStim/S9_AU_20_axb_Step-8.wav","49","","","","","","resources/audio/wordStim/S9_AU_20_axb_Step-8.wav","S9","20","axb","8","CN","MI","S9-MI","0","1","false"
"null","","fixation","html-keyboard-response","108","415604","0.0-9.0-0.40","5f088a5a76b70d0b1ef1dd85","condD","","<div class=""vertical-center"" style='width:60%;'><img src=""resources/images/US_flag_100x52.jpg"" style=""width:100px;height:52px;opacity:0.35;""> <br> <br> <p style='font-weight:bold;'>Does the middle word sound more like the first word (A) or the last word (B)?</p> <br> <div class=""container""> <div id=""a-box""> <p class=""title-text"">A</h3></p> </div> <div id=""x-box""> <p class=""title-text"">X<p> </div> <div id=""b-box""> <p class=""title-text"">B</p></div> <br> <div style='float: left;padding-left:30px;'><p>Press '1' for A</p></div><div style='float: right;padding-right:30px;'><p>Press '0' for B</p> </div> </div></div>","null","","","","","","","","","","","","","","","",""
"3971","","test","audio-keyboard-response","109","419577","0.0-9.0-1.40","5f088a5a76b70d0b1ef1dd85","condD","","resources/audio/wordStim/S9_AU_18_bxa_Step-8.wav","49","","","","","","resources/audio/wordStim/S9_AU_18_bxa_Step-8.wav","S9","18","bxa","8","CN","MI","S9-MI","1","1","true"
"null","","fixation","html-keyboard-response","110","420581","0.0-9.0-0.41","5f088a5a76b70d0b1ef1dd85","condD","","<div class=""vertical-center"" style='width:60%;'><img src=""resources/images/US_flag_100x52.jpg"" style=""width:100px;height:52px;opacity:0.35;""> <br> <br> <p style='font-weight:bold;'>Does the middle word sound more like the first word (A) or the last word (B)?</p> <br> <div class=""container""> <div id=""a-box""> <p class=""title-text"">A</h3></p> </div> <div id=""x-box""> <p class=""title-text"">X<p> </div> <div id=""b-box""> <p class=""title-text"">B</p></div> <br> <div style='float: left;padding-left:30px;'><p>Press '1' for A</p></div><div style='float: right;padding-right:30px;'><p>Press '0' for B</p> </div> </div></div>","null","","","","","","","","","","","","","","","",""
"5045","","test","audio-keyboard-response","111","425629","0.0-9.0-1.41","5f088a5a76b70d0b1ef1dd85","condD","","resources/audio/wordStim/S9_AI_23_bxa_Step-4.wav","49","","","","","","resources/audio/wordStim/S9_AI_23_bxa_Step-4.wav","S9","23","bxa","4","CN","MI","S9-MI","1","1","true"
"4828.764999998384","","break","html-keyboard-response","112","430958","0.0-9.0-2.41-0.41","5f088a5a76b70d0b1ef1dd85","condD","","<div class=""vertical-center""><p>Feel free to take a break!</p><i>When you're ready to continue, press SPACE to begin the next trial.</i></p></div>","32","","","","","","","","","","","","","","","",""
"null","","fixation","html-keyboard-response","113","431464","0.0-9.0-0.42","5f088a5a76b70d0b1ef1dd85","condD","","<div class=""vertical-center"" style='width:60%;'><img src=""resources/images/US_flag_100x52.jpg"" style=""width:100px;height:52px;opacity:0.35;""> <br> <br> <p style='font-weight:bold;'>Does the middle word sound more like the first word (A) or the last word (B)?</p> <br> <div class=""container""> <div id=""a-box""> <p class=""title-text"">A</h3></p> </div> <div id=""x-box""> <p class=""title-text"">X<p> </div> <div id=""b-box""> <p class=""title-text"">B</p></div> <br> <div style='float: left;padding-left:30px;'><p>Press '1' for A</p></div><div style='float: right;padding-right:30px;'><p>Press '0' for B</p> </div> </div></div>","null","","","","","","","","","","","","","","","",""
"3199","","test","audio-keyboard-response","114","434664","0.0-9.0-1.42","5f088a5a76b70d0b1ef1dd85","condD","","resources/audio/wordStim/S9_AI_29_axb_Step-8.wav","48","","","","","","resources/audio/wordStim/S9_AI_29_axb_Step-8.wav","S9","29","axb","8","CN","MI","S9-MI","0","0","true"
"null","","fixation","html-keyboard-response","115","435669","0.0-9.0-0.43","5f088a5a76b70d0b1ef1dd85","condD","","<div class=""vertical-center"" style='width:60%;'><img src=""resources/images/US_flag_100x52.jpg"" style=""width:100px;height:52px;opacity:0.35;""> <br> <br> <p style='font-weight:bold;'>Does the middle word sound more like the first word (A) or the last word (B)?</p> <br> <div class=""container""> <div id=""a-box""> <p class=""title-text"">A</h3></p> </div> <div id=""x-box""> <p class=""title-text"">X<p> </div> <div id=""b-box""> <p class=""title-text"">B</p></div> <br> <div style='float: left;padding-left:30px;'><p>Press '1' for A</p></div><div style='float: right;padding-right:30px;'><p>Press '0' for B</p> </div> </div></div>","null","","","","","","","","","","","","","","","",""
"3413","","test","audio-keyboard-response","116","439081","0.0-9.0-1.43","5f088a5a76b70d0b1ef1dd85","condD","","resources/audio/wordStim/S9_AU_11_bxa_Step-5.wav","49","","","","","","resources/audio/wordStim/S9_AU_11_bxa_Step-5.wav","S9","11","bxa","5","CN","MI","S9-MI","1","1","true"
"null","","fixation","html-keyboard-response","117","440086","0.0-9.0-0.44","5f088a5a76b70d0b1ef1dd85","condD","","<div class=""vertical-center"" style='width:60%;'><img src=""resources/images/US_flag_100x52.jpg"" style=""width:100px;height:52px;opacity:0.35;""> <br> <br> <p style='font-weight:bold;'>Does the middle word sound more like the first word (A) or the last word (B)?</p> <br> <div class=""container""> <div id=""a-box""> <p class=""title-text"">A</h3></p> </div> <div id=""x-box""> <p class=""title-text"">X<p> </div> <div id=""b-box""> <p class=""title-text"">B</p></div> <br> <div style='float: left;padding-left:30px;'><p>Press '1' for A</p></div><div style='float: right;padding-right:30px;'><p>Press '0' for B</p> </div> </div></div>","null","","","","","","","","","","","","","","","",""
"3036","","test","audio-keyboard-response","118","443123","0.0-9.0-1.44","5f088a5a76b70d0b1ef1dd85","condD","","resources/audio/wordStim/S9_AI_23_axb_Step-5.wav","49","","","","","","resources/audio/wordStim/S9_AI_23_axb_Step-5.wav","S9","23","axb","5","CN","MI","S9-MI","0","1","false"
"null","","fixation","html-keyboard-response","119","444126","0.0-9.0-0.45","5f088a5a76b70d0b1ef1dd85","condD","","<div class=""vertical-center"" style='width:60%;'><img src=""resources/images/US_flag_100x52.jpg"" style=""width:100px;height:52px;opacity:0.35;""> <br> <br> <p style='font-weight:bold;'>Does the middle word sound more like the first word (A) or the last word (B)?</p> <br> <div class=""container""> <div id=""a-box""> <p class=""title-text"">A</h3></p> </div> <div id=""x-box""> <p class=""title-text"">X<p> </div> <div id=""b-box""> <p class=""title-text"">B</p></div> <br> <div style='float: left;padding-left:30px;'><p>Press '1' for A</p></div><div style='float: right;padding-right:30px;'><p>Press '0' for B</p> </div> </div></div>","null","","","","","","","","","","","","","","","",""
"3228","","test","audio-keyboard-response","120","447354","0.0-9.0-1.45","5f088a5a76b70d0b1ef1dd85","condD","","resources/audio/wordStim/S9_AU_11_axb_Step-4.wav","49","","","","","","resources/audio/wordStim/S9_AU_11_axb_Step-4.wav","S9","11","axb","4","CN","MI","S9-MI","0","1","false"
"null","","fixation","html-keyboard-response","121","448359","0.0-9.0-0.46","5f088a5a76b70d0b1ef1dd85","condD","","<div class=""vertical-center"" style='width:60%;'><img src=""resources/images/US_flag_100x52.jpg"" style=""width:100px;height:52px;opacity:0.35;""> <br> <br> <p style='font-weight:bold;'>Does the middle word sound more like the first word (A) or the last word (B)?</p> <br> <div class=""container""> <div id=""a-box""> <p class=""title-text"">A</h3></p> </div> <div id=""x-box""> <p class=""title-text"">X<p> </div> <div id=""b-box""> <p class=""title-text"">B</p></div> <br> <div style='float: left;padding-left:30px;'><p>Press '1' for A</p></div><div style='float: right;padding-right:30px;'><p>Press '0' for B</p> </div> </div></div>","null","","","","","","","","","","","","","","","",""
"3657","","test","audio-keyboard-response","122","452016","0.0-9.0-1.46","5f088a5a76b70d0b1ef1dd85","condD","","resources/audio/wordStim/S9_AU_11_bxa_Step-6.wav","49","","","","","","resources/audio/wordStim/S9_AU_11_bxa_Step-6.wav","S9","11","bxa","6","CN","MI","S9-MI","1","1","true"
"null","","fixation","html-keyboard-response","123","453020","0.0-9.0-0.47","5f088a5a76b70d0b1ef1dd85","condD","","<div class=""vertical-center"" style='width:60%;'><img src=""resources/images/US_flag_100x52.jpg"" style=""width:100px;height:52px;opacity:0.35;""> <br> <br> <p style='font-weight:bold;'>Does the middle word sound more like the first word (A) or the last word (B)?</p> <br> <div class=""container""> <div id=""a-box""> <p class=""title-text"">A</h3></p> </div> <div id=""x-box""> <p class=""title-text"">X<p> </div> <div id=""b-box""> <p class=""title-text"">B</p></div> <br> <div style='float: left;padding-left:30px;'><p>Press '1' for A</p></div><div style='float: right;padding-right:30px;'><p>Press '0' for B</p> </div> </div></div>","null","","","","","","","","","","","","","","","",""
"3274","","test","audio-keyboard-response","124","456295","0.0-9.0-1.47","5f088a5a76b70d0b1ef1dd85","condD","","resources/audio/wordStim/S9_AU_11_axb_Step-8.wav","48","","","","","","resources/audio/wordStim/S9_AU_11_axb_Step-8.wav","S9","11","axb","8","CN","MI","S9-MI","0","0","true"
"null","","fixation","html-keyboard-response","125","457298","0.0-9.0-0.48","5f088a5a76b70d0b1ef1dd85","condD","","<div class=""vertical-center"" style='width:60%;'><img src=""resources/images/US_flag_100x52.jpg"" style=""width:100px;height:52px;opacity:0.35;""> <br> <br> <p style='font-weight:bold;'>Does the middle word sound more like the first word (A) or the last word (B)?</p> <br> <div class=""container""> <div id=""a-box""> <p class=""title-text"">A</h3></p> </div> <div id=""x-box""> <p class=""title-text"">X<p> </div> <div id=""b-box""> <p class=""title-text"">B</p></div> <br> <div style='float: left;padding-left:30px;'><p>Press '1' for A</p></div><div style='float: right;padding-right:30px;'><p>Press '0' for B</p> </div> </div></div>","null","","","","","","","","","","","","","","","",""
"3349","","test","audio-keyboard-response","126","460648","0.0-9.0-1.48","5f088a5a76b70d0b1ef1dd85","condD","","resources/audio/wordStim/S9_AI_29_bxa_Step-2.wav","48","","","","","","resources/audio/wordStim/S9_AI_29_bxa_Step-2.wav","S9","29","bxa","2","CN","MI","S9-MI","1","0","false"
"null","","fixation","html-keyboard-response","127","461652","0.0-9.0-0.49","5f088a5a76b70d0b1ef1dd85","condD","","<div class=""vertical-center"" style='width:60%;'><img src=""resources/images/US_flag_100x52.jpg"" style=""width:100px;height:52px;opacity:0.35;""> <br> <br> <p style='font-weight:bold;'>Does the middle word sound more like the first word (A) or the last word (B)?</p> <br> <div class=""container""> <div id=""a-box""> <p class=""title-text"">A</h3></p> </div> <div id=""x-box""> <p class=""title-text"">X<p> </div> <div id=""b-box""> <p class=""title-text"">B</p></div> <br> <div style='float: left;padding-left:30px;'><p>Press '1' for A</p></div><div style='float: right;padding-right:30px;'><p>Press '0' for B</p> </div> </div></div>","null","","","","","","","","","","","","","","","",""
"3024","","test","audio-keyboard-response","128","464679","0.0-9.0-1.49","5f088a5a76b70d0b1ef1dd85","condD","","resources/audio/wordStim/S9_AI_25_bxa_Step-8.wav","49","","","","","","resources/audio/wordStim/S9_AI_25_bxa_Step-8.wav","S9","25","bxa","8","CN","MI","S9-MI","1","1","true"
"null","","fixation","html-keyboard-response","129","465683","0.0-9.0-0.50","5f088a5a76b70d0b1ef1dd85","condD","","<div class=""vertical-center"" style='width:60%;'><img src=""resources/images/US_flag_100x52.jpg"" style=""width:100px;height:52px;opacity:0.35;""> <br> <br> <p style='font-weight:bold;'>Does the middle word sound more like the first word (A) or the last word (B)?</p> <br> <div class=""container""> <div id=""a-box""> <p class=""title-text"">A</h3></p> </div> <div id=""x-box""> <p class=""title-text"">X<p> </div> <div id=""b-box""> <p class=""title-text"">B</p></div> <br> <div style='float: left;padding-left:30px;'><p>Press '1' for A</p></div><div style='float: right;padding-right:30px;'><p>Press '0' for B</p> </div> </div></div>","null","","","","","","","","","","","","","","","",""
"3019","","test","audio-keyboard-response","130","468701","0.0-9.0-1.50","5f088a5a76b70d0b1ef1dd85","condD","","resources/audio/wordStim/S9_AI_23_bxa_Step-5.wav","48","","","","","","resources/audio/wordStim/S9_AI_23_bxa_Step-5.wav","S9","23","bxa","5","CN","MI","S9-MI","1","0","false"
"null","","fixation","html-keyboard-response","131","469704","0.0-9.0-0.51","5f088a5a76b70d0b1ef1dd85","condD","","<div class=""vertical-center"" style='width:60%;'><img src=""resources/images/US_flag_100x52.jpg"" style=""width:100px;height:52px;opacity:0.35;""> <br> <br> <p style='font-weight:bold;'>Does the middle word sound more like the first word (A) or the last word (B)?</p> <br> <div class=""container""> <div id=""a-box""> <p class=""title-text"">A</h3></p> </div> <div id=""x-box""> <p class=""title-text"">X<p> </div> <div id=""b-box""> <p class=""title-text"">B</p></div> <br> <div style='float: left;padding-left:30px;'><p>Press '1' for A</p></div><div style='float: right;padding-right:30px;'><p>Press '0' for B</p> </div> </div></div>","null","","","","","","","","","","","","","","","",""
"3013","","test","audio-keyboard-response","132","472718","0.0-9.0-1.51","5f088a5a76b70d0b1ef1dd85","condD","","resources/audio/wordStim/S9_AI_25_axb_Step-3.wav","49","","","","","","resources/audio/wordStim/S9_AI_25_axb_Step-3.wav","S9","25","axb","3","CN","MI","S9-MI","0","1","false"
"null","","fixation","html-keyboard-response","133","473721","0.0-9.0-0.52","5f088a5a76b70d0b1ef1dd85","condD","","<div class=""vertical-center"" style='width:60%;'><img src=""resources/images/US_flag_100x52.jpg"" style=""width:100px;height:52px;opacity:0.35;""> <br> <br> <p style='font-weight:bold;'>Does the middle word sound more like the first word (A) or the last word (B)?</p> <br> <div class=""container""> <div id=""a-box""> <p class=""title-text"">A</h3></p> </div> <div id=""x-box""> <p class=""title-text"">X<p> </div> <div id=""b-box""> <p class=""title-text"">B</p></div> <br> <div style='float: left;padding-left:30px;'><p>Press '1' for A</p></div><div style='float: right;padding-right:30px;'><p>Press '0' for B</p> </div> </div></div>","null","","","","","","","","","","","","","","","",""
"3489","","test","audio-keyboard-response","134","477212","0.0-9.0-1.52","5f088a5a76b70d0b1ef1dd85","condD","","resources/audio/wordStim/S9_AI_29_bxa_Step-8.wav","49","","","","","","resources/audio/wordStim/S9_AI_29_bxa_Step-8.wav","S9","29","bxa","8","CN","MI","S9-MI","1","1","true"
"null","","fixation","html-keyboard-response","135","478214","0.0-9.0-0.53","5f088a5a76b70d0b1ef1dd85","condD","","<div class=""vertical-center"" style='width:60%;'><img src=""resources/images/US_flag_100x52.jpg"" style=""width:100px;height:52px;opacity:0.35;""> <br> <br> <p style='font-weight:bold;'>Does the middle word sound more like the first word (A) or the last word (B)?</p> <br> <div class=""container""> <div id=""a-box""> <p class=""title-text"">A</h3></p> </div> <div id=""x-box""> <p class=""title-text"">X<p> </div> <div id=""b-box""> <p class=""title-text"">B</p></div> <br> <div style='float: left;padding-left:30px;'><p>Press '1' for A</p></div><div style='float: right;padding-right:30px;'><p>Press '0' for B</p> </div> </div></div>","null","","","","","","","","","","","","","","","",""
"4005","","test","audio-keyboard-response","136","482224","0.0-9.0-1.53","5f088a5a76b70d0b1ef1dd85","condD","","resources/audio/wordStim/S9_AU_18_axb_Step-6.wav","49","","","","","","resources/audio/wordStim/S9_AU_18_axb_Step-6.wav","S9","18","axb","6","CN","MI","S9-MI","0","1","false"
"null","","fixation","html-keyboard-response","137","483230","0.0-9.0-0.54","5f088a5a76b70d0b1ef1dd85","condD","","<div class=""vertical-center"" style='width:60%;'><img src=""resources/images/US_flag_100x52.jpg"" style=""width:100px;height:52px;opacity:0.35;""> <br> <br> <p style='font-weight:bold;'>Does the middle word sound more like the first word (A) or the last word (B)?</p> <br> <div class=""container""> <div id=""a-box""> <p class=""title-text"">A</h3></p> </div> <div id=""x-box""> <p class=""title-text"">X<p> </div> <div id=""b-box""> <p class=""title-text"">B</p></div> <br> <div style='float: left;padding-left:30px;'><p>Press '1' for A</p></div><div style='float: right;padding-right:30px;'><p>Press '0' for B</p> </div> </div></div>","null","","","","","","","","","","","","","","","",""
"3100","","test","audio-keyboard-response","138","486330","0.0-9.0-1.54","5f088a5a76b70d0b1ef1dd85","condD","","resources/audio/wordStim/S9_AI_25_bxa_Step-4.wav","48","","","","","","resources/audio/wordStim/S9_AI_25_bxa_Step-4.wav","S9","25","bxa","4","CN","MI","S9-MI","1","0","false"
"null","","fixation","html-keyboard-response","139","487335","0.0-9.0-0.55","5f088a5a76b70d0b1ef1dd85","condD","","<div class=""vertical-center"" style='width:60%;'><img src=""resources/images/US_flag_100x52.jpg"" style=""width:100px;height:52px;opacity:0.35;""> <br> <br> <p style='font-weight:bold;'>Does the middle word sound more like the first word (A) or the last word (B)?</p> <br> <div class=""container""> <div id=""a-box""> <p class=""title-text"">A</h3></p> </div> <div id=""x-box""> <p class=""title-text"">X<p> </div> <div id=""b-box""> <p class=""title-text"">B</p></div> <br> <div style='float: left;padding-left:30px;'><p>Press '1' for A</p></div><div style='float: right;padding-right:30px;'><p>Press '0' for B</p> </div> </div></div>","null","","","","","","","","","","","","","","","",""
"4685","","test","audio-keyboard-response","140","492022","0.0-9.0-1.55","5f088a5a76b70d0b1ef1dd85","condD","","resources/audio/wordStim/S9_AI_29_bxa_Step-6.wav","49","","","","","","resources/audio/wordStim/S9_AI_29_bxa_Step-6.wav","S9","29","bxa","6","CN","MI","S9-MI","1","1","true"
"null","","fixation","html-keyboard-response","141","493026","0.0-9.0-0.56","5f088a5a76b70d0b1ef1dd85","condD","","<div class=""vertical-center"" style='width:60%;'><img src=""resources/images/US_flag_100x52.jpg"" style=""width:100px;height:52px;opacity:0.35;""> <br> <br> <p style='font-weight:bold;'>Does the middle word sound more like the first word (A) or the last word (B)?</p> <br> <div class=""container""> <div id=""a-box""> <p class=""title-text"">A</h3></p> </div> <div id=""x-box""> <p class=""title-text"">X<p> </div> <div id=""b-box""> <p class=""title-text"">B</p></div> <br> <div style='float: left;padding-left:30px;'><p>Press '1' for A</p></div><div style='float: right;padding-right:30px;'><p>Press '0' for B</p> </div> </div></div>","null","","","","","","","","","","","","","","","",""
"3106","","test","audio-keyboard-response","142","496131","0.0-9.0-1.56","5f088a5a76b70d0b1ef1dd85","condD","","resources/audio/wordStim/S9_AI_29_axb_Step-4.wav","49","","","","","","resources/audio/wordStim/S9_AI_29_axb_Step-4.wav","S9","29","axb","4","CN","MI","S9-MI","0","1","false"
"null","","fixation","html-keyboard-response","143","497133","0.0-9.0-0.57","5f088a5a76b70d0b1ef1dd85","condD","","<div class=""vertical-center"" style='width:60%;'><img src=""resources/images/US_flag_100x52.jpg"" style=""width:100px;height:52px;opacity:0.35;""> <br> <br> <p style='font-weight:bold;'>Does the middle word sound more like the first word (A) or the last word (B)?</p> <br> <div class=""container""> <div id=""a-box""> <p class=""title-text"">A</h3></p> </div> <div id=""x-box""> <p class=""title-text"">X<p> </div> <div id=""b-box""> <p class=""title-text"">B</p></div> <br> <div style='float: left;padding-left:30px;'><p>Press '1' for A</p></div><div style='float: right;padding-right:30px;'><p>Press '0' for B</p> </div> </div></div>","null","","","","","","","","","","","","","","","",""
"3042","","test","audio-keyboard-response","144","500176","0.0-9.0-1.57","5f088a5a76b70d0b1ef1dd85","condD","","resources/audio/wordStim/S9_AI_25_bxa_Step-5.wav","48","","","","","","resources/audio/wordStim/S9_AI_25_bxa_Step-5.wav","S9","25","bxa","5","CN","MI","S9-MI","1","0","false"
"null","","fixation","html-keyboard-response","145","501182","0.0-9.0-0.58","5f088a5a76b70d0b1ef1dd85","condD","","<div class=""vertical-center"" style='width:60%;'><img src=""resources/images/US_flag_100x52.jpg"" style=""width:100px;height:52px;opacity:0.35;""> <br> <br> <p style='font-weight:bold;'>Does the middle word sound more like the first word (A) or the last word (B)?</p> <br> <div class=""container""> <div id=""a-box""> <p class=""title-text"">A</h3></p> </div> <div id=""x-box""> <p class=""title-text"">X<p> </div> <div id=""b-box""> <p class=""title-text"">B</p></div> <br> <div style='float: left;padding-left:30px;'><p>Press '1' for A</p></div><div style='float: right;padding-right:30px;'><p>Press '0' for B</p> </div> </div></div>","null","","","","","","","","","","","","","","","",""
"2966","","test","audio-keyboard-response","146","504148","0.0-9.0-1.58","5f088a5a76b70d0b1ef1dd85","condD","","resources/audio/wordStim/S9_AI_29_axb_Step-7.wav","48","","","","","","resources/audio/wordStim/S9_AI_29_axb_Step-7.wav","S9","29","axb","7","CN","MI","S9-MI","0","0","true"
"null","","fixation","html-keyboard-response","147","505152","0.0-9.0-0.59","5f088a5a76b70d0b1ef1dd85","condD","","<div class=""vertical-center"" style='width:60%;'><img src=""resources/images/US_flag_100x52.jpg"" style=""width:100px;height:52px;opacity:0.35;""> <br> <br> <p style='font-weight:bold;'>Does the middle word sound more like the first word (A) or the last word (B)?</p> <br> <div class=""container""> <div id=""a-box""> <p class=""title-text"">A</h3></p> </div> <div id=""x-box""> <p class=""title-text"">X<p> </div> <div id=""b-box""> <p class=""title-text"">B</p></div> <br> <div style='float: left;padding-left:30px;'><p>Press '1' for A</p></div><div style='float: right;padding-right:30px;'><p>Press '0' for B</p> </div> </div></div>","null","","","","","","","","","","","","","","","",""
"2299","","test","audio-keyboard-response","148","507448","0.0-9.0-1.59","5f088a5a76b70d0b1ef1dd85","condD","","resources/audio/wordStim/S9_AI_23_bxa_Step-2.wav","49","","","","","","resources/audio/wordStim/S9_AI_23_bxa_Step-2.wav","S9","23","bxa","2","CN","MI","S9-MI","1","1","true"
"null","","fixation","html-keyboard-response","149","508454","0.0-9.0-0.60","5f088a5a76b70d0b1ef1dd85","condD","","<div class=""vertical-center"" style='width:60%;'><img src=""resources/images/US_flag_100x52.jpg"" style=""width:100px;height:52px;opacity:0.35;""> <br> <br> <p style='font-weight:bold;'>Does the middle word sound more like the first word (A) or the last word (B)?</p> <br> <div class=""container""> <div id=""a-box""> <p class=""title-text"">A</h3></p> </div> <div id=""x-box""> <p class=""title-text"">X<p> </div> <div id=""b-box""> <p class=""title-text"">B</p></div> <br> <div style='float: left;padding-left:30px;'><p>Press '1' for A</p></div><div style='float: right;padding-right:30px;'><p>Press '0' for B</p> </div> </div></div>","null","","","","","","","","","","","","","","","",""
"3291","","test","audio-keyboard-response","150","511745","0.0-9.0-1.60","5f088a5a76b70d0b1ef1dd85","condD","","resources/audio/wordStim/S9_AU_20_axb_Step-2.wav","49","","","","","","resources/audio/wordStim/S9_AU_20_axb_Step-2.wav","S9","20","axb","2","CN","MI","S9-MI","0","1","false"
"null","","fixation","html-keyboard-response","151","512750","0.0-9.0-0.61","5f088a5a76b70d0b1ef1dd85","condD","","<div class=""vertical-center"" style='width:60%;'><img src=""resources/images/US_flag_100x52.jpg"" style=""width:100px;height:52px;opacity:0.35;""> <br> <br> <p style='font-weight:bold;'>Does the middle word sound more like the first word (A) or the last word (B)?</p> <br> <div class=""container""> <div id=""a-box""> <p class=""title-text"">A</h3></p> </div> <div id=""x-box""> <p class=""title-text"">X<p> </div> <div id=""b-box""> <p class=""title-text"">B</p></div> <br> <div style='float: left;padding-left:30px;'><p>Press '1' for A</p></div><div style='float: right;padding-right:30px;'><p>Press '0' for B</p> </div> </div></div>","null","","","","","","","","","","","","","","","",""
"3297","","test","audio-keyboard-response","152","516050","0.0-9.0-1.61","5f088a5a76b70d0b1ef1dd85","condD","","resources/audio/wordStim/S9_AU_18_bxa_Step-3.wav","48","","","","","","resources/audio/wordStim/S9_AU_18_bxa_Step-3.wav","S9","18","bxa","3","CN","MI","S9-MI","1","0","false"
"null","","fixation","html-keyboard-response","153","517055","0.0-9.0-0.62","5f088a5a76b70d0b1ef1dd85","condD","","<div class=""vertical-center"" style='width:60%;'><img src=""resources/images/US_flag_100x52.jpg"" style=""width:100px;height:52px;opacity:0.35;""> <br> <br> <p style='font-weight:bold;'>Does the middle word sound more like the first word (A) or the last word (B)?</p> <br> <div class=""container""> <div id=""a-box""> <p class=""title-text"">A</h3></p> </div> <div id=""x-box""> <p class=""title-text"">X<p> </div> <div id=""b-box""> <p class=""title-text"">B</p></div> <br> <div style='float: left;padding-left:30px;'><p>Press '1' for A</p></div><div style='float: right;padding-right:30px;'><p>Press '0' for B</p> </div> </div></div>","null","","","","","","","","","","","","","","","",""
"3541","","test","audio-keyboard-response","154","520598","0.0-9.0-1.62","5f088a5a76b70d0b1ef1dd85","condD","","resources/audio/wordStim/S9_AI_23_bxa_Step-7.wav","49","","","","","","resources/audio/wordStim/S9_AI_23_bxa_Step-7.wav","S9","23","bxa","7","CN","MI","S9-MI","1","1","true"
"1579.9450000049546","","break","html-keyboard-response","155","522679","0.0-9.0-2.62-0.62","5f088a5a76b70d0b1ef1dd85","condD","","<div class=""vertical-center""><p>Feel free to take a break!</p><i>When you're ready to continue, press SPACE to begin the next trial.</i></p></div>","32","","","","","","","","","","","","","","","",""
"null","","fixation","html-keyboard-response","156","523180","0.0-9.0-0.63","5f088a5a76b70d0b1ef1dd85","condD","","<div class=""vertical-center"" style='width:60%;'><img src=""resources/images/US_flag_100x52.jpg"" style=""width:100px;height:52px;opacity:0.35;""> <br> <br> <p style='font-weight:bold;'>Does the middle word sound more like the first word (A) or the last word (B)?</p> <br> <div class=""container""> <div id=""a-box""> <p class=""title-text"">A</h3></p> </div> <div id=""x-box""> <p class=""title-text"">X<p> </div> <div id=""b-box""> <p class=""title-text"">B</p></div> <br> <div style='float: left;padding-left:30px;'><p>Press '1' for A</p></div><div style='float: right;padding-right:30px;'><p>Press '0' for B</p> </div> </div></div>","null","","","","","","","","","","","","","","","",""
"2781","","test","audio-keyboard-response","157","525962","0.0-9.0-1.63","5f088a5a76b70d0b1ef1dd85","condD","","resources/audio/wordStim/S9_AU_20_bxa_Step-7.wav","49","","","","","","resources/audio/wordStim/S9_AU_20_bxa_Step-7.wav","S9","20","bxa","7","CN","MI","S9-MI","1","1","true"
"null","","fixation","html-keyboard-response","158","526966","0.0-9.0-0.64","5f088a5a76b70d0b1ef1dd85","condD","","<div class=""vertical-center"" style='width:60%;'><img src=""resources/images/US_flag_100x52.jpg"" style=""width:100px;height:52px;opacity:0.35;""> <br> <br> <p style='font-weight:bold;'>Does the middle word sound more like the first word (A) or the last word (B)?</p> <br> <div class=""container""> <div id=""a-box""> <p class=""title-text"">A</h3></p> </div> <div id=""x-box""> <p class=""title-text"">X<p> </div> <div id=""b-box""> <p class=""title-text"">B</p></div> <br> <div style='float: left;padding-left:30px;'><p>Press '1' for A</p></div><div style='float: right;padding-right:30px;'><p>Press '0' for B</p> </div> </div></div>","null","","","","","","","","","","","","","","","",""
"2096","","test","audio-keyboard-response","159","529064","0.0-9.0-1.64","5f088a5a76b70d0b1ef1dd85","condD","","resources/audio/wordStim/S9_AI_23_bxa_Step-3.wav","48","","","","","","resources/audio/wordStim/S9_AI_23_bxa_Step-3.wav","S9","23","bxa","3","CN","MI","S9-MI","1","0","false"
"null","","fixation","html-keyboard-response","160","530066","0.0-9.0-0.65","5f088a5a76b70d0b1ef1dd85","condD","","<div class=""vertical-center"" style='width:60%;'><img src=""resources/images/US_flag_100x52.jpg"" style=""width:100px;height:52px;opacity:0.35;""> <br> <br> <p style='font-weight:bold;'>Does the middle word sound more like the first word (A) or the last word (B)?</p> <br> <div class=""container""> <div id=""a-box""> <p class=""title-text"">A</h3></p> </div> <div id=""x-box""> <p class=""title-text"">X<p> </div> <div id=""b-box""> <p class=""title-text"">B</p></div> <br> <div style='float: left;padding-left:30px;'><p>Press '1' for A</p></div><div style='float: right;padding-right:30px;'><p>Press '0' for B</p> </div> </div></div>","null","","","","","","","","","","","","","","","",""
"2868","","test","audio-keyboard-response","161","532933","0.0-9.0-1.65","5f088a5a76b70d0b1ef1dd85","condD","","resources/audio/wordStim/S9_AU_20_axb_Step-7.wav","48","","","","","","resources/audio/wordStim/S9_AU_20_axb_Step-7.wav","S9","20","axb","7","CN","MI","S9-MI","0","0","true"
"null","","fixation","html-keyboard-response","162","533938","0.0-9.0-0.66","5f088a5a76b70d0b1ef1dd85","condD","","<div class=""vertical-center"" style='width:60%;'><img src=""resources/images/US_flag_100x52.jpg"" style=""width:100px;height:52px;opacity:0.35;""> <br> <br> <p style='font-weight:bold;'>Does the middle word sound more like the first word (A) or the last word (B)?</p> <br> <div class=""container""> <div id=""a-box""> <p class=""title-text"">A</h3></p> </div> <div id=""x-box""> <p class=""title-text"">X<p> </div> <div id=""b-box""> <p class=""title-text"">B</p></div> <br> <div style='float: left;padding-left:30px;'><p>Press '1' for A</p></div><div style='float: right;padding-right:30px;'><p>Press '0' for B</p> </div> </div></div>","null","","","","","","","","","","","","","","","",""
"3454","","test","audio-keyboard-response","163","537393","0.0-9.0-1.66","5f088a5a76b70d0b1ef1dd85","condD","","resources/audio/wordStim/S9_AI_29_bxa_Step-7.wav","49","","","","","","resources/audio/wordStim/S9_AI_29_bxa_Step-7.wav","S9","29","bxa","7","CN","MI","S9-MI","1","1","true"
"null","","fixation","html-keyboard-response","164","538397","0.0-9.0-0.67","5f088a5a76b70d0b1ef1dd85","condD","","<div class=""vertical-center"" style='width:60%;'><img src=""resources/images/US_flag_100x52.jpg"" style=""width:100px;height:52px;opacity:0.35;""> <br> <br> <p style='font-weight:bold;'>Does the middle word sound more like the first word (A) or the last word (B)?</p> <br> <div class=""container""> <div id=""a-box""> <p class=""title-text"">A</h3></p> </div> <div id=""x-box""> <p class=""title-text"">X<p> </div> <div id=""b-box""> <p class=""title-text"">B</p></div> <br> <div style='float: left;padding-left:30px;'><p>Press '1' for A</p></div><div style='float: right;padding-right:30px;'><p>Press '0' for B</p> </div> </div></div>","null","","","","","","","","","","","","","","","",""
"3280","","test","audio-keyboard-response","165","541680","0.0-9.0-1.67","5f088a5a76b70d0b1ef1dd85","condD","","resources/audio/wordStim/S9_AU_18_axb_Step-2.wav","49","","","","","","resources/audio/wordStim/S9_AU_18_axb_Step-2.wav","S9","18","axb","2","CN","MI","S9-MI","0","1","false"
"null","","fixation","html-keyboard-response","166","542685","0.0-9.0-0.68","5f088a5a76b70d0b1ef1dd85","condD","","<div class=""vertical-center"" style='width:60%;'><img src=""resources/images/US_flag_100x52.jpg"" style=""width:100px;height:52px;opacity:0.35;""> <br> <br> <p style='font-weight:bold;'>Does the middle word sound more like the first word (A) or the last word (B)?</p> <br> <div class=""container""> <div id=""a-box""> <p class=""title-text"">A</h3></p> </div> <div id=""x-box""> <p class=""title-text"">X<p> </div> <div id=""b-box""> <p class=""title-text"">B</p></div> <br> <div style='float: left;padding-left:30px;'><p>Press '1' for A</p></div><div style='float: right;padding-right:30px;'><p>Press '0' for B</p> </div> </div></div>","null","","","","","","","","","","","","","","","",""
"2943","","test","audio-keyboard-response","167","545630","0.0-9.0-1.68","5f088a5a76b70d0b1ef1dd85","condD","","resources/audio/wordStim/S9_AI_25_bxa_Step-7.wav","49","","","","","","resources/audio/wordStim/S9_AI_25_bxa_Step-7.wav","S9","25","bxa","7","CN","MI","S9-MI","1","1","true"
"null","","fixation","html-keyboard-response","168","546634","0.0-9.0-0.69","5f088a5a76b70d0b1ef1dd85","condD","","<div class=""vertical-center"" style='width:60%;'><img src=""resources/images/US_flag_100x52.jpg"" style=""width:100px;height:52px;opacity:0.35;""> <br> <br> <p style='font-weight:bold;'>Does the middle word sound more like the first word (A) or the last word (B)?</p> <br> <div class=""container""> <div id=""a-box""> <p class=""title-text"">A</h3></p> </div> <div id=""x-box""> <p class=""title-text"">X<p> </div> <div id=""b-box""> <p class=""title-text"">B</p></div> <br> <div style='float: left;padding-left:30px;'><p>Press '1' for A</p></div><div style='float: right;padding-right:30px;'><p>Press '0' for B</p> </div> </div></div>","null","","","","","","","","","","","","","","","",""
"2461","","test","audio-keyboard-response","169","549096","0.0-9.0-1.69","5f088a5a76b70d0b1ef1dd85","condD","","resources/audio/wordStim/S9_AU_11_bxa_Step-4.wav","49","","","","","","resources/audio/wordStim/S9_AU_11_bxa_Step-4.wav","S9","11","bxa","4","CN","MI","S9-MI","1","1","true"
"null","","fixation","html-keyboard-response","170","550100","0.0-9.0-0.70","5f088a5a76b70d0b1ef1dd85","condD","","<div class=""vertical-center"" style='width:60%;'><img src=""resources/images/US_flag_100x52.jpg"" style=""width:100px;height:52px;opacity:0.35;""> <br> <br> <p style='font-weight:bold;'>Does the middle word sound more like the first word (A) or the last word (B)?</p> <br> <div class=""container""> <div id=""a-box""> <p class=""title-text"">A</h3></p> </div> <div id=""x-box""> <p class=""title-text"">X<p> </div> <div id=""b-box""> <p class=""title-text"">B</p></div> <br> <div style='float: left;padding-left:30px;'><p>Press '1' for A</p></div><div style='float: right;padding-right:30px;'><p>Press '0' for B</p> </div> </div></div>","null","","","","","","","","","","","","","","","",""
"3239","","test","audio-keyboard-response","171","553341","0.0-9.0-1.70","5f088a5a76b70d0b1ef1dd85","condD","","resources/audio/wordStim/S9_AU_18_bxa_Step-2.wav","48","","","","","","resources/audio/wordStim/S9_AU_18_bxa_Step-2.wav","S9","18","bxa","2","CN","MI","S9-MI","1","0","false"
"null","","fixation","html-keyboard-response","172","554345","0.0-9.0-0.71","5f088a5a76b70d0b1ef1dd85","condD","","<div class=""vertical-center"" style='width:60%;'><img src=""resources/images/US_flag_100x52.jpg"" style=""width:100px;height:52px;opacity:0.35;""> <br> <br> <p style='font-weight:bold;'>Does the middle word sound more like the first word (A) or the last word (B)?</p> <br> <div class=""container""> <div id=""a-box""> <p class=""title-text"">A</h3></p> </div> <div id=""x-box""> <p class=""title-text"">X<p> </div> <div id=""b-box""> <p class=""title-text"">B</p></div> <br> <div style='float: left;padding-left:30px;'><p>Press '1' for A</p></div><div style='float: right;padding-right:30px;'><p>Press '0' for B</p> </div> </div></div>","null","","","","","","","","","","","","","","","",""
"6409","","test","audio-keyboard-response","173","560752","0.0-9.0-1.71","5f088a5a76b70d0b1ef1dd85","condD","","resources/audio/wordStim/S9_AU_11_bxa_Step-8.wav","48","","","","","","resources/audio/wordStim/S9_AU_11_bxa_Step-8.wav","S9","11","bxa","8","CN","MI","S9-MI","1","0","false"
"null","","fixation","html-keyboard-response","174","561759","0.0-9.0-0.72","5f088a5a76b70d0b1ef1dd85","condD","","<div class=""vertical-center"" style='width:60%;'><img src=""resources/images/US_flag_100x52.jpg"" style=""width:100px;height:52px;opacity:0.35;""> <br> <br> <p style='font-weight:bold;'>Does the middle word sound more like the first word (A) or the last word (B)?</p> <br> <div class=""container""> <div id=""a-box""> <p class=""title-text"">A</h3></p> </div> <div id=""x-box""> <p class=""title-text"">X<p> </div> <div id=""b-box""> <p class=""title-text"">B</p></div> <br> <div style='float: left;padding-left:30px;'><p>Press '1' for A</p></div><div style='float: right;padding-right:30px;'><p>Press '0' for B</p> </div> </div></div>","null","","","","","","","","","","","","","","","",""
"2386","","test","audio-keyboard-response","175","564145","0.0-9.0-1.72","5f088a5a76b70d0b1ef1dd85","condD","","resources/audio/wordStim/S9_AU_20_bxa_Step-2.wav","48","","","","","","resources/audio/wordStim/S9_AU_20_bxa_Step-2.wav","S9","20","bxa","2","CN","MI","S9-MI","1","0","false"
"null","","fixation","html-keyboard-response","176","565149","0.0-9.0-0.73","5f088a5a76b70d0b1ef1dd85","condD","","<div class=""vertical-center"" style='width:60%;'><img src=""resources/images/US_flag_100x52.jpg"" style=""width:100px;height:52px;opacity:0.35;""> <br> <br> <p style='font-weight:bold;'>Does the middle word sound more like the first word (A) or the last word (B)?</p> <br> <div class=""container""> <div id=""a-box""> <p class=""title-text"">A</h3></p> </div> <div id=""x-box""> <p class=""title-text"">X<p> </div> <div id=""b-box""> <p class=""title-text"">B</p></div> <br> <div style='float: left;padding-left:30px;'><p>Press '1' for A</p></div><div style='float: right;padding-right:30px;'><p>Press '0' for B</p> </div> </div></div>","null","","","","","","","","","","","","","","","",""
"2868","","test","audio-keyboard-response","177","568017","0.0-9.0-1.73","5f088a5a76b70d0b1ef1dd85","condD","","resources/audio/wordStim/S9_AI_25_axb_Step-8.wav","48","","","","","","resources/audio/wordStim/S9_AI_25_axb_Step-8.wav","S9","25","axb","8","CN","MI","S9-MI","0","0","true"
"null","","fixation","html-keyboard-response","178","569021","0.0-9.0-0.74","5f088a5a76b70d0b1ef1dd85","condD","","<div class=""vertical-center"" style='width:60%;'><img src=""resources/images/US_flag_100x52.jpg"" style=""width:100px;height:52px;opacity:0.35;""> <br> <br> <p style='font-weight:bold;'>Does the middle word sound more like the first word (A) or the last word (B)?</p> <br> <div class=""container""> <div id=""a-box""> <p class=""title-text"">A</h3></p> </div> <div id=""x-box""> <p class=""title-text"">X<p> </div> <div id=""b-box""> <p class=""title-text"">B</p></div> <br> <div style='float: left;padding-left:30px;'><p>Press '1' for A</p></div><div style='float: right;padding-right:30px;'><p>Press '0' for B</p> </div> </div></div>","null","","","","","","","","","","","","","","","",""
"2194","","test","audio-keyboard-response","179","571212","0.0-9.0-1.74","5f088a5a76b70d0b1ef1dd85","condD","","resources/audio/wordStim/S9_AI_29_axb_Step-3.wav","48","","","","","","resources/audio/wordStim/S9_AI_29_axb_Step-3.wav","S9","29","axb","3","CN","MI","S9-MI","0","0","true"
"null","","fixation","html-keyboard-response","180","572217","0.0-9.0-0.75","5f088a5a76b70d0b1ef1dd85","condD","","<div class=""vertical-center"" style='width:60%;'><img src=""resources/images/US_flag_100x52.jpg"" style=""width:100px;height:52px;opacity:0.35;""> <br> <br> <p style='font-weight:bold;'>Does the middle word sound more like the first word (A) or the last word (B)?</p> <br> <div class=""container""> <div id=""a-box""> <p class=""title-text"">A</h3></p> </div> <div id=""x-box""> <p class=""title-text"">X<p> </div> <div id=""b-box""> <p class=""title-text"">B</p></div> <br> <div style='float: left;padding-left:30px;'><p>Press '1' for A</p></div><div style='float: right;padding-right:30px;'><p>Press '0' for B</p> </div> </div></div>","null","","","","","","","","","","","","","","","",""
"3239","","test","audio-keyboard-response","181","575459","0.0-9.0-1.75","5f088a5a76b70d0b1ef1dd85","condD","","resources/audio/wordStim/S9_AU_18_bxa_Step-4.wav","48","","","","","","resources/audio/wordStim/S9_AU_18_bxa_Step-4.wav","S9","18","bxa","4","CN","MI","S9-MI","1","0","false"
"null","","fixation","html-keyboard-response","182","576461","0.0-9.0-0.76","5f088a5a76b70d0b1ef1dd85","condD","","<div class=""vertical-center"" style='width:60%;'><img src=""resources/images/US_flag_100x52.jpg"" style=""width:100px;height:52px;opacity:0.35;""> <br> <br> <p style='font-weight:bold;'>Does the middle word sound more like the first word (A) or the last word (B)?</p> <br> <div class=""container""> <div id=""a-box""> <p class=""title-text"">A</h3></p> </div> <div id=""x-box""> <p class=""title-text"">X<p> </div> <div id=""b-box""> <p class=""title-text"">B</p></div> <br> <div style='float: left;padding-left:30px;'><p>Press '1' for A</p></div><div style='float: right;padding-right:30px;'><p>Press '0' for B</p> </div> </div></div>","null","","","","","","","","","","","","","","","",""
"2270","","test","audio-keyboard-response","183","578731","0.0-9.0-1.76","5f088a5a76b70d0b1ef1dd85","condD","","resources/audio/wordStim/S9_AU_20_bxa_Step-5.wav","49","","","","","","resources/audio/wordStim/S9_AU_20_bxa_Step-5.wav","S9","20","bxa","5","CN","MI","S9-MI","1","1","true"
"null","","fixation","html-keyboard-response","184","579735","0.0-9.0-0.77","5f088a5a76b70d0b1ef1dd85","condD","","<div class=""vertical-center"" style='width:60%;'><img src=""resources/images/US_flag_100x52.jpg"" style=""width:100px;height:52px;opacity:0.35;""> <br> <br> <p style='font-weight:bold;'>Does the middle word sound more like the first word (A) or the last word (B)?</p> <br> <div class=""container""> <div id=""a-box""> <p class=""title-text"">A</h3></p> </div> <div id=""x-box""> <p class=""title-text"">X<p> </div> <div id=""b-box""> <p class=""title-text"">B</p></div> <br> <div style='float: left;padding-left:30px;'><p>Press '1' for A</p></div><div style='float: right;padding-right:30px;'><p>Press '0' for B</p> </div> </div></div>","null","","","","","","","","","","","","","","","",""
"3524","","test","audio-keyboard-response","185","583260","0.0-9.0-1.77","5f088a5a76b70d0b1ef1dd85","condD","","resources/audio/wordStim/S9_AU_11_bxa_Step-2.wav","48","","","","","","resources/audio/wordStim/S9_AU_11_bxa_Step-2.wav","S9","11","bxa","2","CN","MI","S9-MI","1","0","false"
"null","","fixation","html-keyboard-response","186","584263","0.0-9.0-0.78","5f088a5a76b70d0b1ef1dd85","condD","","<div class=""vertical-center"" style='width:60%;'><img src=""resources/images/US_flag_100x52.jpg"" style=""width:100px;height:52px;opacity:0.35;""> <br> <br> <p style='font-weight:bold;'>Does the middle word sound more like the first word (A) or the last word (B)?</p> <br> <div class=""container""> <div id=""a-box""> <p class=""title-text"">A</h3></p> </div> <div id=""x-box""> <p class=""title-text"">X<p> </div> <div id=""b-box""> <p class=""title-text"">B</p></div> <br> <div style='float: left;padding-left:30px;'><p>Press '1' for A</p></div><div style='float: right;padding-right:30px;'><p>Press '0' for B</p> </div> </div></div>","null","","","","","","","","","","","","","","","",""
"4075","","test","audio-keyboard-response","187","588341","0.0-9.0-1.78","5f088a5a76b70d0b1ef1dd85","condD","","resources/audio/wordStim/S9_AU_20_bxa_Step-8.wav","49","","","","","","resources/audio/wordStim/S9_AU_20_bxa_Step-8.wav","S9","20","bxa","8","CN","MI","S9-MI","1","1","true"
"null","","fixation","html-keyboard-response","188","589342","0.0-9.0-0.79","5f088a5a76b70d0b1ef1dd85","condD","","<div class=""vertical-center"" style='width:60%;'><img src=""resources/images/US_flag_100x52.jpg"" style=""width:100px;height:52px;opacity:0.35;""> <br> <br> <p style='font-weight:bold;'>Does the middle word sound more like the first word (A) or the last word (B)?</p> <br> <div class=""container""> <div id=""a-box""> <p class=""title-text"">A</h3></p> </div> <div id=""x-box""> <p class=""title-text"">X<p> </div> <div id=""b-box""> <p class=""title-text"">B</p></div> <br> <div style='float: left;padding-left:30px;'><p>Press '1' for A</p></div><div style='float: right;padding-right:30px;'><p>Press '0' for B</p> </div> </div></div>","null","","","","","","","","","","","","","","","",""
"3094","","test","audio-keyboard-response","189","592441","0.0-9.0-1.79","5f088a5a76b70d0b1ef1dd85","condD","","resources/audio/wordStim/S9_AI_25_axb_Step-5.wav","49","","","","","","resources/audio/wordStim/S9_AI_25_axb_Step-5.wav","S9","25","axb","5","CN","MI","S9-MI","0","1","false"
"null","","fixation","html-keyboard-response","190","593447","0.0-9.0-0.80","5f088a5a76b70d0b1ef1dd85","condD","","<div class=""vertical-center"" style='width:60%;'><img src=""resources/images/US_flag_100x52.jpg"" style=""width:100px;height:52px;opacity:0.35;""> <br> <br> <p style='font-weight:bold;'>Does the middle word sound more like the first word (A) or the last word (B)?</p> <br> <div class=""container""> <div id=""a-box""> <p class=""title-text"">A</h3></p> </div> <div id=""x-box""> <p class=""title-text"">X<p> </div> <div id=""b-box""> <p class=""title-text"">B</p></div> <br> <div style='float: left;padding-left:30px;'><p>Press '1' for A</p></div><div style='float: right;padding-right:30px;'><p>Press '0' for B</p> </div> </div></div>","null","","","","","","","","","","","","","","","",""
"3065","","test","audio-keyboard-response","191","596513","0.0-9.0-1.80","5f088a5a76b70d0b1ef1dd85","condD","","resources/audio/wordStim/S9_AI_23_axb_Step-2.wav","49","","","","","","resources/audio/wordStim/S9_AI_23_axb_Step-2.wav","S9","23","axb","2","CN","MI","S9-MI","0","1","false"
"null","","fixation","html-keyboard-response","192","597519","0.0-9.0-0.81","5f088a5a76b70d0b1ef1dd85","condD","","<div class=""vertical-center"" style='width:60%;'><img src=""resources/images/US_flag_100x52.jpg"" style=""width:100px;height:52px;opacity:0.35;""> <br> <br> <p style='font-weight:bold;'>Does the middle word sound more like the first word (A) or the last word (B)?</p> <br> <div class=""container""> <div id=""a-box""> <p class=""title-text"">A</h3></p> </div> <div id=""x-box""> <p class=""title-text"">X<p> </div> <div id=""b-box""> <p class=""title-text"">B</p></div> <br> <div style='float: left;padding-left:30px;'><p>Press '1' for A</p></div><div style='float: right;padding-right:30px;'><p>Press '0' for B</p> </div> </div></div>","null","","","","","","","","","","","","","","","",""
"3158","","test","audio-keyboard-response","193","600675","0.0-9.0-1.81","5f088a5a76b70d0b1ef1dd85","condD","","resources/audio/wordStim/S9_AU_11_axb_Step-5.wav","48","","","","","","resources/audio/wordStim/S9_AU_11_axb_Step-5.wav","S9","11","axb","5","CN","MI","S9-MI","0","0","true"
