"rt","url","trial_role","trial_type","trial_index","time_elapsed","internal_node_id","participantId","conditionId","view_history","stimulus","key_press","button_pressed","correct_answer","correct_response","success","vowel","wordStim","speaker","sentNum","order","step","speakerIdentity","speakerGuise","guiseName","raised_answer","key_response","raised_response"
"45615","micr.axb.consent.html","consent","external-html","0","45644","0.0-0.0","5fd91e63fc4cd73b6f597a52","condC","","","","","","","","","","","","","","","","","","",""
"88235","","instructions","instructions","1","133883","0.0-1.0","5fd91e63fc4cd73b6f597a52","condC","[{""page_index"":0,""viewing_time"":54193.000000000015},{""page_index"":1,""viewing_time"":11140.999999999985},{""page_index"":2,""viewing_time"":22900}]","","","","","","","","","","","","","","","","","",""
"null","","fixation","html-keyboard-response","2","134386","0.0-2.0-0.0-0.0","5fd91e63fc4cd73b6f597a52","condC","","<div class=""vertical-center"" style=""font-size:60px;"">+</div>","null","","","","","","","","","","","","","","","",""
"5536","","tonetest","audio-button-response","3","140160","0.0-2.0-0.0-1.0","5fd91e63fc4cd73b6f597a52","condC","","../../src/audio/toneTest_5.wav","","0","0","true","","","","","","","","","","","","",""
"null","","fixation","html-keyboard-response","4","140662","0.0-2.0-0.0-0.1","5fd91e63fc4cd73b6f597a52","condC","","<div class=""vertical-center"" style=""font-size:60px;"">+</div>","null","","","","","","","","","","","","","","","",""
"4450","","tonetest","audio-button-response","5","145113","0.0-2.0-0.0-1.1","5fd91e63fc4cd73b6f597a52","condC","","../../src/audio/toneTest_4.wav","","1","1","true","","","","","","","","","","","","",""
"null","","fixation","html-keyboard-response","6","145614","0.0-2.0-0.0-0.2","5fd91e63fc4cd73b6f597a52","condC","","<div class=""vertical-center"" style=""font-size:60px;"">+</div>","null","","","","","","","","","","","","","","","",""
"4568","","tonetest","audio-button-response","7","150183","0.0-2.0-0.0-1.2","5fd91e63fc4cd73b6f597a52","condC","","../../src/audio/toneTest_1.wav","","2","2","true","","","","","","","","","","","","",""
"null","","fixation","html-keyboard-response","8","150685","0.0-2.0-0.0-0.3","5fd91e63fc4cd73b6f597a52","condC","","<div class=""vertical-center"" style=""font-size:60px;"">+</div>","null","","","","","","","","","","","","","","","",""
"3964","","tonetest","audio-button-response","9","154650","0.0-2.0-0.0-1.3","5fd91e63fc4cd73b6f597a52","condC","","../../src/audio/toneTest_5.wav","","0","0","true","","","","","","","","","","","","",""
"null","","fixation","html-keyboard-response","10","155152","0.0-2.0-0.0-0.4","5fd91e63fc4cd73b6f597a52","condC","","<div class=""vertical-center"" style=""font-size:60px;"">+</div>","null","","","","","","","","","","","","","","","",""
"6429.999999999971","","tonetest","audio-button-response","11","161582","0.0-2.0-0.0-1.4","5fd91e63fc4cd73b6f597a52","condC","","../../src/audio/toneTest_1.wav","","0","2","false","","","","","","","","","","","","",""
"null","","fixation","html-keyboard-response","12","162083","0.0-2.0-0.0-0.5","5fd91e63fc4cd73b6f597a52","condC","","<div class=""vertical-center"" style=""font-size:60px;"">+</div>","null","","","","","","","","","","","","","","","",""
"3941","","tonetest","audio-button-response","13","166025","0.0-2.0-0.0-1.5","5fd91e63fc4cd73b6f597a52","condC","","../../src/audio/toneTest_4.wav","","1","1","true","","","","","","","","","","","","",""
"9847","","instructions","html-keyboard-response","14","175873","0.0-2.0-1.0-0.0","5fd91e63fc4cd73b6f597a52","condC","","<div class=""vertical-center""><p><b>Your score was 5/6.</b></p><p>If you scored below 5, please ensure that you are wearing properly functioning headphones and in a quiet location free of distractions. Then, press SPACE to repeat the audio test. </p><p><i>If you scored 5 or above, press SPACE to continue to the main experiment.</i></p></div>","32","","","","","","","","","","","","","","","",""
"","","","fullscreen","15","180117","0.0-3.0","5fd91e63fc4cd73b6f597a52","condC","","","","","","","true","","","","","","","","","","","",""
"32444","","instructions","instructions","16","212562","0.0-4.0","5fd91e63fc4cd73b6f597a52","condC","[{""page_index"":0,""viewing_time"":32444}]","","","","","","","","","","","","","","","","","",""
"null","","fixation","html-keyboard-response","17","213064","0.0-5.0-0.0","5fd91e63fc4cd73b6f597a52","condC","","<div class=""vertical-center"" style='width:60%;'><p style='font-weight:bold;'>Does the middle word sound more like the first word (A) or the last word (B)?</p> <br> <div class=""container""> <div id=""a-box""> <p class=""title-text"">A</h3></p> </div> <div id=""x-box""> <p class=""title-text"">X<p> </div> <div id=""b-box""> <p class=""title-text"">B</p></div> <br> <div style='float: left;padding-left:30px;'><p>Press '1' for A</p></div><div style='float: right;padding-right:30px;'><p>Press '0' for B</p> </div> </div></div>","null","","","","","","","","","","","","","","","",""
"3320","","practice","audio-keyboard-response","18","216387","0.0-5.0-1.0","5fd91e63fc4cd73b6f597a52","condC","","resources/audio/practiceStim/S1_AI_21_bxa_Step-6.wav","49","","","","","","","","","","","","","","","",""
"null","","fixation","html-keyboard-response","19","217389","0.0-5.0-0.1","5fd91e63fc4cd73b6f597a52","condC","","<div class=""vertical-center"" style='width:60%;'><p style='font-weight:bold;'>Does the middle word sound more like the first word (A) or the last word (B)?</p> <br> <div class=""container""> <div id=""a-box""> <p class=""title-text"">A</h3></p> </div> <div id=""x-box""> <p class=""title-text"">X<p> </div> <div id=""b-box""> <p class=""title-text"">B</p></div> <br> <div style='float: left;padding-left:30px;'><p>Press '1' for A</p></div><div style='float: right;padding-right:30px;'><p>Press '0' for B</p> </div> </div></div>","null","","","","","","","","","","","","","","","",""
"3228","","practice","audio-keyboard-response","20","220617","0.0-5.0-1.1","5fd91e63fc4cd73b6f597a52","condC","","resources/audio/practiceStim/S1_AI_21_axb_Step-6.wav","49","","","","","","","","","","","","","","","",""
"null","","fixation","html-keyboard-response","21","221620","0.0-5.0-0.2","5fd91e63fc4cd73b6f597a52","condC","","<div class=""vertical-center"" style='width:60%;'><p style='font-weight:bold;'>Does the middle word sound more like the first word (A) or the last word (B)?</p> <br> <div class=""container""> <div id=""a-box""> <p class=""title-text"">A</h3></p> </div> <div id=""x-box""> <p class=""title-text"">X<p> </div> <div id=""b-box""> <p class=""title-text"">B</p></div> <br> <div style='float: left;padding-left:30px;'><p>Press '1' for A</p></div><div style='float: right;padding-right:30px;'><p>Press '0' for B</p> </div> </div></div>","null","","","","","","","","","","","","","","","",""
"2548","","practice","audio-keyboard-response","22","224171","0.0-5.0-1.2","5fd91e63fc4cd73b6f597a52","condC","","resources/audio/practiceStim/S1_AU_14_bxa_Step-6.wav","48","","","","","","","","","","","","","","","",""
"null","","fixation","html-keyboard-response","23","225174","0.0-5.0-0.3","5fd91e63fc4cd73b6f597a52","condC","","<div class=""vertical-center"" style='width:60%;'><p style='font-weight:bold;'>Does the middle word sound more like the first word (A) or the last word (B)?</p> <br> <div class=""container""> <div id=""a-box""> <p class=""title-text"">A</h3></p> </div> <div id=""x-box""> <p class=""title-text"">X<p> </div> <div id=""b-box""> <p class=""title-text"">B</p></div> <br> <div style='float: left;padding-left:30px;'><p>Press '1' for A</p></div><div style='float: right;padding-right:30px;'><p>Press '0' for B</p> </div> </div></div>","null","","","","","","","","","","","","","","","",""
"2949","","practice","audio-keyboard-response","24","228124","0.0-5.0-1.3","5fd91e63fc4cd73b6f597a52","condC","","resources/audio/practiceStim/S1_AU_14_axb_Step-6.wav","49","","","","","","","","","","","","","","","",""
"2918","","instructions","instructions","25","231543","0.0-6.0","5fd91e63fc4cd73b6f597a52","condC","[{""page_index"":0,""viewing_time"":2918}]","","","","","","","","","","","","","","","","","",""
"4483","","","html-keyboard-response","26","236028","0.0-7.0","5fd91e63fc4cd73b6f597a52","condC","","<div class=""vertical-center""><img src=""resources/images/CN_face_a.png"" style=""width:450px;height:300px;""><p>This is the speaker you're about to hear. She is from Vancouver, Canada.</p><p> <br> <i>Press SPACE to continue.</i></p></div>","32","","","","","","","","","","","","","","","",""
"null","","fixation","html-keyboard-response","27","236530","0.0-8.0-0.0","5fd91e63fc4cd73b6f597a52","condC","","<div class=""vertical-center"" style='width:60%;'><img src=""resources/images/CN_flag_100x52.jpg"" style=""width:100px;height:52px;opacity:0.35;""> <br> <br> <p style='font-weight:bold;'>Does the middle word sound more like the first word (A) or the last word (B)?</p> <br> <div class=""container""> <div id=""a-box""> <p class=""title-text"">A</h3></p> </div> <div id=""x-box""> <p class=""title-text"">X<p> </div> <div id=""b-box""> <p class=""title-text"">B</p></div> <br> <div style='float: left;padding-left:30px;'><p>Press '1' for A</p></div><div style='float: right;padding-right:30px;'><p>Press '0' for B</p> </div> </div></div>","null","","","","","","","","","","","","","","","",""
"3402","","test","audio-keyboard-response","28","239935","0.0-8.0-1.0","5fd91e63fc4cd73b6f597a52","condC","","resources/audio/wordStim/S3_AU_19_axb_Step-6.wav","49","","","","","","resources/audio/wordStim/S3_AU_19_axb_Step-6.wav","S3","19","axb","6","MI","CN","S3-CN","0","1","false"
"null","","fixation","html-keyboard-response","29","240938","0.0-8.0-0.1","5fd91e63fc4cd73b6f597a52","condC","","<div class=""vertical-center"" style='width:60%;'><img src=""resources/images/CN_flag_100x52.jpg"" style=""width:100px;height:52px;opacity:0.35;""> <br> <br> <p style='font-weight:bold;'>Does the middle word sound more like the first word (A) or the last word (B)?</p> <br> <div class=""container""> <div id=""a-box""> <p class=""title-text"">A</h3></p> </div> <div id=""x-box""> <p class=""title-text"">X<p> </div> <div id=""b-box""> <p class=""title-text"">B</p></div> <br> <div style='float: left;padding-left:30px;'><p>Press '1' for A</p></div><div style='float: right;padding-right:30px;'><p>Press '0' for B</p> </div> </div></div>","null","","","","","","","","","","","","","","","",""
"3390","","test","audio-keyboard-response","30","244330","0.0-8.0-1.1","5fd91e63fc4cd73b6f597a52","condC","","resources/audio/wordStim/S3_AU_20_bxa_Step-2.wav","49","","","","","","resources/audio/wordStim/S3_AU_20_bxa_Step-2.wav","S3","20","bxa","2","MI","CN","S3-CN","1","1","true"
"null","","fixation","html-keyboard-response","31","245333","0.0-8.0-0.2","5fd91e63fc4cd73b6f597a52","condC","","<div class=""vertical-center"" style='width:60%;'><img src=""resources/images/CN_flag_100x52.jpg"" style=""width:100px;height:52px;opacity:0.35;""> <br> <br> <p style='font-weight:bold;'>Does the middle word sound more like the first word (A) or the last word (B)?</p> <br> <div class=""container""> <div id=""a-box""> <p class=""title-text"">A</h3></p> </div> <div id=""x-box""> <p class=""title-text"">X<p> </div> <div id=""b-box""> <p class=""title-text"">B</p></div> <br> <div style='float: left;padding-left:30px;'><p>Press '1' for A</p></div><div style='float: right;padding-right:30px;'><p>Press '0' for B</p> </div> </div></div>","null","","","","","","","","","","","","","","","",""
"3138","","test","audio-keyboard-response","32","248473","0.0-8.0-1.2","5fd91e63fc4cd73b6f597a52","condC","","resources/audio/wordStim/S3_AU_19_bxa_Step-8.wav","49","","","","","","resources/audio/wordStim/S3_AU_19_bxa_Step-8.wav","S3","19","bxa","8","MI","CN","S3-CN","1","1","true"
"null","","fixation","html-keyboard-response","33","249476","0.0-8.0-0.3","5fd91e63fc4cd73b6f597a52","condC","","<div class=""vertical-center"" style='width:60%;'><img src=""resources/images/CN_flag_100x52.jpg"" style=""width:100px;height:52px;opacity:0.35;""> <br> <br> <p style='font-weight:bold;'>Does the middle word sound more like the first word (A) or the last word (B)?</p> <br> <div class=""container""> <div id=""a-box""> <p class=""title-text"">A</h3></p> </div> <div id=""x-box""> <p class=""title-text"">X<p> </div> <div id=""b-box""> <p class=""title-text"">B</p></div> <br> <div style='float: left;padding-left:30px;'><p>Press '1' for A</p></div><div style='float: right;padding-right:30px;'><p>Press '0' for B</p> </div> </div></div>","null","","","","","","","","","","","","","","","",""
"2801","","test","audio-keyboard-response","34","252280","0.0-8.0-1.3","5fd91e63fc4cd73b6f597a52","condC","","resources/audio/wordStim/S3_AI_21_axb_Step-3.wav","49","","","","","","resources/audio/wordStim/S3_AI_21_axb_Step-3.wav","S3","21","axb","3","MI","CN","S3-CN","0","1","false"
"null","","fixation","html-keyboard-response","35","253282","0.0-8.0-0.4","5fd91e63fc4cd73b6f597a52","condC","","<div class=""vertical-center"" style='width:60%;'><img src=""resources/images/CN_flag_100x52.jpg"" style=""width:100px;height:52px;opacity:0.35;""> <br> <br> <p style='font-weight:bold;'>Does the middle word sound more like the first word (A) or the last word (B)?</p> <br> <div class=""container""> <div id=""a-box""> <p class=""title-text"">A</h3></p> </div> <div id=""x-box""> <p class=""title-text"">X<p> </div> <div id=""b-box""> <p class=""title-text"">B</p></div> <br> <div style='float: left;padding-left:30px;'><p>Press '1' for A</p></div><div style='float: right;padding-right:30px;'><p>Press '0' for B</p> </div> </div></div>","null","","","","","","","","","","","","","","","",""
"2624","","test","audio-keyboard-response","36","255907","0.0-8.0-1.4","5fd91e63fc4cd73b6f597a52","condC","","resources/audio/wordStim/S3_AI_21_bxa_Step-6.wav","49","","","","","","resources/audio/wordStim/S3_AI_21_bxa_Step-6.wav","S3","21","bxa","6","MI","CN","S3-CN","1","1","true"
"null","","fixation","html-keyboard-response","37","256909","0.0-8.0-0.5","5fd91e63fc4cd73b6f597a52","condC","","<div class=""vertical-center"" style='width:60%;'><img src=""resources/images/CN_flag_100x52.jpg"" style=""width:100px;height:52px;opacity:0.35;""> <br> <br> <p style='font-weight:bold;'>Does the middle word sound more like the first word (A) or the last word (B)?</p> <br> <div class=""container""> <div id=""a-box""> <p class=""title-text"">A</h3></p> </div> <div id=""x-box""> <p class=""title-text"">X<p> </div> <div id=""b-box""> <p class=""title-text"">B</p></div> <br> <div style='float: left;padding-left:30px;'><p>Press '1' for A</p></div><div style='float: right;padding-right:30px;'><p>Press '0' for B</p> </div> </div></div>","null","","","","","","","","","","","","","","","",""
"3849","","test","audio-keyboard-response","38","260759","0.0-8.0-1.5","5fd91e63fc4cd73b6f597a52","condC","","resources/audio/wordStim/S3_AU_18_bxa_Step-3.wav","49","","","","","","resources/audio/wordStim/S3_AU_18_bxa_Step-3.wav","S3","18","bxa","3","MI","CN","S3-CN","1","1","true"
"null","","fixation","html-keyboard-response","39","261762","0.0-8.0-0.6","5fd91e63fc4cd73b6f597a52","condC","","<div class=""vertical-center"" style='width:60%;'><img src=""resources/images/CN_flag_100x52.jpg"" style=""width:100px;height:52px;opacity:0.35;""> <br> <br> <p style='font-weight:bold;'>Does the middle word sound more like the first word (A) or the last word (B)?</p> <br> <div class=""container""> <div id=""a-box""> <p class=""title-text"">A</h3></p> </div> <div id=""x-box""> <p class=""title-text"">X<p> </div> <div id=""b-box""> <p class=""title-text"">B</p></div> <br> <div style='float: left;padding-left:30px;'><p>Press '1' for A</p></div><div style='float: right;padding-right:30px;'><p>Press '0' for B</p> </div> </div></div>","null","","","","","","","","","","","","","","","",""
"3541","","test","audio-keyboard-response","40","265304","0.0-8.0-1.6","5fd91e63fc4cd73b6f597a52","condC","","resources/audio/wordStim/S3_AI_30_axb_Step-3.wav","49","","","","","","resources/audio/wordStim/S3_AI_30_axb_Step-3.wav","S3","30","axb","3","MI","CN","S3-CN","0","1","false"
"null","","fixation","html-keyboard-response","41","266306","0.0-8.0-0.7","5fd91e63fc4cd73b6f597a52","condC","","<div class=""vertical-center"" style='width:60%;'><img src=""resources/images/CN_flag_100x52.jpg"" style=""width:100px;height:52px;opacity:0.35;""> <br> <br> <p style='font-weight:bold;'>Does the middle word sound more like the first word (A) or the last word (B)?</p> <br> <div class=""container""> <div id=""a-box""> <p class=""title-text"">A</h3></p> </div> <div id=""x-box""> <p class=""title-text"">X<p> </div> <div id=""b-box""> <p class=""title-text"">B</p></div> <br> <div style='float: left;padding-left:30px;'><p>Press '1' for A</p></div><div style='float: right;padding-right:30px;'><p>Press '0' for B</p> </div> </div></div>","null","","","","","","","","","","","","","","","",""
"3834","","test","audio-keyboard-response","42","270140","0.0-8.0-1.7","5fd91e63fc4cd73b6f597a52","condC","","resources/audio/wordStim/S3_AU_18_axb_Step-2.wav","49","","","","","","resources/audio/wordStim/S3_AU_18_axb_Step-2.wav","S3","18","axb","2","MI","CN","S3-CN","0","1","false"
"null","","fixation","html-keyboard-response","43","271143","0.0-8.0-0.8","5fd91e63fc4cd73b6f597a52","condC","","<div class=""vertical-center"" style='width:60%;'><img src=""resources/images/CN_flag_100x52.jpg"" style=""width:100px;height:52px;opacity:0.35;""> <br> <br> <p style='font-weight:bold;'>Does the middle word sound more like the first word (A) or the last word (B)?</p> <br> <div class=""container""> <div id=""a-box""> <p class=""title-text"">A</h3></p> </div> <div id=""x-box""> <p class=""title-text"">X<p> </div> <div id=""b-box""> <p class=""title-text"">B</p></div> <br> <div style='float: left;padding-left:30px;'><p>Press '1' for A</p></div><div style='float: right;padding-right:30px;'><p>Press '0' for B</p> </div> </div></div>","null","","","","","","","","","","","","","","","",""
"4522","","test","audio-keyboard-response","44","275666","0.0-8.0-1.8","5fd91e63fc4cd73b6f597a52","condC","","resources/audio/wordStim/S3_AI_30_axb_Step-2.wav","48","","","","","","resources/audio/wordStim/S3_AI_30_axb_Step-2.wav","S3","30","axb","2","MI","CN","S3-CN","0","0","true"
"null","","fixation","html-keyboard-response","45","276670","0.0-8.0-0.9","5fd91e63fc4cd73b6f597a52","condC","","<div class=""vertical-center"" style='width:60%;'><img src=""resources/images/CN_flag_100x52.jpg"" style=""width:100px;height:52px;opacity:0.35;""> <br> <br> <p style='font-weight:bold;'>Does the middle word sound more like the first word (A) or the last word (B)?</p> <br> <div class=""container""> <div id=""a-box""> <p class=""title-text"">A</h3></p> </div> <div id=""x-box""> <p class=""title-text"">X<p> </div> <div id=""b-box""> <p class=""title-text"">B</p></div> <br> <div style='float: left;padding-left:30px;'><p>Press '1' for A</p></div><div style='float: right;padding-right:30px;'><p>Press '0' for B</p> </div> </div></div>","null","","","","","","","","","","","","","","","",""
"4670","","test","audio-keyboard-response","46","281341","0.0-8.0-1.9","5fd91e63fc4cd73b6f597a52","condC","","resources/audio/wordStim/S3_AU_20_axb_Step-3.wav","49","","","","","","resources/audio/wordStim/S3_AU_20_axb_Step-3.wav","S3","20","axb","3","MI","CN","S3-CN","0","1","false"
"null","","fixation","html-keyboard-response","47","282344","0.0-8.0-0.10","5fd91e63fc4cd73b6f597a52","condC","","<div class=""vertical-center"" style='width:60%;'><img src=""resources/images/CN_flag_100x52.jpg"" style=""width:100px;height:52px;opacity:0.35;""> <br> <br> <p style='font-weight:bold;'>Does the middle word sound more like the first word (A) or the last word (B)?</p> <br> <div class=""container""> <div id=""a-box""> <p class=""title-text"">A</h3></p> </div> <div id=""x-box""> <p class=""title-text"">X<p> </div> <div id=""b-box""> <p class=""title-text"">B</p></div> <br> <div style='float: left;padding-left:30px;'><p>Press '1' for A</p></div><div style='float: right;padding-right:30px;'><p>Press '0' for B</p> </div> </div></div>","null","","","","","","","","","","","","","","","",""
"6159","","test","audio-keyboard-response","48","288504","0.0-8.0-1.10","5fd91e63fc4cd73b6f597a52","condC","","resources/audio/wordStim/S3_AI_30_axb_Step-5.wav","48","","","","","","resources/audio/wordStim/S3_AI_30_axb_Step-5.wav","S3","30","axb","5","MI","CN","S3-CN","0","0","true"
"null","","fixation","html-keyboard-response","49","289507","0.0-8.0-0.11","5fd91e63fc4cd73b6f597a52","condC","","<div class=""vertical-center"" style='width:60%;'><img src=""resources/images/CN_flag_100x52.jpg"" style=""width:100px;height:52px;opacity:0.35;""> <br> <br> <p style='font-weight:bold;'>Does the middle word sound more like the first word (A) or the last word (B)?</p> <br> <div class=""container""> <div id=""a-box""> <p class=""title-text"">A</h3></p> </div> <div id=""x-box""> <p class=""title-text"">X<p> </div> <div id=""b-box""> <p class=""title-text"">B</p></div> <br> <div style='float: left;padding-left:30px;'><p>Press '1' for A</p></div><div style='float: right;padding-right:30px;'><p>Press '0' for B</p> </div> </div></div>","null","","","","","","","","","","","","","","","",""
"2580","","test","audio-keyboard-response","50","292089","0.0-8.0-1.11","5fd91e63fc4cd73b6f597a52","condC","","resources/audio/wordStim/S3_AI_21_bxa_Step-3.wav","49","","","","","","resources/audio/wordStim/S3_AI_21_bxa_Step-3.wav","S3","21","bxa","3","MI","CN","S3-CN","1","1","true"
"null","","fixation","html-keyboard-response","51","293092","0.0-8.0-0.12","5fd91e63fc4cd73b6f597a52","condC","","<div class=""vertical-center"" style='width:60%;'><img src=""resources/images/CN_flag_100x52.jpg"" style=""width:100px;height:52px;opacity:0.35;""> <br> <br> <p style='font-weight:bold;'>Does the middle word sound more like the first word (A) or the last word (B)?</p> <br> <div class=""container""> <div id=""a-box""> <p class=""title-text"">A</h3></p> </div> <div id=""x-box""> <p class=""title-text"">X<p> </div> <div id=""b-box""> <p class=""title-text"">B</p></div> <br> <div style='float: left;padding-left:30px;'><p>Press '1' for A</p></div><div style='float: right;padding-right:30px;'><p>Press '0' for B</p> </div> </div></div>","null","","","","","","","","","","","","","","","",""
"3924","","test","audio-keyboard-response","52","297017","0.0-8.0-1.12","5fd91e63fc4cd73b6f597a52","condC","","resources/audio/wordStim/S3_AI_30_axb_Step-4.wav","49","","","","","","resources/audio/wordStim/S3_AI_30_axb_Step-4.wav","S3","30","axb","4","MI","CN","S3-CN","0","1","false"
"null","","fixation","html-keyboard-response","53","298020","0.0-8.0-0.13","5fd91e63fc4cd73b6f597a52","condC","","<div class=""vertical-center"" style='width:60%;'><img src=""resources/images/CN_flag_100x52.jpg"" style=""width:100px;height:52px;opacity:0.35;""> <br> <br> <p style='font-weight:bold;'>Does the middle word sound more like the first word (A) or the last word (B)?</p> <br> <div class=""container""> <div id=""a-box""> <p class=""title-text"">A</h3></p> </div> <div id=""x-box""> <p class=""title-text"">X<p> </div> <div id=""b-box""> <p class=""title-text"">B</p></div> <br> <div style='float: left;padding-left:30px;'><p>Press '1' for A</p></div><div style='float: right;padding-right:30px;'><p>Press '0' for B</p> </div> </div></div>","null","","","","","","","","","","","","","","","",""
"2992","","test","audio-keyboard-response","54","301011","0.0-8.0-1.13","5fd91e63fc4cd73b6f597a52","condC","","resources/audio/wordStim/S3_AU_19_axb_Step-8.wav","48","","","","","","resources/audio/wordStim/S3_AU_19_axb_Step-8.wav","S3","19","axb","8","MI","CN","S3-CN","0","0","true"
"null","","fixation","html-keyboard-response","55","302013","0.0-8.0-0.14","5fd91e63fc4cd73b6f597a52","condC","","<div class=""vertical-center"" style='width:60%;'><img src=""resources/images/CN_flag_100x52.jpg"" style=""width:100px;height:52px;opacity:0.35;""> <br> <br> <p style='font-weight:bold;'>Does the middle word sound more like the first word (A) or the last word (B)?</p> <br> <div class=""container""> <div id=""a-box""> <p class=""title-text"">A</h3></p> </div> <div id=""x-box""> <p class=""title-text"">X<p> </div> <div id=""b-box""> <p class=""title-text"">B</p></div> <br> <div style='float: left;padding-left:30px;'><p>Press '1' for A</p></div><div style='float: right;padding-right:30px;'><p>Press '0' for B</p> </div> </div></div>","null","","","","","","","","","","","","","","","",""
"2897","","test","audio-keyboard-response","56","304912","0.0-8.0-1.14","5fd91e63fc4cd73b6f597a52","condC","","resources/audio/wordStim/S3_AI_21_axb_Step-2.wav","48","","","","","","resources/audio/wordStim/S3_AI_21_axb_Step-2.wav","S3","21","axb","2","MI","CN","S3-CN","0","0","true"
"null","","fixation","html-keyboard-response","57","305915","0.0-8.0-0.15","5fd91e63fc4cd73b6f597a52","condC","","<div class=""vertical-center"" style='width:60%;'><img src=""resources/images/CN_flag_100x52.jpg"" style=""width:100px;height:52px;opacity:0.35;""> <br> <br> <p style='font-weight:bold;'>Does the middle word sound more like the first word (A) or the last word (B)?</p> <br> <div class=""container""> <div id=""a-box""> <p class=""title-text"">A</h3></p> </div> <div id=""x-box""> <p class=""title-text"">X<p> </div> <div id=""b-box""> <p class=""title-text"">B</p></div> <br> <div style='float: left;padding-left:30px;'><p>Press '1' for A</p></div><div style='float: right;padding-right:30px;'><p>Press '0' for B</p> </div> </div></div>","null","","","","","","","","","","","","","","","",""
"4420","","test","audio-keyboard-response","58","310336","0.0-8.0-1.15","5fd91e63fc4cd73b6f597a52","condC","","resources/audio/wordStim/S3_AU_18_bxa_Step-2.wav","48","","","","","","resources/audio/wordStim/S3_AU_18_bxa_Step-2.wav","S3","18","bxa","2","MI","CN","S3-CN","1","0","false"
"null","","fixation","html-keyboard-response","59","311339","0.0-8.0-0.16","5fd91e63fc4cd73b6f597a52","condC","","<div class=""vertical-center"" style='width:60%;'><img src=""resources/images/CN_flag_100x52.jpg"" style=""width:100px;height:52px;opacity:0.35;""> <br> <br> <p style='font-weight:bold;'>Does the middle word sound more like the first word (A) or the last word (B)?</p> <br> <div class=""container""> <div id=""a-box""> <p class=""title-text"">A</h3></p> </div> <div id=""x-box""> <p class=""title-text"">X<p> </div> <div id=""b-box""> <p class=""title-text"">B</p></div> <br> <div style='float: left;padding-left:30px;'><p>Press '1' for A</p></div><div style='float: right;padding-right:30px;'><p>Press '0' for B</p> </div> </div></div>","null","","","","","","","","","","","","","","","",""
"3332","","test","audio-keyboard-response","60","314671","0.0-8.0-1.16","5fd91e63fc4cd73b6f597a52","condC","","resources/audio/wordStim/S3_AU_18_axb_Step-5.wav","48","","","","","","resources/audio/wordStim/S3_AU_18_axb_Step-5.wav","S3","18","axb","5","MI","CN","S3-CN","0","0","true"
"null","","fixation","html-keyboard-response","61","315673","0.0-8.0-0.17","5fd91e63fc4cd73b6f597a52","condC","","<div class=""vertical-center"" style='width:60%;'><img src=""resources/images/CN_flag_100x52.jpg"" style=""width:100px;height:52px;opacity:0.35;""> <br> <br> <p style='font-weight:bold;'>Does the middle word sound more like the first word (A) or the last word (B)?</p> <br> <div class=""container""> <div id=""a-box""> <p class=""title-text"">A</h3></p> </div> <div id=""x-box""> <p class=""title-text"">X<p> </div> <div id=""b-box""> <p class=""title-text"">B</p></div> <br> <div style='float: left;padding-left:30px;'><p>Press '1' for A</p></div><div style='float: right;padding-right:30px;'><p>Press '0' for B</p> </div> </div></div>","null","","","","","","","","","","","","","","","",""
"3103","","test","audio-keyboard-response","62","318777","0.0-8.0-1.17","5fd91e63fc4cd73b6f597a52","condC","","resources/audio/wordStim/S3_AU_20_axb_Step-2.wav","49","","","","","","resources/audio/wordStim/S3_AU_20_axb_Step-2.wav","S3","20","axb","2","MI","CN","S3-CN","0","1","false"
"null","","fixation","html-keyboard-response","63","319780","0.0-8.0-0.18","5fd91e63fc4cd73b6f597a52","condC","","<div class=""vertical-center"" style='width:60%;'><img src=""resources/images/CN_flag_100x52.jpg"" style=""width:100px;height:52px;opacity:0.35;""> <br> <br> <p style='font-weight:bold;'>Does the middle word sound more like the first word (A) or the last word (B)?</p> <br> <div class=""container""> <div id=""a-box""> <p class=""title-text"">A</h3></p> </div> <div id=""x-box""> <p class=""title-text"">X<p> </div> <div id=""b-box""> <p class=""title-text"">B</p></div> <br> <div style='float: left;padding-left:30px;'><p>Press '1' for A</p></div><div style='float: right;padding-right:30px;'><p>Press '0' for B</p> </div> </div></div>","null","","","","","","","","","","","","","","","",""
"3323","","test","audio-keyboard-response","64","323105","0.0-8.0-1.18","5fd91e63fc4cd73b6f597a52","condC","","resources/audio/wordStim/S3_AI_21_bxa_Step-8.wav","49","","","","","","resources/audio/wordStim/S3_AI_21_bxa_Step-8.wav","S3","21","bxa","8","MI","CN","S3-CN","1","1","true"
"null","","fixation","html-keyboard-response","65","324108","0.0-8.0-0.19","5fd91e63fc4cd73b6f597a52","condC","","<div class=""vertical-center"" style='width:60%;'><img src=""resources/images/CN_flag_100x52.jpg"" style=""width:100px;height:52px;opacity:0.35;""> <br> <br> <p style='font-weight:bold;'>Does the middle word sound more like the first word (A) or the last word (B)?</p> <br> <div class=""container""> <div id=""a-box""> <p class=""title-text"">A</h3></p> </div> <div id=""x-box""> <p class=""title-text"">X<p> </div> <div id=""b-box""> <p class=""title-text"">B</p></div> <br> <div style='float: left;padding-left:30px;'><p>Press '1' for A</p></div><div style='float: right;padding-right:30px;'><p>Press '0' for B</p> </div> </div></div>","null","","","","","","","","","","","","","","","",""
"3631","","test","audio-keyboard-response","66","327740","0.0-8.0-1.19","5fd91e63fc4cd73b6f597a52","condC","","resources/audio/wordStim/S3_AU_20_bxa_Step-6.wav","49","","","","","","resources/audio/wordStim/S3_AU_20_bxa_Step-6.wav","S3","20","bxa","6","MI","CN","S3-CN","1","1","true"
"null","","fixation","html-keyboard-response","67","328743","0.0-8.0-0.20","5fd91e63fc4cd73b6f597a52","condC","","<div class=""vertical-center"" style='width:60%;'><img src=""resources/images/CN_flag_100x52.jpg"" style=""width:100px;height:52px;opacity:0.35;""> <br> <br> <p style='font-weight:bold;'>Does the middle word sound more like the first word (A) or the last word (B)?</p> <br> <div class=""container""> <div id=""a-box""> <p class=""title-text"">A</h3></p> </div> <div id=""x-box""> <p class=""title-text"">X<p> </div> <div id=""b-box""> <p class=""title-text"">B</p></div> <br> <div style='float: left;padding-left:30px;'><p>Press '1' for A</p></div><div style='float: right;padding-right:30px;'><p>Press '0' for B</p> </div> </div></div>","null","","","","","","","","","","","","","","","",""
"3477","","test","audio-keyboard-response","68","332224","0.0-8.0-1.20","5fd91e63fc4cd73b6f597a52","condC","","resources/audio/wordStim/S3_AU_18_axb_Step-7.wav","48","","","","","","resources/audio/wordStim/S3_AU_18_axb_Step-7.wav","S3","18","axb","7","MI","CN","S3-CN","0","0","true"
"1837.0000000000582","","break","html-keyboard-response","69","334563","0.0-8.0-2.20-0.20","5fd91e63fc4cd73b6f597a52","condC","","<div class=""vertical-center""><p>Feel free to take a break!</p><i>When you're ready to continue, press SPACE to begin the next trial.</i></p></div>","32","","","","","","","","","","","","","","","",""
"null","","fixation","html-keyboard-response","70","335065","0.0-8.0-0.21","5fd91e63fc4cd73b6f597a52","condC","","<div class=""vertical-center"" style='width:60%;'><img src=""resources/images/CN_flag_100x52.jpg"" style=""width:100px;height:52px;opacity:0.35;""> <br> <br> <p style='font-weight:bold;'>Does the middle word sound more like the first word (A) or the last word (B)?</p> <br> <div class=""container""> <div id=""a-box""> <p class=""title-text"">A</h3></p> </div> <div id=""x-box""> <p class=""title-text"">X<p> </div> <div id=""b-box""> <p class=""title-text"">B</p></div> <br> <div style='float: left;padding-left:30px;'><p>Press '1' for A</p></div><div style='float: right;padding-right:30px;'><p>Press '0' for B</p> </div> </div></div>","null","","","","","","","","","","","","","","","",""
"5007","","test","audio-keyboard-response","71","340075","0.0-8.0-1.21","5fd91e63fc4cd73b6f597a52","condC","","resources/audio/wordStim/S3_AU_20_bxa_Step-4.wav","49","","","","","","resources/audio/wordStim/S3_AU_20_bxa_Step-4.wav","S3","20","bxa","4","MI","CN","S3-CN","1","1","true"
"null","","fixation","html-keyboard-response","72","341077","0.0-8.0-0.22","5fd91e63fc4cd73b6f597a52","condC","","<div class=""vertical-center"" style='width:60%;'><img src=""resources/images/CN_flag_100x52.jpg"" style=""width:100px;height:52px;opacity:0.35;""> <br> <br> <p style='font-weight:bold;'>Does the middle word sound more like the first word (A) or the last word (B)?</p> <br> <div class=""container""> <div id=""a-box""> <p class=""title-text"">A</h3></p> </div> <div id=""x-box""> <p class=""title-text"">X<p> </div> <div id=""b-box""> <p class=""title-text"">B</p></div> <br> <div style='float: left;padding-left:30px;'><p>Press '1' for A</p></div><div style='float: right;padding-right:30px;'><p>Press '0' for B</p> </div> </div></div>","null","","","","","","","","","","","","","","","",""
"3291","","test","audio-keyboard-response","73","344370","0.0-8.0-1.22","5fd91e63fc4cd73b6f597a52","condC","","resources/audio/wordStim/S3_AI_22_bxa_Step-4.wav","49","","","","","","resources/audio/wordStim/S3_AI_22_bxa_Step-4.wav","S3","22","bxa","4","MI","CN","S3-CN","1","1","true"
"null","","fixation","html-keyboard-response","74","345372","0.0-8.0-0.23","5fd91e63fc4cd73b6f597a52","condC","","<div class=""vertical-center"" style='width:60%;'><img src=""resources/images/CN_flag_100x52.jpg"" style=""width:100px;height:52px;opacity:0.35;""> <br> <br> <p style='font-weight:bold;'>Does the middle word sound more like the first word (A) or the last word (B)?</p> <br> <div class=""container""> <div id=""a-box""> <p class=""title-text"">A</h3></p> </div> <div id=""x-box""> <p class=""title-text"">X<p> </div> <div id=""b-box""> <p class=""title-text"">B</p></div> <br> <div style='float: left;padding-left:30px;'><p>Press '1' for A</p></div><div style='float: right;padding-right:30px;'><p>Press '0' for B</p> </div> </div></div>","null","","","","","","","","","","","","","","","",""
"3712","","test","audio-keyboard-response","75","349085","0.0-8.0-1.23","5fd91e63fc4cd73b6f597a52","condC","","resources/audio/wordStim/S3_AI_21_axb_Step-6.wav","49","","","","","","resources/audio/wordStim/S3_AI_21_axb_Step-6.wav","S3","21","axb","6","MI","CN","S3-CN","0","1","false"
"null","","fixation","html-keyboard-response","76","350087","0.0-8.0-0.24","5fd91e63fc4cd73b6f597a52","condC","","<div class=""vertical-center"" style='width:60%;'><img src=""resources/images/CN_flag_100x52.jpg"" style=""width:100px;height:52px;opacity:0.35;""> <br> <br> <p style='font-weight:bold;'>Does the middle word sound more like the first word (A) or the last word (B)?</p> <br> <div class=""container""> <div id=""a-box""> <p class=""title-text"">A</h3></p> </div> <div id=""x-box""> <p class=""title-text"">X<p> </div> <div id=""b-box""> <p class=""title-text"">B</p></div> <br> <div style='float: left;padding-left:30px;'><p>Press '1' for A</p></div><div style='float: right;padding-right:30px;'><p>Press '0' for B</p> </div> </div></div>","null","","","","","","","","","","","","","","","",""
"2752","","test","audio-keyboard-response","77","352839","0.0-8.0-1.24","5fd91e63fc4cd73b6f597a52","condC","","resources/audio/wordStim/S3_AU_19_bxa_Step-3.wav","48","","","","","","resources/audio/wordStim/S3_AU_19_bxa_Step-3.wav","S3","19","bxa","3","MI","CN","S3-CN","1","0","false"
"null","","fixation","html-keyboard-response","78","353842","0.0-8.0-0.25","5fd91e63fc4cd73b6f597a52","condC","","<div class=""vertical-center"" style='width:60%;'><img src=""resources/images/CN_flag_100x52.jpg"" style=""width:100px;height:52px;opacity:0.35;""> <br> <br> <p style='font-weight:bold;'>Does the middle word sound more like the first word (A) or the last word (B)?</p> <br> <div class=""container""> <div id=""a-box""> <p class=""title-text"">A</h3></p> </div> <div id=""x-box""> <p class=""title-text"">X<p> </div> <div id=""b-box""> <p class=""title-text"">B</p></div> <br> <div style='float: left;padding-left:30px;'><p>Press '1' for A</p></div><div style='float: right;padding-right:30px;'><p>Press '0' for B</p> </div> </div></div>","null","","","","","","","","","","","","","","","",""
"3666","","test","audio-keyboard-response","79","357509","0.0-8.0-1.25","5fd91e63fc4cd73b6f597a52","condC","","resources/audio/wordStim/S3_AU_20_axb_Step-5.wav","49","","","","","","resources/audio/wordStim/S3_AU_20_axb_Step-5.wav","S3","20","axb","5","MI","CN","S3-CN","0","1","false"
"null","","fixation","html-keyboard-response","80","358511","0.0-8.0-0.26","5fd91e63fc4cd73b6f597a52","condC","","<div class=""vertical-center"" style='width:60%;'><img src=""resources/images/CN_flag_100x52.jpg"" style=""width:100px;height:52px;opacity:0.35;""> <br> <br> <p style='font-weight:bold;'>Does the middle word sound more like the first word (A) or the last word (B)?</p> <br> <div class=""container""> <div id=""a-box""> <p class=""title-text"">A</h3></p> </div> <div id=""x-box""> <p class=""title-text"">X<p> </div> <div id=""b-box""> <p class=""title-text"">B</p></div> <br> <div style='float: left;padding-left:30px;'><p>Press '1' for A</p></div><div style='float: right;padding-right:30px;'><p>Press '0' for B</p> </div> </div></div>","null","","","","","","","","","","","","","","","",""
"3558","","test","audio-keyboard-response","81","362068","0.0-8.0-1.26","5fd91e63fc4cd73b6f597a52","condC","","resources/audio/wordStim/S3_AU_19_bxa_Step-5.wav","49","","","","","","resources/audio/wordStim/S3_AU_19_bxa_Step-5.wav","S3","19","bxa","5","MI","CN","S3-CN","1","1","true"
"null","","fixation","html-keyboard-response","82","363071","0.0-8.0-0.27","5fd91e63fc4cd73b6f597a52","condC","","<div class=""vertical-center"" style='width:60%;'><img src=""resources/images/CN_flag_100x52.jpg"" style=""width:100px;height:52px;opacity:0.35;""> <br> <br> <p style='font-weight:bold;'>Does the middle word sound more like the first word (A) or the last word (B)?</p> <br> <div class=""container""> <div id=""a-box""> <p class=""title-text"">A</h3></p> </div> <div id=""x-box""> <p class=""title-text"">X<p> </div> <div id=""b-box""> <p class=""title-text"">B</p></div> <br> <div style='float: left;padding-left:30px;'><p>Press '1' for A</p></div><div style='float: right;padding-right:30px;'><p>Press '0' for B</p> </div> </div></div>","null","","","","","","","","","","","","","","","",""
"3483","","test","audio-keyboard-response","83","366557","0.0-8.0-1.27","5fd91e63fc4cd73b6f597a52","condC","","resources/audio/wordStim/S3_AU_20_axb_Step-6.wav","49","","","","","","resources/audio/wordStim/S3_AU_20_axb_Step-6.wav","S3","20","axb","6","MI","CN","S3-CN","0","1","false"
"null","","fixation","html-keyboard-response","84","367559","0.0-8.0-0.28","5fd91e63fc4cd73b6f597a52","condC","","<div class=""vertical-center"" style='width:60%;'><img src=""resources/images/CN_flag_100x52.jpg"" style=""width:100px;height:52px;opacity:0.35;""> <br> <br> <p style='font-weight:bold;'>Does the middle word sound more like the first word (A) or the last word (B)?</p> <br> <div class=""container""> <div id=""a-box""> <p class=""title-text"">A</h3></p> </div> <div id=""x-box""> <p class=""title-text"">X<p> </div> <div id=""b-box""> <p class=""title-text"">B</p></div> <br> <div style='float: left;padding-left:30px;'><p>Press '1' for A</p></div><div style='float: right;padding-right:30px;'><p>Press '0' for B</p> </div> </div></div>","null","","","","","","","","","","","","","","","",""
"3608","","test","audio-keyboard-response","85","371167","0.0-8.0-1.28","5fd91e63fc4cd73b6f597a52","condC","","resources/audio/wordStim/S3_AI_30_bxa_Step-5.wav","49","","","","","","resources/audio/wordStim/S3_AI_30_bxa_Step-5.wav","S3","30","bxa","5","MI","CN","S3-CN","1","1","true"
"null","","fixation","html-keyboard-response","86","372170","0.0-8.0-0.29","5fd91e63fc4cd73b6f597a52","condC","","<div class=""vertical-center"" style='width:60%;'><img src=""resources/images/CN_flag_100x52.jpg"" style=""width:100px;height:52px;opacity:0.35;""> <br> <br> <p style='font-weight:bold;'>Does the middle word sound more like the first word (A) or the last word (B)?</p> <br> <div class=""container""> <div id=""a-box""> <p class=""title-text"">A</h3></p> </div> <div id=""x-box""> <p class=""title-text"">X<p> </div> <div id=""b-box""> <p class=""title-text"">B</p></div> <br> <div style='float: left;padding-left:30px;'><p>Press '1' for A</p></div><div style='float: right;padding-right:30px;'><p>Press '0' for B</p> </div> </div></div>","null","","","","","","","","","","","","","","","",""
"2885","","test","audio-keyboard-response","87","375055","0.0-8.0-1.29","5fd91e63fc4cd73b6f597a52","condC","","resources/audio/wordStim/S3_AU_19_axb_Step-3.wav","49","","","","","","resources/audio/wordStim/S3_AU_19_axb_Step-3.wav","S3","19","axb","3","MI","CN","S3-CN","0","1","false"
"null","","fixation","html-keyboard-response","88","376058","0.0-8.0-0.30","5fd91e63fc4cd73b6f597a52","condC","","<div class=""vertical-center"" style='width:60%;'><img src=""resources/images/CN_flag_100x52.jpg"" style=""width:100px;height:52px;opacity:0.35;""> <br> <br> <p style='font-weight:bold;'>Does the middle word sound more like the first word (A) or the last word (B)?</p> <br> <div class=""container""> <div id=""a-box""> <p class=""title-text"">A</h3></p> </div> <div id=""x-box""> <p class=""title-text"">X<p> </div> <div id=""b-box""> <p class=""title-text"">B</p></div> <br> <div style='float: left;padding-left:30px;'><p>Press '1' for A</p></div><div style='float: right;padding-right:30px;'><p>Press '0' for B</p> </div> </div></div>","null","","","","","","","","","","","","","","","",""
"3376","","test","audio-keyboard-response","89","379435","0.0-8.0-1.30","5fd91e63fc4cd73b6f597a52","condC","","resources/audio/wordStim/S3_AI_22_axb_Step-5.wav","49","","","","","","resources/audio/wordStim/S3_AI_22_axb_Step-5.wav","S3","22","axb","5","MI","CN","S3-CN","0","1","false"
"null","","fixation","html-keyboard-response","90","380438","0.0-8.0-0.31","5fd91e63fc4cd73b6f597a52","condC","","<div class=""vertical-center"" style='width:60%;'><img src=""resources/images/CN_flag_100x52.jpg"" style=""width:100px;height:52px;opacity:0.35;""> <br> <br> <p style='font-weight:bold;'>Does the middle word sound more like the first word (A) or the last word (B)?</p> <br> <div class=""container""> <div id=""a-box""> <p class=""title-text"">A</h3></p> </div> <div id=""x-box""> <p class=""title-text"">X<p> </div> <div id=""b-box""> <p class=""title-text"">B</p></div> <br> <div style='float: left;padding-left:30px;'><p>Press '1' for A</p></div><div style='float: right;padding-right:30px;'><p>Press '0' for B</p> </div> </div></div>","null","","","","","","","","","","","","","","","",""
"2987","","test","audio-keyboard-response","91","383427","0.0-8.0-1.31","5fd91e63fc4cd73b6f597a52","condC","","resources/audio/wordStim/S3_AI_21_bxa_Step-5.wav","49","","","","","","resources/audio/wordStim/S3_AI_21_bxa_Step-5.wav","S3","21","bxa","5","MI","CN","S3-CN","1","1","true"
"null","","fixation","html-keyboard-response","92","384429","0.0-8.0-0.32","5fd91e63fc4cd73b6f597a52","condC","","<div class=""vertical-center"" style='width:60%;'><img src=""resources/images/CN_flag_100x52.jpg"" style=""width:100px;height:52px;opacity:0.35;""> <br> <br> <p style='font-weight:bold;'>Does the middle word sound more like the first word (A) or the last word (B)?</p> <br> <div class=""container""> <div id=""a-box""> <p class=""title-text"">A</h3></p> </div> <div id=""x-box""> <p class=""title-text"">X<p> </div> <div id=""b-box""> <p class=""title-text"">B</p></div> <br> <div style='float: left;padding-left:30px;'><p>Press '1' for A</p></div><div style='float: right;padding-right:30px;'><p>Press '0' for B</p> </div> </div></div>","null","","","","","","","","","","","","","","","",""
"3553","","test","audio-keyboard-response","93","387984","0.0-8.0-1.32","5fd91e63fc4cd73b6f597a52","condC","","resources/audio/wordStim/S3_AI_30_axb_Step-6.wav","49","","","","","","resources/audio/wordStim/S3_AI_30_axb_Step-6.wav","S3","30","axb","6","MI","CN","S3-CN","0","1","false"
"null","","fixation","html-keyboard-response","94","388986","0.0-8.0-0.33","5fd91e63fc4cd73b6f597a52","condC","","<div class=""vertical-center"" style='width:60%;'><img src=""resources/images/CN_flag_100x52.jpg"" style=""width:100px;height:52px;opacity:0.35;""> <br> <br> <p style='font-weight:bold;'>Does the middle word sound more like the first word (A) or the last word (B)?</p> <br> <div class=""container""> <div id=""a-box""> <p class=""title-text"">A</h3></p> </div> <div id=""x-box""> <p class=""title-text"">X<p> </div> <div id=""b-box""> <p class=""title-text"">B</p></div> <br> <div style='float: left;padding-left:30px;'><p>Press '1' for A</p></div><div style='float: right;padding-right:30px;'><p>Press '0' for B</p> </div> </div></div>","null","","","","","","","","","","","","","","","",""
"2998","","test","audio-keyboard-response","95","391985","0.0-8.0-1.33","5fd91e63fc4cd73b6f597a52","condC","","resources/audio/wordStim/S3_AU_19_axb_Step-4.wav","49","","","","","","resources/audio/wordStim/S3_AU_19_axb_Step-4.wav","S3","19","axb","4","MI","CN","S3-CN","0","1","false"
"null","","fixation","html-keyboard-response","96","392988","0.0-8.0-0.34","5fd91e63fc4cd73b6f597a52","condC","","<div class=""vertical-center"" style='width:60%;'><img src=""resources/images/CN_flag_100x52.jpg"" style=""width:100px;height:52px;opacity:0.35;""> <br> <br> <p style='font-weight:bold;'>Does the middle word sound more like the first word (A) or the last word (B)?</p> <br> <div class=""container""> <div id=""a-box""> <p class=""title-text"">A</h3></p> </div> <div id=""x-box""> <p class=""title-text"">X<p> </div> <div id=""b-box""> <p class=""title-text"">B</p></div> <br> <div style='float: left;padding-left:30px;'><p>Press '1' for A</p></div><div style='float: right;padding-right:30px;'><p>Press '0' for B</p> </div> </div></div>","null","","","","","","","","","","","","","","","",""
"3004","","test","audio-keyboard-response","97","395995","0.0-8.0-1.34","5fd91e63fc4cd73b6f597a52","condC","","resources/audio/wordStim/S3_AI_22_axb_Step-8.wav","48","","","","","","resources/audio/wordStim/S3_AI_22_axb_Step-8.wav","S3","22","axb","8","MI","CN","S3-CN","0","0","true"
"null","","fixation","html-keyboard-response","98","396997","0.0-8.0-0.35","5fd91e63fc4cd73b6f597a52","condC","","<div class=""vertical-center"" style='width:60%;'><img src=""resources/images/CN_flag_100x52.jpg"" style=""width:100px;height:52px;opacity:0.35;""> <br> <br> <p style='font-weight:bold;'>Does the middle word sound more like the first word (A) or the last word (B)?</p> <br> <div class=""container""> <div id=""a-box""> <p class=""title-text"">A</h3></p> </div> <div id=""x-box""> <p class=""title-text"">X<p> </div> <div id=""b-box""> <p class=""title-text"">B</p></div> <br> <div style='float: left;padding-left:30px;'><p>Press '1' for A</p></div><div style='float: right;padding-right:30px;'><p>Press '0' for B</p> </div> </div></div>","null","","","","","","","","","","","","","","","",""
"3068","","test","audio-keyboard-response","99","400066","0.0-8.0-1.35","5fd91e63fc4cd73b6f597a52","condC","","resources/audio/wordStim/S3_AI_22_bxa_Step-8.wav","49","","","","","","resources/audio/wordStim/S3_AI_22_bxa_Step-8.wav","S3","22","bxa","8","MI","CN","S3-CN","1","1","true"
"null","","fixation","html-keyboard-response","100","401069","0.0-8.0-0.36","5fd91e63fc4cd73b6f597a52","condC","","<div class=""vertical-center"" style='width:60%;'><img src=""resources/images/CN_flag_100x52.jpg"" style=""width:100px;height:52px;opacity:0.35;""> <br> <br> <p style='font-weight:bold;'>Does the middle word sound more like the first word (A) or the last word (B)?</p> <br> <div class=""container""> <div id=""a-box""> <p class=""title-text"">A</h3></p> </div> <div id=""x-box""> <p class=""title-text"">X<p> </div> <div id=""b-box""> <p class=""title-text"">B</p></div> <br> <div style='float: left;padding-left:30px;'><p>Press '1' for A</p></div><div style='float: right;padding-right:30px;'><p>Press '0' for B</p> </div> </div></div>","null","","","","","","","","","","","","","","","",""
"3135","","test","audio-keyboard-response","101","404205","0.0-8.0-1.36","5fd91e63fc4cd73b6f597a52","condC","","resources/audio/wordStim/S3_AI_22_bxa_Step-7.wav","49","","","","","","resources/audio/wordStim/S3_AI_22_bxa_Step-7.wav","S3","22","bxa","7","MI","CN","S3-CN","1","1","true"
"null","","fixation","html-keyboard-response","102","405208","0.0-8.0-0.37","5fd91e63fc4cd73b6f597a52","condC","","<div class=""vertical-center"" style='width:60%;'><img src=""resources/images/CN_flag_100x52.jpg"" style=""width:100px;height:52px;opacity:0.35;""> <br> <br> <p style='font-weight:bold;'>Does the middle word sound more like the first word (A) or the last word (B)?</p> <br> <div class=""container""> <div id=""a-box""> <p class=""title-text"">A</h3></p> </div> <div id=""x-box""> <p class=""title-text"">X<p> </div> <div id=""b-box""> <p class=""title-text"">B</p></div> <br> <div style='float: left;padding-left:30px;'><p>Press '1' for A</p></div><div style='float: right;padding-right:30px;'><p>Press '0' for B</p> </div> </div></div>","null","","","","","","","","","","","","","","","",""
"2856","","test","audio-keyboard-response","103","408065","0.0-8.0-1.37","5fd91e63fc4cd73b6f597a52","condC","","resources/audio/wordStim/S3_AU_19_axb_Step-2.wav","49","","","","","","resources/audio/wordStim/S3_AU_19_axb_Step-2.wav","S3","19","axb","2","MI","CN","S3-CN","0","1","false"
"null","","fixation","html-keyboard-response","104","409068","0.0-8.0-0.38","5fd91e63fc4cd73b6f597a52","condC","","<div class=""vertical-center"" style='width:60%;'><img src=""resources/images/CN_flag_100x52.jpg"" style=""width:100px;height:52px;opacity:0.35;""> <br> <br> <p style='font-weight:bold;'>Does the middle word sound more like the first word (A) or the last word (B)?</p> <br> <div class=""container""> <div id=""a-box""> <p class=""title-text"">A</h3></p> </div> <div id=""x-box""> <p class=""title-text"">X<p> </div> <div id=""b-box""> <p class=""title-text"">B</p></div> <br> <div style='float: left;padding-left:30px;'><p>Press '1' for A</p></div><div style='float: right;padding-right:30px;'><p>Press '0' for B</p> </div> </div></div>","null","","","","","","","","","","","","","","","",""
"3779","","test","audio-keyboard-response","105","412850","0.0-8.0-1.38","5fd91e63fc4cd73b6f597a52","condC","","resources/audio/wordStim/S3_AI_30_axb_Step-7.wav","48","","","","","","resources/audio/wordStim/S3_AI_30_axb_Step-7.wav","S3","30","axb","7","MI","CN","S3-CN","0","0","true"
"null","","fixation","html-keyboard-response","106","413852","0.0-8.0-0.39","5fd91e63fc4cd73b6f597a52","condC","","<div class=""vertical-center"" style='width:60%;'><img src=""resources/images/CN_flag_100x52.jpg"" style=""width:100px;height:52px;opacity:0.35;""> <br> <br> <p style='font-weight:bold;'>Does the middle word sound more like the first word (A) or the last word (B)?</p> <br> <div class=""container""> <div id=""a-box""> <p class=""title-text"">A</h3></p> </div> <div id=""x-box""> <p class=""title-text"">X<p> </div> <div id=""b-box""> <p class=""title-text"">B</p></div> <br> <div style='float: left;padding-left:30px;'><p>Press '1' for A</p></div><div style='float: right;padding-right:30px;'><p>Press '0' for B</p> </div> </div></div>","null","","","","","","","","","","","","","","","",""
"3065","","test","audio-keyboard-response","107","416918","0.0-8.0-1.39","5fd91e63fc4cd73b6f597a52","condC","","resources/audio/wordStim/S3_AI_30_bxa_Step-6.wav","49","","","","","","resources/audio/wordStim/S3_AI_30_bxa_Step-6.wav","S3","30","bxa","6","MI","CN","S3-CN","1","1","true"
"null","","fixation","html-keyboard-response","108","417921","0.0-8.0-0.40","5fd91e63fc4cd73b6f597a52","condC","","<div class=""vertical-center"" style='width:60%;'><img src=""resources/images/CN_flag_100x52.jpg"" style=""width:100px;height:52px;opacity:0.35;""> <br> <br> <p style='font-weight:bold;'>Does the middle word sound more like the first word (A) or the last word (B)?</p> <br> <div class=""container""> <div id=""a-box""> <p class=""title-text"">A</h3></p> </div> <div id=""x-box""> <p class=""title-text"">X<p> </div> <div id=""b-box""> <p class=""title-text"">B</p></div> <br> <div style='float: left;padding-left:30px;'><p>Press '1' for A</p></div><div style='float: right;padding-right:30px;'><p>Press '0' for B</p> </div> </div></div>","null","","","","","","","","","","","","","","","",""
"3138","","test","audio-keyboard-response","109","421060","0.0-8.0-1.40","5fd91e63fc4cd73b6f597a52","condC","","resources/audio/wordStim/S3_AI_30_axb_Step-8.wav","48","","","","","","resources/audio/wordStim/S3_AI_30_axb_Step-8.wav","S3","30","axb","8","MI","CN","S3-CN","0","0","true"
"null","","fixation","html-keyboard-response","110","422063","0.0-8.0-0.41","5fd91e63fc4cd73b6f597a52","condC","","<div class=""vertical-center"" style='width:60%;'><img src=""resources/images/CN_flag_100x52.jpg"" style=""width:100px;height:52px;opacity:0.35;""> <br> <br> <p style='font-weight:bold;'>Does the middle word sound more like the first word (A) or the last word (B)?</p> <br> <div class=""container""> <div id=""a-box""> <p class=""title-text"">A</h3></p> </div> <div id=""x-box""> <p class=""title-text"">X<p> </div> <div id=""b-box""> <p class=""title-text"">B</p></div> <br> <div style='float: left;padding-left:30px;'><p>Press '1' for A</p></div><div style='float: right;padding-right:30px;'><p>Press '0' for B</p> </div> </div></div>","null","","","","","","","","","","","","","","","",""
"3143","","test","audio-keyboard-response","111","425207","0.0-8.0-1.41","5fd91e63fc4cd73b6f597a52","condC","","resources/audio/wordStim/S3_AI_30_bxa_Step-8.wav","49","","","","","","resources/audio/wordStim/S3_AI_30_bxa_Step-8.wav","S3","30","bxa","8","MI","CN","S3-CN","1","1","true"
"1934","","break","html-keyboard-response","112","427643","0.0-8.0-2.41-0.41","5fd91e63fc4cd73b6f597a52","condC","","<div class=""vertical-center""><p>Feel free to take a break!</p><i>When you're ready to continue, press SPACE to begin the next trial.</i></p></div>","32","","","","","","","","","","","","","","","",""
"null","","fixation","html-keyboard-response","113","428144","0.0-8.0-0.42","5fd91e63fc4cd73b6f597a52","condC","","<div class=""vertical-center"" style='width:60%;'><img src=""resources/images/CN_flag_100x52.jpg"" style=""width:100px;height:52px;opacity:0.35;""> <br> <br> <p style='font-weight:bold;'>Does the middle word sound more like the first word (A) or the last word (B)?</p> <br> <div class=""container""> <div id=""a-box""> <p class=""title-text"">A</h3></p> </div> <div id=""x-box""> <p class=""title-text"">X<p> </div> <div id=""b-box""> <p class=""title-text"">B</p></div> <br> <div style='float: left;padding-left:30px;'><p>Press '1' for A</p></div><div style='float: right;padding-right:30px;'><p>Press '0' for B</p> </div> </div></div>","null","","","","","","","","","","","","","","","",""
"4496","","test","audio-keyboard-response","114","432641","0.0-8.0-1.42","5fd91e63fc4cd73b6f597a52","condC","","resources/audio/wordStim/S3_AU_18_bxa_Step-5.wav","49","","","","","","resources/audio/wordStim/S3_AU_18_bxa_Step-5.wav","S3","18","bxa","5","MI","CN","S3-CN","1","1","true"
"null","","fixation","html-keyboard-response","115","433644","0.0-8.0-0.43","5fd91e63fc4cd73b6f597a52","condC","","<div class=""vertical-center"" style='width:60%;'><img src=""resources/images/CN_flag_100x52.jpg"" style=""width:100px;height:52px;opacity:0.35;""> <br> <br> <p style='font-weight:bold;'>Does the middle word sound more like the first word (A) or the last word (B)?</p> <br> <div class=""container""> <div id=""a-box""> <p class=""title-text"">A</h3></p> </div> <div id=""x-box""> <p class=""title-text"">X<p> </div> <div id=""b-box""> <p class=""title-text"">B</p></div> <br> <div style='float: left;padding-left:30px;'><p>Press '1' for A</p></div><div style='float: right;padding-right:30px;'><p>Press '0' for B</p> </div> </div></div>","null","","","","","","","","","","","","","","","",""
"3051","","test","audio-keyboard-response","116","436696","0.0-8.0-1.43","5fd91e63fc4cd73b6f597a52","condC","","resources/audio/wordStim/S3_AI_22_bxa_Step-5.wav","49","","","","","","resources/audio/wordStim/S3_AI_22_bxa_Step-5.wav","S3","22","bxa","5","MI","CN","S3-CN","1","1","true"
"null","","fixation","html-keyboard-response","117","437698","0.0-8.0-0.44","5fd91e63fc4cd73b6f597a52","condC","","<div class=""vertical-center"" style='width:60%;'><img src=""resources/images/CN_flag_100x52.jpg"" style=""width:100px;height:52px;opacity:0.35;""> <br> <br> <p style='font-weight:bold;'>Does the middle word sound more like the first word (A) or the last word (B)?</p> <br> <div class=""container""> <div id=""a-box""> <p class=""title-text"">A</h3></p> </div> <div id=""x-box""> <p class=""title-text"">X<p> </div> <div id=""b-box""> <p class=""title-text"">B</p></div> <br> <div style='float: left;padding-left:30px;'><p>Press '1' for A</p></div><div style='float: right;padding-right:30px;'><p>Press '0' for B</p> </div> </div></div>","null","","","","","","","","","","","","","","","",""
"2737","","test","audio-keyboard-response","118","440438","0.0-8.0-1.44","5fd91e63fc4cd73b6f597a52","condC","","resources/audio/wordStim/S3_AI_21_bxa_Step-7.wav","49","","","","","","resources/audio/wordStim/S3_AI_21_bxa_Step-7.wav","S3","21","bxa","7","MI","CN","S3-CN","1","1","true"
"null","","fixation","html-keyboard-response","119","441441","0.0-8.0-0.45","5fd91e63fc4cd73b6f597a52","condC","","<div class=""vertical-center"" style='width:60%;'><img src=""resources/images/CN_flag_100x52.jpg"" style=""width:100px;height:52px;opacity:0.35;""> <br> <br> <p style='font-weight:bold;'>Does the middle word sound more like the first word (A) or the last word (B)?</p> <br> <div class=""container""> <div id=""a-box""> <p class=""title-text"">A</h3></p> </div> <div id=""x-box""> <p class=""title-text"">X<p> </div> <div id=""b-box""> <p class=""title-text"">B</p></div> <br> <div style='float: left;padding-left:30px;'><p>Press '1' for A</p></div><div style='float: right;padding-right:30px;'><p>Press '0' for B</p> </div> </div></div>","null","","","","","","","","","","","","","","","",""
"3840","","test","audio-keyboard-response","120","445282","0.0-8.0-1.45","5fd91e63fc4cd73b6f597a52","condC","","resources/audio/wordStim/S3_AU_18_axb_Step-8.wav","48","","","","","","resources/audio/wordStim/S3_AU_18_axb_Step-8.wav","S3","18","axb","8","MI","CN","S3-CN","0","0","true"
"null","","fixation","html-keyboard-response","121","446285","0.0-8.0-0.46","5fd91e63fc4cd73b6f597a52","condC","","<div class=""vertical-center"" style='width:60%;'><img src=""resources/images/CN_flag_100x52.jpg"" style=""width:100px;height:52px;opacity:0.35;""> <br> <br> <p style='font-weight:bold;'>Does the middle word sound more like the first word (A) or the last word (B)?</p> <br> <div class=""container""> <div id=""a-box""> <p class=""title-text"">A</h3></p> </div> <div id=""x-box""> <p class=""title-text"">X<p> </div> <div id=""b-box""> <p class=""title-text"">B</p></div> <br> <div style='float: left;padding-left:30px;'><p>Press '1' for A</p></div><div style='float: right;padding-right:30px;'><p>Press '0' for B</p> </div> </div></div>","null","","","","","","","","","","","","","","","",""
"2563","","test","audio-keyboard-response","122","448848","0.0-8.0-1.46","5fd91e63fc4cd73b6f597a52","condC","","resources/audio/wordStim/S3_AI_21_axb_Step-5.wav","49","","","","","","resources/audio/wordStim/S3_AI_21_axb_Step-5.wav","S3","21","axb","5","MI","CN","S3-CN","0","1","false"
"null","","fixation","html-keyboard-response","123","449852","0.0-8.0-0.47","5fd91e63fc4cd73b6f597a52","condC","","<div class=""vertical-center"" style='width:60%;'><img src=""resources/images/CN_flag_100x52.jpg"" style=""width:100px;height:52px;opacity:0.35;""> <br> <br> <p style='font-weight:bold;'>Does the middle word sound more like the first word (A) or the last word (B)?</p> <br> <div class=""container""> <div id=""a-box""> <p class=""title-text"">A</h3></p> </div> <div id=""x-box""> <p class=""title-text"">X<p> </div> <div id=""b-box""> <p class=""title-text"">B</p></div> <br> <div style='float: left;padding-left:30px;'><p>Press '1' for A</p></div><div style='float: right;padding-right:30px;'><p>Press '0' for B</p> </div> </div></div>","null","","","","","","","","","","","","","","","",""
"3367","","test","audio-keyboard-response","124","453220","0.0-8.0-1.47","5fd91e63fc4cd73b6f597a52","condC","","resources/audio/wordStim/S3_AI_22_bxa_Step-2.wav","48","","","","","","resources/audio/wordStim/S3_AI_22_bxa_Step-2.wav","S3","22","bxa","2","MI","CN","S3-CN","1","0","false"
"null","","fixation","html-keyboard-response","125","454223","0.0-8.0-0.48","5fd91e63fc4cd73b6f597a52","condC","","<div class=""vertical-center"" style='width:60%;'><img src=""resources/images/CN_flag_100x52.jpg"" style=""width:100px;height:52px;opacity:0.35;""> <br> <br> <p style='font-weight:bold;'>Does the middle word sound more like the first word (A) or the last word (B)?</p> <br> <div class=""container""> <div id=""a-box""> <p class=""title-text"">A</h3></p> </div> <div id=""x-box""> <p class=""title-text"">X<p> </div> <div id=""b-box""> <p class=""title-text"">B</p></div> <br> <div style='float: left;padding-left:30px;'><p>Press '1' for A</p></div><div style='float: right;padding-right:30px;'><p>Press '0' for B</p> </div> </div></div>","null","","","","","","","","","","","","","","","",""
"3170","","test","audio-keyboard-response","126","457394","0.0-8.0-1.48","5fd91e63fc4cd73b6f597a52","condC","","resources/audio/wordStim/S3_AI_30_bxa_Step-7.wav","49","","","","","","resources/audio/wordStim/S3_AI_30_bxa_Step-7.wav","S3","30","bxa","7","MI","CN","S3-CN","1","1","true"
"null","","fixation","html-keyboard-response","127","458397","0.0-8.0-0.49","5fd91e63fc4cd73b6f597a52","condC","","<div class=""vertical-center"" style='width:60%;'><img src=""resources/images/CN_flag_100x52.jpg"" style=""width:100px;height:52px;opacity:0.35;""> <br> <br> <p style='font-weight:bold;'>Does the middle word sound more like the first word (A) or the last word (B)?</p> <br> <div class=""container""> <div id=""a-box""> <p class=""title-text"">A</h3></p> </div> <div id=""x-box""> <p class=""title-text"">X<p> </div> <div id=""b-box""> <p class=""title-text"">B</p></div> <br> <div style='float: left;padding-left:30px;'><p>Press '1' for A</p></div><div style='float: right;padding-right:30px;'><p>Press '0' for B</p> </div> </div></div>","null","","","","","","","","","","","","","","","",""
"4235","","test","audio-keyboard-response","128","462633","0.0-8.0-1.49","5fd91e63fc4cd73b6f597a52","condC","","resources/audio/wordStim/S3_AI_22_axb_Step-4.wav","49","","","","","","resources/audio/wordStim/S3_AI_22_axb_Step-4.wav","S3","22","axb","4","MI","CN","S3-CN","0","1","false"
"null","","fixation","html-keyboard-response","129","463636","0.0-8.0-0.50","5fd91e63fc4cd73b6f597a52","condC","","<div class=""vertical-center"" style='width:60%;'><img src=""resources/images/CN_flag_100x52.jpg"" style=""width:100px;height:52px;opacity:0.35;""> <br> <br> <p style='font-weight:bold;'>Does the middle word sound more like the first word (A) or the last word (B)?</p> <br> <div class=""container""> <div id=""a-box""> <p class=""title-text"">A</h3></p> </div> <div id=""x-box""> <p class=""title-text"">X<p> </div> <div id=""b-box""> <p class=""title-text"">B</p></div> <br> <div style='float: left;padding-left:30px;'><p>Press '1' for A</p></div><div style='float: right;padding-right:30px;'><p>Press '0' for B</p> </div> </div></div>","null","","","","","","","","","","","","","","","",""
"2981","","test","audio-keyboard-response","130","466618","0.0-8.0-1.50","5fd91e63fc4cd73b6f597a52","condC","","resources/audio/wordStim/S3_AU_19_axb_Step-5.wav","49","","","","","","resources/audio/wordStim/S3_AU_19_axb_Step-5.wav","S3","19","axb","5","MI","CN","S3-CN","0","1","false"
"null","","fixation","html-keyboard-response","131","467621","0.0-8.0-0.51","5fd91e63fc4cd73b6f597a52","condC","","<div class=""vertical-center"" style='width:60%;'><img src=""resources/images/CN_flag_100x52.jpg"" style=""width:100px;height:52px;opacity:0.35;""> <br> <br> <p style='font-weight:bold;'>Does the middle word sound more like the first word (A) or the last word (B)?</p> <br> <div class=""container""> <div id=""a-box""> <p class=""title-text"">A</h3></p> </div> <div id=""x-box""> <p class=""title-text"">X<p> </div> <div id=""b-box""> <p class=""title-text"">B</p></div> <br> <div style='float: left;padding-left:30px;'><p>Press '1' for A</p></div><div style='float: right;padding-right:30px;'><p>Press '0' for B</p> </div> </div></div>","null","","","","","","","","","","","","","","","",""
"2760","","test","audio-keyboard-response","132","470382","0.0-8.0-1.51","5fd91e63fc4cd73b6f597a52","condC","","resources/audio/wordStim/S3_AU_19_bxa_Step-6.wav","49","","","","","","resources/audio/wordStim/S3_AU_19_bxa_Step-6.wav","S3","19","bxa","6","MI","CN","S3-CN","1","1","true"
"null","","fixation","html-keyboard-response","133","471385","0.0-8.0-0.52","5fd91e63fc4cd73b6f597a52","condC","","<div class=""vertical-center"" style='width:60%;'><img src=""resources/images/CN_flag_100x52.jpg"" style=""width:100px;height:52px;opacity:0.35;""> <br> <br> <p style='font-weight:bold;'>Does the middle word sound more like the first word (A) or the last word (B)?</p> <br> <div class=""container""> <div id=""a-box""> <p class=""title-text"">A</h3></p> </div> <div id=""x-box""> <p class=""title-text"">X<p> </div> <div id=""b-box""> <p class=""title-text"">B</p></div> <br> <div style='float: left;padding-left:30px;'><p>Press '1' for A</p></div><div style='float: right;padding-right:30px;'><p>Press '0' for B</p> </div> </div></div>","null","","","","","","","","","","","","","","","",""
"3277","","test","audio-keyboard-response","134","474664","0.0-8.0-1.52","5fd91e63fc4cd73b6f597a52","condC","","resources/audio/wordStim/S3_AI_22_bxa_Step-6.wav","49","","","","","","resources/audio/wordStim/S3_AI_22_bxa_Step-6.wav","S3","22","bxa","6","MI","CN","S3-CN","1","1","true"
"null","","fixation","html-keyboard-response","135","475667","0.0-8.0-0.53","5fd91e63fc4cd73b6f597a52","condC","","<div class=""vertical-center"" style='width:60%;'><img src=""resources/images/CN_flag_100x52.jpg"" style=""width:100px;height:52px;opacity:0.35;""> <br> <br> <p style='font-weight:bold;'>Does the middle word sound more like the first word (A) or the last word (B)?</p> <br> <div class=""container""> <div id=""a-box""> <p class=""title-text"">A</h3></p> </div> <div id=""x-box""> <p class=""title-text"">X<p> </div> <div id=""b-box""> <p class=""title-text"">B</p></div> <br> <div style='float: left;padding-left:30px;'><p>Press '1' for A</p></div><div style='float: right;padding-right:30px;'><p>Press '0' for B</p> </div> </div></div>","null","","","","","","","","","","","","","","","",""
"2635","","test","audio-keyboard-response","136","478305","0.0-8.0-1.53","5fd91e63fc4cd73b6f597a52","condC","","resources/audio/wordStim/S3_AI_21_bxa_Step-4.wav","49","","","","","","resources/audio/wordStim/S3_AI_21_bxa_Step-4.wav","S3","21","bxa","4","MI","CN","S3-CN","1","1","true"
"null","","fixation","html-keyboard-response","137","479309","0.0-8.0-0.54","5fd91e63fc4cd73b6f597a52","condC","","<div class=""vertical-center"" style='width:60%;'><img src=""resources/images/CN_flag_100x52.jpg"" style=""width:100px;height:52px;opacity:0.35;""> <br> <br> <p style='font-weight:bold;'>Does the middle word sound more like the first word (A) or the last word (B)?</p> <br> <div class=""container""> <div id=""a-box""> <p class=""title-text"">A</h3></p> </div> <div id=""x-box""> <p class=""title-text"">X<p> </div> <div id=""b-box""> <p class=""title-text"">B</p></div> <br> <div style='float: left;padding-left:30px;'><p>Press '1' for A</p></div><div style='float: right;padding-right:30px;'><p>Press '0' for B</p> </div> </div></div>","null","","","","","","","","","","","","","","","",""
"3669","","test","audio-keyboard-response","138","482980","0.0-8.0-1.54","5fd91e63fc4cd73b6f597a52","condC","","resources/audio/wordStim/S3_AU_18_bxa_Step-4.wav","49","","","","","","resources/audio/wordStim/S3_AU_18_bxa_Step-4.wav","S3","18","bxa","4","MI","CN","S3-CN","1","1","true"
"null","","fixation","html-keyboard-response","139","483983","0.0-8.0-0.55","5fd91e63fc4cd73b6f597a52","condC","","<div class=""vertical-center"" style='width:60%;'><img src=""resources/images/CN_flag_100x52.jpg"" style=""width:100px;height:52px;opacity:0.35;""> <br> <br> <p style='font-weight:bold;'>Does the middle word sound more like the first word (A) or the last word (B)?</p> <br> <div class=""container""> <div id=""a-box""> <p class=""title-text"">A</h3></p> </div> <div id=""x-box""> <p class=""title-text"">X<p> </div> <div id=""b-box""> <p class=""title-text"">B</p></div> <br> <div style='float: left;padding-left:30px;'><p>Press '1' for A</p></div><div style='float: right;padding-right:30px;'><p>Press '0' for B</p> </div> </div></div>","null","","","","","","","","","","","","","","","",""
"2859","","test","audio-keyboard-response","140","486842","0.0-8.0-1.55","5fd91e63fc4cd73b6f597a52","condC","","resources/audio/wordStim/S3_AI_21_axb_Step-4.wav","49","","","","","","resources/audio/wordStim/S3_AI_21_axb_Step-4.wav","S3","21","axb","4","MI","CN","S3-CN","0","1","false"
"null","","fixation","html-keyboard-response","141","487846","0.0-8.0-0.56","5fd91e63fc4cd73b6f597a52","condC","","<div class=""vertical-center"" style='width:60%;'><img src=""resources/images/CN_flag_100x52.jpg"" style=""width:100px;height:52px;opacity:0.35;""> <br> <br> <p style='font-weight:bold;'>Does the middle word sound more like the first word (A) or the last word (B)?</p> <br> <div class=""container""> <div id=""a-box""> <p class=""title-text"">A</h3></p> </div> <div id=""x-box""> <p class=""title-text"">X<p> </div> <div id=""b-box""> <p class=""title-text"">B</p></div> <br> <div style='float: left;padding-left:30px;'><p>Press '1' for A</p></div><div style='float: right;padding-right:30px;'><p>Press '0' for B</p> </div> </div></div>","null","","","","","","","","","","","","","","","",""
"3283","","test","audio-keyboard-response","142","491130","0.0-8.0-1.56","5fd91e63fc4cd73b6f597a52","condC","","resources/audio/wordStim/S3_AU_20_bxa_Step-3.wav","49","","","","","","resources/audio/wordStim/S3_AU_20_bxa_Step-3.wav","S3","20","bxa","3","MI","CN","S3-CN","1","1","true"
"null","","fixation","html-keyboard-response","143","492133","0.0-8.0-0.57","5fd91e63fc4cd73b6f597a52","condC","","<div class=""vertical-center"" style='width:60%;'><img src=""resources/images/CN_flag_100x52.jpg"" style=""width:100px;height:52px;opacity:0.35;""> <br> <br> <p style='font-weight:bold;'>Does the middle word sound more like the first word (A) or the last word (B)?</p> <br> <div class=""container""> <div id=""a-box""> <p class=""title-text"">A</h3></p> </div> <div id=""x-box""> <p class=""title-text"">X<p> </div> <div id=""b-box""> <p class=""title-text"">B</p></div> <br> <div style='float: left;padding-left:30px;'><p>Press '1' for A</p></div><div style='float: right;padding-right:30px;'><p>Press '0' for B</p> </div> </div></div>","null","","","","","","","","","","","","","","","",""
"3657","","test","audio-keyboard-response","144","495791","0.0-8.0-1.57","5fd91e63fc4cd73b6f597a52","condC","","resources/audio/wordStim/S3_AU_18_bxa_Step-6.wav","49","","","","","","resources/audio/wordStim/S3_AU_18_bxa_Step-6.wav","S3","18","bxa","6","MI","CN","S3-CN","1","1","true"
"null","","fixation","html-keyboard-response","145","496794","0.0-8.0-0.58","5fd91e63fc4cd73b6f597a52","condC","","<div class=""vertical-center"" style='width:60%;'><img src=""resources/images/CN_flag_100x52.jpg"" style=""width:100px;height:52px;opacity:0.35;""> <br> <br> <p style='font-weight:bold;'>Does the middle word sound more like the first word (A) or the last word (B)?</p> <br> <div class=""container""> <div id=""a-box""> <p class=""title-text"">A</h3></p> </div> <div id=""x-box""> <p class=""title-text"">X<p> </div> <div id=""b-box""> <p class=""title-text"">B</p></div> <br> <div style='float: left;padding-left:30px;'><p>Press '1' for A</p></div><div style='float: right;padding-right:30px;'><p>Press '0' for B</p> </div> </div></div>","null","","","","","","","","","","","","","","","",""
"4098","","test","audio-keyboard-response","146","500894","0.0-8.0-1.58","5fd91e63fc4cd73b6f597a52","condC","","resources/audio/wordStim/S3_AI_21_axb_Step-7.wav","49","","","","","","resources/audio/wordStim/S3_AI_21_axb_Step-7.wav","S3","21","axb","7","MI","CN","S3-CN","0","1","false"
"null","","fixation","html-keyboard-response","147","501897","0.0-8.0-0.59","5fd91e63fc4cd73b6f597a52","condC","","<div class=""vertical-center"" style='width:60%;'><img src=""resources/images/CN_flag_100x52.jpg"" style=""width:100px;height:52px;opacity:0.35;""> <br> <br> <p style='font-weight:bold;'>Does the middle word sound more like the first word (A) or the last word (B)?</p> <br> <div class=""container""> <div id=""a-box""> <p class=""title-text"">A</h3></p> </div> <div id=""x-box""> <p class=""title-text"">X<p> </div> <div id=""b-box""> <p class=""title-text"">B</p></div> <br> <div style='float: left;padding-left:30px;'><p>Press '1' for A</p></div><div style='float: right;padding-right:30px;'><p>Press '0' for B</p> </div> </div></div>","null","","","","","","","","","","","","","","","",""
"3477","","test","audio-keyboard-response","148","505376","0.0-8.0-1.59","5fd91e63fc4cd73b6f597a52","condC","","resources/audio/wordStim/S3_AI_30_bxa_Step-4.wav","49","","","","","","resources/audio/wordStim/S3_AI_30_bxa_Step-4.wav","S3","30","bxa","4","MI","CN","S3-CN","1","1","true"
"null","","fixation","html-keyboard-response","149","506379","0.0-8.0-0.60","5fd91e63fc4cd73b6f597a52","condC","","<div class=""vertical-center"" style='width:60%;'><img src=""resources/images/CN_flag_100x52.jpg"" style=""width:100px;height:52px;opacity:0.35;""> <br> <br> <p style='font-weight:bold;'>Does the middle word sound more like the first word (A) or the last word (B)?</p> <br> <div class=""container""> <div id=""a-box""> <p class=""title-text"">A</h3></p> </div> <div id=""x-box""> <p class=""title-text"">X<p> </div> <div id=""b-box""> <p class=""title-text"">B</p></div> <br> <div style='float: left;padding-left:30px;'><p>Press '1' for A</p></div><div style='float: right;padding-right:30px;'><p>Press '0' for B</p> </div> </div></div>","null","","","","","","","","","","","","","","","",""
"3207","","test","audio-keyboard-response","150","509588","0.0-8.0-1.60","5fd91e63fc4cd73b6f597a52","condC","","resources/audio/wordStim/S3_AI_22_bxa_Step-3.wav","49","","","","","","resources/audio/wordStim/S3_AI_22_bxa_Step-3.wav","S3","22","bxa","3","MI","CN","S3-CN","1","1","true"
"null","","fixation","html-keyboard-response","151","510590","0.0-8.0-0.61","5fd91e63fc4cd73b6f597a52","condC","","<div class=""vertical-center"" style='width:60%;'><img src=""resources/images/CN_flag_100x52.jpg"" style=""width:100px;height:52px;opacity:0.35;""> <br> <br> <p style='font-weight:bold;'>Does the middle word sound more like the first word (A) or the last word (B)?</p> <br> <div class=""container""> <div id=""a-box""> <p class=""title-text"">A</h3></p> </div> <div id=""x-box""> <p class=""title-text"">X<p> </div> <div id=""b-box""> <p class=""title-text"">B</p></div> <br> <div style='float: left;padding-left:30px;'><p>Press '1' for A</p></div><div style='float: right;padding-right:30px;'><p>Press '0' for B</p> </div> </div></div>","null","","","","","","","","","","","","","","","",""
"3225","","test","audio-keyboard-response","152","513816","0.0-8.0-1.61","5fd91e63fc4cd73b6f597a52","condC","","resources/audio/wordStim/S3_AI_22_axb_Step-3.wav","49","","","","","","resources/audio/wordStim/S3_AI_22_axb_Step-3.wav","S3","22","axb","3","MI","CN","S3-CN","0","1","false"
"null","","fixation","html-keyboard-response","153","514819","0.0-8.0-0.62","5fd91e63fc4cd73b6f597a52","condC","","<div class=""vertical-center"" style='width:60%;'><img src=""resources/images/CN_flag_100x52.jpg"" style=""width:100px;height:52px;opacity:0.35;""> <br> <br> <p style='font-weight:bold;'>Does the middle word sound more like the first word (A) or the last word (B)?</p> <br> <div class=""container""> <div id=""a-box""> <p class=""title-text"">A</h3></p> </div> <div id=""x-box""> <p class=""title-text"">X<p> </div> <div id=""b-box""> <p class=""title-text"">B</p></div> <br> <div style='float: left;padding-left:30px;'><p>Press '1' for A</p></div><div style='float: right;padding-right:30px;'><p>Press '0' for B</p> </div> </div></div>","null","","","","","","","","","","","","","","","",""
"2598","","test","audio-keyboard-response","154","517419","0.0-8.0-1.62","5fd91e63fc4cd73b6f597a52","condC","","resources/audio/wordStim/S3_AI_21_bxa_Step-2.wav","49","","","","","","resources/audio/wordStim/S3_AI_21_bxa_Step-2.wav","S3","21","bxa","2","MI","CN","S3-CN","1","1","true"
"3483.999999999942","","break","html-keyboard-response","155","521405","0.0-8.0-2.62-0.62","5fd91e63fc4cd73b6f597a52","condC","","<div class=""vertical-center""><p>Feel free to take a break!</p><i>When you're ready to continue, press SPACE to begin the next trial.</i></p></div>","32","","","","","","","","","","","","","","","",""
"null","","fixation","html-keyboard-response","156","521907","0.0-8.0-0.63","5fd91e63fc4cd73b6f597a52","condC","","<div class=""vertical-center"" style='width:60%;'><img src=""resources/images/CN_flag_100x52.jpg"" style=""width:100px;height:52px;opacity:0.35;""> <br> <br> <p style='font-weight:bold;'>Does the middle word sound more like the first word (A) or the last word (B)?</p> <br> <div class=""container""> <div id=""a-box""> <p class=""title-text"">A</h3></p> </div> <div id=""x-box""> <p class=""title-text"">X<p> </div> <div id=""b-box""> <p class=""title-text"">B</p></div> <br> <div style='float: left;padding-left:30px;'><p>Press '1' for A</p></div><div style='float: right;padding-right:30px;'><p>Press '0' for B</p> </div> </div></div>","null","","","","","","","","","","","","","","","",""
"4502","","test","audio-keyboard-response","157","526409","0.0-8.0-1.63","5fd91e63fc4cd73b6f597a52","condC","","resources/audio/wordStim/S3_AI_22_axb_Step-7.wav","48","","","","","","resources/audio/wordStim/S3_AI_22_axb_Step-7.wav","S3","22","axb","7","MI","CN","S3-CN","0","0","true"
"null","","fixation","html-keyboard-response","158","527412","0.0-8.0-0.64","5fd91e63fc4cd73b6f597a52","condC","","<div class=""vertical-center"" style='width:60%;'><img src=""resources/images/CN_flag_100x52.jpg"" style=""width:100px;height:52px;opacity:0.35;""> <br> <br> <p style='font-weight:bold;'>Does the middle word sound more like the first word (A) or the last word (B)?</p> <br> <div class=""container""> <div id=""a-box""> <p class=""title-text"">A</h3></p> </div> <div id=""x-box""> <p class=""title-text"">X<p> </div> <div id=""b-box""> <p class=""title-text"">B</p></div> <br> <div style='float: left;padding-left:30px;'><p>Press '1' for A</p></div><div style='float: right;padding-right:30px;'><p>Press '0' for B</p> </div> </div></div>","null","","","","","","","","","","","","","","","",""
"3289","","test","audio-keyboard-response","159","530703","0.0-8.0-1.64","5fd91e63fc4cd73b6f597a52","condC","","resources/audio/wordStim/S3_AI_22_axb_Step-2.wav","49","","","","","","resources/audio/wordStim/S3_AI_22_axb_Step-2.wav","S3","22","axb","2","MI","CN","S3-CN","0","1","false"
"null","","fixation","html-keyboard-response","160","531706","0.0-8.0-0.65","5fd91e63fc4cd73b6f597a52","condC","","<div class=""vertical-center"" style='width:60%;'><img src=""resources/images/CN_flag_100x52.jpg"" style=""width:100px;height:52px;opacity:0.35;""> <br> <br> <p style='font-weight:bold;'>Does the middle word sound more like the first word (A) or the last word (B)?</p> <br> <div class=""container""> <div id=""a-box""> <p class=""title-text"">A</h3></p> </div> <div id=""x-box""> <p class=""title-text"">X<p> </div> <div id=""b-box""> <p class=""title-text"">B</p></div> <br> <div style='float: left;padding-left:30px;'><p>Press '1' for A</p></div><div style='float: right;padding-right:30px;'><p>Press '0' for B</p> </div> </div></div>","null","","","","","","","","","","","","","","","",""
"3805","","test","audio-keyboard-response","161","535512","0.0-8.0-1.65","5fd91e63fc4cd73b6f597a52","condC","","resources/audio/wordStim/S3_AU_18_bxa_Step-8.wav","49","","","","","","resources/audio/wordStim/S3_AU_18_bxa_Step-8.wav","S3","18","bxa","8","MI","CN","S3-CN","1","1","true"
"null","","fixation","html-keyboard-response","162","536513","0.0-8.0-0.66","5fd91e63fc4cd73b6f597a52","condC","","<div class=""vertical-center"" style='width:60%;'><img src=""resources/images/CN_flag_100x52.jpg"" style=""width:100px;height:52px;opacity:0.35;""> <br> <br> <p style='font-weight:bold;'>Does the middle word sound more like the first word (A) or the last word (B)?</p> <br> <div class=""container""> <div id=""a-box""> <p class=""title-text"">A</h3></p> </div> <div id=""x-box""> <p class=""title-text"">X<p> </div> <div id=""b-box""> <p class=""title-text"">B</p></div> <br> <div style='float: left;padding-left:30px;'><p>Press '1' for A</p></div><div style='float: right;padding-right:30px;'><p>Press '0' for B</p> </div> </div></div>","null","","","","","","","","","","","","","","","",""
"3648","","test","audio-keyboard-response","163","540163","0.0-8.0-1.66","5fd91e63fc4cd73b6f597a52","condC","","resources/audio/wordStim/S3_AU_18_axb_Step-3.wav","49","","","","","","resources/audio/wordStim/S3_AU_18_axb_Step-3.wav","S3","18","axb","3","MI","CN","S3-CN","0","1","false"
"null","","fixation","html-keyboard-response","164","541164","0.0-8.0-0.67","5fd91e63fc4cd73b6f597a52","condC","","<div class=""vertical-center"" style='width:60%;'><img src=""resources/images/CN_flag_100x52.jpg"" style=""width:100px;height:52px;opacity:0.35;""> <br> <br> <p style='font-weight:bold;'>Does the middle word sound more like the first word (A) or the last word (B)?</p> <br> <div class=""container""> <div id=""a-box""> <p class=""title-text"">A</h3></p> </div> <div id=""x-box""> <p class=""title-text"">X<p> </div> <div id=""b-box""> <p class=""title-text"">B</p></div> <br> <div style='float: left;padding-left:30px;'><p>Press '1' for A</p></div><div style='float: right;padding-right:30px;'><p>Press '0' for B</p> </div> </div></div>","null","","","","","","","","","","","","","","","",""
"3762","","test","audio-keyboard-response","165","544926","0.0-8.0-1.67","5fd91e63fc4cd73b6f597a52","condC","","resources/audio/wordStim/S3_AU_18_axb_Step-4.wav","49","","","","","","resources/audio/wordStim/S3_AU_18_axb_Step-4.wav","S3","18","axb","4","MI","CN","S3-CN","0","1","false"
"null","","fixation","html-keyboard-response","166","545929","0.0-8.0-0.68","5fd91e63fc4cd73b6f597a52","condC","","<div class=""vertical-center"" style='width:60%;'><img src=""resources/images/CN_flag_100x52.jpg"" style=""width:100px;height:52px;opacity:0.35;""> <br> <br> <p style='font-weight:bold;'>Does the middle word sound more like the first word (A) or the last word (B)?</p> <br> <div class=""container""> <div id=""a-box""> <p class=""title-text"">A</h3></p> </div> <div id=""x-box""> <p class=""title-text"">X<p> </div> <div id=""b-box""> <p class=""title-text"">B</p></div> <br> <div style='float: left;padding-left:30px;'><p>Press '1' for A</p></div><div style='float: right;padding-right:30px;'><p>Press '0' for B</p> </div> </div></div>","null","","","","","","","","","","","","","","","",""
"3741","","test","audio-keyboard-response","167","549672","0.0-8.0-1.68","5fd91e63fc4cd73b6f597a52","condC","","resources/audio/wordStim/S3_AU_18_bxa_Step-7.wav","49","","","","","","resources/audio/wordStim/S3_AU_18_bxa_Step-7.wav","S3","18","bxa","7","MI","CN","S3-CN","1","1","true"
"null","","fixation","html-keyboard-response","168","550674","0.0-8.0-0.69","5fd91e63fc4cd73b6f597a52","condC","","<div class=""vertical-center"" style='width:60%;'><img src=""resources/images/CN_flag_100x52.jpg"" style=""width:100px;height:52px;opacity:0.35;""> <br> <br> <p style='font-weight:bold;'>Does the middle word sound more like the first word (A) or the last word (B)?</p> <br> <div class=""container""> <div id=""a-box""> <p class=""title-text"">A</h3></p> </div> <div id=""x-box""> <p class=""title-text"">X<p> </div> <div id=""b-box""> <p class=""title-text"">B</p></div> <br> <div style='float: left;padding-left:30px;'><p>Press '1' for A</p></div><div style='float: right;padding-right:30px;'><p>Press '0' for B</p> </div> </div></div>","null","","","","","","","","","","","","","","","",""
"3547","","test","audio-keyboard-response","169","554224","0.0-8.0-1.69","5fd91e63fc4cd73b6f597a52","condC","","resources/audio/wordStim/S3_AI_30_bxa_Step-3.wav","49","","","","","","resources/audio/wordStim/S3_AI_30_bxa_Step-3.wav","S3","30","bxa","3","MI","CN","S3-CN","1","1","true"
"null","","fixation","html-keyboard-response","170","555226","0.0-8.0-0.70","5fd91e63fc4cd73b6f597a52","condC","","<div class=""vertical-center"" style='width:60%;'><img src=""resources/images/CN_flag_100x52.jpg"" style=""width:100px;height:52px;opacity:0.35;""> <br> <br> <p style='font-weight:bold;'>Does the middle word sound more like the first word (A) or the last word (B)?</p> <br> <div class=""container""> <div id=""a-box""> <p class=""title-text"">A</h3></p> </div> <div id=""x-box""> <p class=""title-text"">X<p> </div> <div id=""b-box""> <p class=""title-text"">B</p></div> <br> <div style='float: left;padding-left:30px;'><p>Press '1' for A</p></div><div style='float: right;padding-right:30px;'><p>Press '0' for B</p> </div> </div></div>","null","","","","","","","","","","","","","","","",""
"3019","","test","audio-keyboard-response","171","558245","0.0-8.0-1.70","5fd91e63fc4cd73b6f597a52","condC","","resources/audio/wordStim/S3_AU_19_axb_Step-7.wav","48","","","","","","resources/audio/wordStim/S3_AU_19_axb_Step-7.wav","S3","19","axb","7","MI","CN","S3-CN","0","0","true"
"null","","fixation","html-keyboard-response","172","559248","0.0-8.0-0.71","5fd91e63fc4cd73b6f597a52","condC","","<div class=""vertical-center"" style='width:60%;'><img src=""resources/images/CN_flag_100x52.jpg"" style=""width:100px;height:52px;opacity:0.35;""> <br> <br> <p style='font-weight:bold;'>Does the middle word sound more like the first word (A) or the last word (B)?</p> <br> <div class=""container""> <div id=""a-box""> <p class=""title-text"">A</h3></p> </div> <div id=""x-box""> <p class=""title-text"">X<p> </div> <div id=""b-box""> <p class=""title-text"">B</p></div> <br> <div style='float: left;padding-left:30px;'><p>Press '1' for A</p></div><div style='float: right;padding-right:30px;'><p>Press '0' for B</p> </div> </div></div>","null","","","","","","","","","","","","","","","",""
"3103","","test","audio-keyboard-response","173","562351","0.0-8.0-1.71","5fd91e63fc4cd73b6f597a52","condC","","resources/audio/wordStim/S3_AU_20_bxa_Step-5.wav","49","","","","","","resources/audio/wordStim/S3_AU_20_bxa_Step-5.wav","S3","20","bxa","5","MI","CN","S3-CN","1","1","true"
"null","","fixation","html-keyboard-response","174","563355","0.0-8.0-0.72","5fd91e63fc4cd73b6f597a52","condC","","<div class=""vertical-center"" style='width:60%;'><img src=""resources/images/CN_flag_100x52.jpg"" style=""width:100px;height:52px;opacity:0.35;""> <br> <br> <p style='font-weight:bold;'>Does the middle word sound more like the first word (A) or the last word (B)?</p> <br> <div class=""container""> <div id=""a-box""> <p class=""title-text"">A</h3></p> </div> <div id=""x-box""> <p class=""title-text"">X<p> </div> <div id=""b-box""> <p class=""title-text"">B</p></div> <br> <div style='float: left;padding-left:30px;'><p>Press '1' for A</p></div><div style='float: right;padding-right:30px;'><p>Press '0' for B</p> </div> </div></div>","null","","","","","","","","","","","","","","","",""
"2842","","test","audio-keyboard-response","175","566197","0.0-8.0-1.72","5fd91e63fc4cd73b6f597a52","condC","","resources/audio/wordStim/S3_AU_19_bxa_Step-7.wav","49","","","","","","resources/audio/wordStim/S3_AU_19_bxa_Step-7.wav","S3","19","bxa","7","MI","CN","S3-CN","1","1","true"
"null","","fixation","html-keyboard-response","176","567201","0.0-8.0-0.73","5fd91e63fc4cd73b6f597a52","condC","","<div class=""vertical-center"" style='width:60%;'><img src=""resources/images/CN_flag_100x52.jpg"" style=""width:100px;height:52px;opacity:0.35;""> <br> <br> <p style='font-weight:bold;'>Does the middle word sound more like the first word (A) or the last word (B)?</p> <br> <div class=""container""> <div id=""a-box""> <p class=""title-text"">A</h3></p> </div> <div id=""x-box""> <p class=""title-text"">X<p> </div> <div id=""b-box""> <p class=""title-text"">B</p></div> <br> <div style='float: left;padding-left:30px;'><p>Press '1' for A</p></div><div style='float: right;padding-right:30px;'><p>Press '0' for B</p> </div> </div></div>","null","","","","","","","","","","","","","","","",""
"3245","","test","audio-keyboard-response","177","570448","0.0-8.0-1.73","5fd91e63fc4cd73b6f597a52","condC","","resources/audio/wordStim/S3_AU_20_axb_Step-7.wav","49","","","","","","resources/audio/wordStim/S3_AU_20_axb_Step-7.wav","S3","20","axb","7","MI","CN","S3-CN","0","1","false"
"null","","fixation","html-keyboard-response","178","571449","0.0-8.0-0.74","5fd91e63fc4cd73b6f597a52","condC","","<div class=""vertical-center"" style='width:60%;'><img src=""resources/images/CN_flag_100x52.jpg"" style=""width:100px;height:52px;opacity:0.35;""> <br> <br> <p style='font-weight:bold;'>Does the middle word sound more like the first word (A) or the last word (B)?</p> <br> <div class=""container""> <div id=""a-box""> <p class=""title-text"">A</h3></p> </div> <div id=""x-box""> <p class=""title-text"">X<p> </div> <div id=""b-box""> <p class=""title-text"">B</p></div> <br> <div style='float: left;padding-left:30px;'><p>Press '1' for A</p></div><div style='float: right;padding-right:30px;'><p>Press '0' for B</p> </div> </div></div>","null","","","","","","","","","","","","","","","",""
"2691","","test","audio-keyboard-response","179","574141","0.0-8.0-1.74","5fd91e63fc4cd73b6f597a52","condC","","resources/audio/wordStim/S3_AI_21_axb_Step-8.wav","48","","","","","","resources/audio/wordStim/S3_AI_21_axb_Step-8.wav","S3","21","axb","8","MI","CN","S3-CN","0","0","true"
"null","","fixation","html-keyboard-response","180","575143","0.0-8.0-0.75","5fd91e63fc4cd73b6f597a52","condC","","<div class=""vertical-center"" style='width:60%;'><img src=""resources/images/CN_flag_100x52.jpg"" style=""width:100px;height:52px;opacity:0.35;""> <br> <br> <p style='font-weight:bold;'>Does the middle word sound more like the first word (A) or the last word (B)?</p> <br> <div class=""container""> <div id=""a-box""> <p class=""title-text"">A</h3></p> </div> <div id=""x-box""> <p class=""title-text"">X<p> </div> <div id=""b-box""> <p class=""title-text"">B</p></div> <br> <div style='float: left;padding-left:30px;'><p>Press '1' for A</p></div><div style='float: right;padding-right:30px;'><p>Press '0' for B</p> </div> </div></div>","null","","","","","","","","","","","","","","","",""
"3381","","test","audio-keyboard-response","181","578525","0.0-8.0-1.75","5fd91e63fc4cd73b6f597a52","condC","","resources/audio/wordStim/S3_AU_20_bxa_Step-7.wav","49","","","","","","resources/audio/wordStim/S3_AU_20_bxa_Step-7.wav","S3","20","bxa","7","MI","CN","S3-CN","1","1","true"
"null","","fixation","html-keyboard-response","182","579528","0.0-8.0-0.76","5fd91e63fc4cd73b6f597a52","condC","","<div class=""vertical-center"" style='width:60%;'><img src=""resources/images/CN_flag_100x52.jpg"" style=""width:100px;height:52px;opacity:0.35;""> <br> <br> <p style='font-weight:bold;'>Does the middle word sound more like the first word (A) or the last word (B)?</p> <br> <div class=""container""> <div id=""a-box""> <p class=""title-text"">A</h3></p> </div> <div id=""x-box""> <p class=""title-text"">X<p> </div> <div id=""b-box""> <p class=""title-text"">B</p></div> <br> <div style='float: left;padding-left:30px;'><p>Press '1' for A</p></div><div style='float: right;padding-right:30px;'><p>Press '0' for B</p> </div> </div></div>","null","","","","","","","","","","","","","","","",""
"3489","","test","audio-keyboard-response","183","583020","0.0-8.0-1.76","5fd91e63fc4cd73b6f597a52","condC","","resources/audio/wordStim/S3_AU_19_bxa_Step-4.wav","49","","","","","","resources/audio/wordStim/S3_AU_19_bxa_Step-4.wav","S3","19","bxa","4","MI","CN","S3-CN","1","1","true"
"null","","fixation","html-keyboard-response","184","584022","0.0-8.0-0.77","5fd91e63fc4cd73b6f597a52","condC","","<div class=""vertical-center"" style='width:60%;'><img src=""resources/images/CN_flag_100x52.jpg"" style=""width:100px;height:52px;opacity:0.35;""> <br> <br> <p style='font-weight:bold;'>Does the middle word sound more like the first word (A) or the last word (B)?</p> <br> <div class=""container""> <div id=""a-box""> <p class=""title-text"">A</h3></p> </div> <div id=""x-box""> <p class=""title-text"">X<p> </div> <div id=""b-box""> <p class=""title-text"">B</p></div> <br> <div style='float: left;padding-left:30px;'><p>Press '1' for A</p></div><div style='float: right;padding-right:30px;'><p>Press '0' for B</p> </div> </div></div>","null","","","","","","","","","","","","","","","",""
"3393","","test","audio-keyboard-response","185","587417","0.0-8.0-1.77","5fd91e63fc4cd73b6f597a52","condC","","resources/audio/wordStim/S3_AU_20_axb_Step-8.wav","49","","","","","","resources/audio/wordStim/S3_AU_20_axb_Step-8.wav","S3","20","axb","8","MI","CN","S3-CN","0","1","false"
"null","","fixation","html-keyboard-response","186","588419","0.0-8.0-0.78","5fd91e63fc4cd73b6f597a52","condC","","<div class=""vertical-center"" style='width:60%;'><img src=""resources/images/CN_flag_100x52.jpg"" style=""width:100px;height:52px;opacity:0.35;""> <br> <br> <p style='font-weight:bold;'>Does the middle word sound more like the first word (A) or the last word (B)?</p> <br> <div class=""container""> <div id=""a-box""> <p class=""title-text"">A</h3></p> </div> <div id=""x-box""> <p class=""title-text"">X<p> </div> <div id=""b-box""> <p class=""title-text"">B</p></div> <br> <div style='float: left;padding-left:30px;'><p>Press '1' for A</p></div><div style='float: right;padding-right:30px;'><p>Press '0' for B</p> </div> </div></div>","null","","","","","","","","","","","","","","","",""
"3547","","test","audio-keyboard-response","187","591967","0.0-8.0-1.78","5fd91e63fc4cd73b6f597a52","condC","","resources/audio/wordStim/S3_AU_18_axb_Step-6.wav","48","","","","","","resources/audio/wordStim/S3_AU_18_axb_Step-6.wav","S3","18","axb","6","MI","CN","S3-CN","0","0","true"
"null","","fixation","html-keyboard-response","188","592970","0.0-8.0-0.79","5fd91e63fc4cd73b6f597a52","condC","","<div class=""vertical-center"" style='width:60%;'><img src=""resources/images/CN_flag_100x52.jpg"" style=""width:100px;height:52px;opacity:0.35;""> <br> <br> <p style='font-weight:bold;'>Does the middle word sound more like the first word (A) or the last word (B)?</p> <br> <div class=""container""> <div id=""a-box""> <p class=""title-text"">A</h3></p> </div> <div id=""x-box""> <p class=""title-text"">X<p> </div> <div id=""b-box""> <p class=""title-text"">B</p></div> <br> <div style='float: left;padding-left:30px;'><p>Press '1' for A</p></div><div style='float: right;padding-right:30px;'><p>Press '0' for B</p> </div> </div></div>","null","","","","","","","","","","","","","","","",""
"3976","","test","audio-keyboard-response","189","596948","0.0-8.0-1.79","5fd91e63fc4cd73b6f597a52","condC","","resources/audio/wordStim/S3_AI_30_bxa_Step-2.wav","49","","","","","","resources/audio/wordStim/S3_AI_30_bxa_Step-2.wav","S3","30","bxa","2","MI","CN","S3-CN","1","1","true"
"null","","fixation","html-keyboard-response","190","597951","0.0-8.0-0.80","5fd91e63fc4cd73b6f597a52","condC","","<div class=""vertical-center"" style='width:60%;'><img src=""resources/images/CN_flag_100x52.jpg"" style=""width:100px;height:52px;opacity:0.35;""> <br> <br> <p style='font-weight:bold;'>Does the middle word sound more like the first word (A) or the last word (B)?</p> <br> <div class=""container""> <div id=""a-box""> <p class=""title-text"">A</h3></p> </div> <div id=""x-box""> <p class=""title-text"">X<p> </div> <div id=""b-box""> <p class=""title-text"">B</p></div> <br> <div style='float: left;padding-left:30px;'><p>Press '1' for A</p></div><div style='float: right;padding-right:30px;'><p>Press '0' for B</p> </div> </div></div>","null","","","","","","","","","","","","","","","",""
"2769","","test","audio-keyboard-response","191","600720","0.0-8.0-1.80","5fd91e63fc4cd73b6f597a52","condC","","resources/audio/wordStim/S3_AU_19_bxa_Step-2.wav","48","","","","","","resources/audio/wordStim/S3_AU_19_bxa_Step-2.wav","S3","19","bxa","2","MI","CN","S3-CN","1","0","false"
"null","","fixation","html-keyboard-response","192","601723","0.0-8.0-0.81","5fd91e63fc4cd73b6f597a52","condC","","<div class=""vertical-center"" style='width:60%;'><img src=""resources/images/CN_flag_100x52.jpg"" style=""width:100px;height:52px;opacity:0.35;""> <br> <br> <p style='font-weight:bold;'>Does the middle word sound more like the first word (A) or the last word (B)?</p> <br> <div class=""container""> <div id=""a-box""> <p class=""title-text"">A</h3></p> </div> <div id=""x-box""> <p class=""title-text"">X<p> </div> <div id=""b-box""> <p class=""title-text"">B</p></div> <br> <div style='float: left;padding-left:30px;'><p>Press '1' for A</p></div><div style='float: right;padding-right:30px;'><p>Press '0' for B</p> </div> </div></div>","null","","","","","","","","","","","","","","","",""
"3277","","test","audio-keyboard-response","193","605001","0.0-8.0-1.81","5fd91e63fc4cd73b6f597a52","condC","","resources/audio/wordStim/S3_AU_20_axb_Step-4.wav","49","","","","","","resources/audio/wordStim/S3_AU_20_axb_Step-4.wav","S3","20","axb","4","MI","CN","S3-CN","0","1","false"
