"rt","url","trial_role","trial_type","trial_index","time_elapsed","internal_node_id","participantId","conditionId","view_history","stimulus","key_press","button_pressed","correct_answer","correct_response","success","vowel","wordStim","speaker","sentNum","order","step","speakerIdentity","speakerGuise","guiseName","raised_answer","key_response","raised_response"
"9075.504999957047","micr.axb.consent.html","consent","external-html","0","9121","0.0-0.0","6024060b7e645502d5ff1f5b","condC","","","","","","","","","","","","","","","","","","",""
"54310.139999957755","","instructions","instructions","1","63433","0.0-1.0","6024060b7e645502d5ff1f5b","condC","[{""page_index"":0,""viewing_time"":26845.12499999255},{""page_index"":1,""viewing_time"":10485.81500002183},{""page_index"":2,""viewing_time"":16978.494999930263}]","","","","","","","","","","","","","","","","","",""
"null","","fixation","html-keyboard-response","2","63934","0.0-2.0-0.0-0.0","6024060b7e645502d5ff1f5b","condC","","<div class=""vertical-center"" style=""font-size:60px;"">+</div>","null","","","","","","","","","","","","","","","",""
"4489.945000037551","","tonetest","audio-button-response","3","68427","0.0-2.0-0.0-1.0","6024060b7e645502d5ff1f5b","condC","","../../src/audio/toneTest_2.wav","","1","1","true","","","","","","","","","","","","",""
"null","","fixation","html-keyboard-response","4","68929","0.0-2.0-0.0-0.1","6024060b7e645502d5ff1f5b","condC","","<div class=""vertical-center"" style=""font-size:60px;"">+</div>","null","","","","","","","","","","","","","","","",""
"4428.355000098236","","tonetest","audio-button-response","5","73358","0.0-2.0-0.0-1.1","6024060b7e645502d5ff1f5b","condC","","../../src/audio/toneTest_4.wav","","1","1","true","","","","","","","","","","","","",""
"null","","fixation","html-keyboard-response","6","73861","0.0-2.0-0.0-0.2","6024060b7e645502d5ff1f5b","condC","","<div class=""vertical-center"" style=""font-size:60px;"">+</div>","null","","","","","","","","","","","","","","","",""
"4416.214999975637","","tonetest","audio-button-response","7","78280","0.0-2.0-0.0-1.2","6024060b7e645502d5ff1f5b","condC","","../../src/audio/toneTest_6.wav","","0","0","true","","","","","","","","","","","","",""
"null","","fixation","html-keyboard-response","8","78782","0.0-2.0-0.0-0.3","6024060b7e645502d5ff1f5b","condC","","<div class=""vertical-center"" style=""font-size:60px;"">+</div>","null","","","","","","","","","","","","","","","",""
"4485.159999923781","","tonetest","audio-button-response","9","83268","0.0-2.0-0.0-1.3","6024060b7e645502d5ff1f5b","condC","","../../src/audio/toneTest_5.wav","","2","0","false","","","","","","","","","","","","",""
"null","","fixation","html-keyboard-response","10","83770","0.0-2.0-0.0-0.4","6024060b7e645502d5ff1f5b","condC","","<div class=""vertical-center"" style=""font-size:60px;"">+</div>","null","","","","","","","","","","","","","","","",""
"4381.135000032373","","tonetest","audio-button-response","11","88152","0.0-2.0-0.0-1.4","6024060b7e645502d5ff1f5b","condC","","../../src/audio/toneTest_3.wav","","2","2","true","","","","","","","","","","","","",""
"null","","fixation","html-keyboard-response","12","88653","0.0-2.0-0.0-0.5","6024060b7e645502d5ff1f5b","condC","","<div class=""vertical-center"" style=""font-size:60px;"">+</div>","null","","","","","","","","","","","","","","","",""
"4437.995000043884","","tonetest","audio-button-response","13","93092","0.0-2.0-0.0-1.5","6024060b7e645502d5ff1f5b","condC","","../../src/audio/toneTest_6.wav","","0","0","true","","","","","","","","","","","","",""
"6212.539999978617","","instructions","html-keyboard-response","14","99306","0.0-2.0-1.0-0.0","6024060b7e645502d5ff1f5b","condC","","<div class=""vertical-center""><p><b>Your score was 5/6.</b></p><p>If you scored below 5, please ensure that you are wearing properly functioning headphones and in a quiet location free of distractions. Then, press SPACE to repeat the audio test. </p><p><i>If you scored 5 or above, press SPACE to continue to the main experiment.</i></p></div>","32","","","","","","","","","","","","","","","",""
"","","","fullscreen","15","102679","0.0-3.0","6024060b7e645502d5ff1f5b","condC","","","","","","","true","","","","","","","","","","","",""
"11037.035000044852","","instructions","instructions","16","113717","0.0-4.0","6024060b7e645502d5ff1f5b","condC","[{""page_index"":0,""viewing_time"":11036.820000037551}]","","","","","","","","","","","","","","","","","",""
"null","","fixation","html-keyboard-response","17","114219","0.0-5.0-0.0","6024060b7e645502d5ff1f5b","condC","","<div class=""vertical-center"" style='width:60%;'><p style='font-weight:bold;'>Does the middle word sound more like the first word (A) or the last word (B)?</p> <br> <div class=""container""> <div id=""a-box""> <p class=""title-text"">A</h3></p> </div> <div id=""x-box""> <p class=""title-text"">X<p> </div> <div id=""b-box""> <p class=""title-text"">B</p></div> <br> <div style='float: left;padding-left:30px;'><p>Press '1' for A</p></div><div style='float: right;padding-right:30px;'><p>Press '0' for B</p> </div> </div></div>","null","","","","","","","","","","","","","","","",""
"11040","","practice","audio-keyboard-response","18","125260","0.0-5.0-1.0","6024060b7e645502d5ff1f5b","condC","","resources/audio/practiceStim/S1_AU_14_axb_Step-6.wav","49","","","","","","","","","","","","","","","",""
"null","","fixation","html-keyboard-response","19","126264","0.0-5.0-0.1","6024060b7e645502d5ff1f5b","condC","","<div class=""vertical-center"" style='width:60%;'><p style='font-weight:bold;'>Does the middle word sound more like the first word (A) or the last word (B)?</p> <br> <div class=""container""> <div id=""a-box""> <p class=""title-text"">A</h3></p> </div> <div id=""x-box""> <p class=""title-text"">X<p> </div> <div id=""b-box""> <p class=""title-text"">B</p></div> <br> <div style='float: left;padding-left:30px;'><p>Press '1' for A</p></div><div style='float: right;padding-right:30px;'><p>Press '0' for B</p> </div> </div></div>","null","","","","","","","","","","","","","","","",""
"5861","","practice","audio-keyboard-response","20","132117","0.0-5.0-1.1","6024060b7e645502d5ff1f5b","condC","","resources/audio/practiceStim/S1_AI_21_axb_Step-6.wav","48","","","","","","","","","","","","","","","",""
"null","","fixation","html-keyboard-response","21","133120","0.0-5.0-0.2","6024060b7e645502d5ff1f5b","condC","","<div class=""vertical-center"" style='width:60%;'><p style='font-weight:bold;'>Does the middle word sound more like the first word (A) or the last word (B)?</p> <br> <div class=""container""> <div id=""a-box""> <p class=""title-text"">A</h3></p> </div> <div id=""x-box""> <p class=""title-text"">X<p> </div> <div id=""b-box""> <p class=""title-text"">B</p></div> <br> <div style='float: left;padding-left:30px;'><p>Press '1' for A</p></div><div style='float: right;padding-right:30px;'><p>Press '0' for B</p> </div> </div></div>","null","","","","","","","","","","","","","","","",""
"3560","","practice","audio-keyboard-response","22","136684","0.0-5.0-1.2","6024060b7e645502d5ff1f5b","condC","","resources/audio/practiceStim/S1_AU_14_bxa_Step-6.wav","49","","","","","","","","","","","","","","","",""
"null","","fixation","html-keyboard-response","23","137687","0.0-5.0-0.3","6024060b7e645502d5ff1f5b","condC","","<div class=""vertical-center"" style='width:60%;'><p style='font-weight:bold;'>Does the middle word sound more like the first word (A) or the last word (B)?</p> <br> <div class=""container""> <div id=""a-box""> <p class=""title-text"">A</h3></p> </div> <div id=""x-box""> <p class=""title-text"">X<p> </div> <div id=""b-box""> <p class=""title-text"">B</p></div> <br> <div style='float: left;padding-left:30px;'><p>Press '1' for A</p></div><div style='float: right;padding-right:30px;'><p>Press '0' for B</p> </div> </div></div>","null","","","","","","","","","","","","","","","",""
"4189","","practice","audio-keyboard-response","24","141876","0.0-5.0-1.3","6024060b7e645502d5ff1f5b","condC","","resources/audio/practiceStim/S1_AI_21_bxa_Step-6.wav","48","","","","","","","","","","","","","","","",""
"4302.1500000031665","","instructions","instructions","25","146680","0.0-6.0","6024060b7e645502d5ff1f5b","condC","[{""page_index"":0,""viewing_time"":4301.969999913126}]","","","","","","","","","","","","","","","","","",""
"2146.2199999950826","","","html-keyboard-response","26","148830","0.0-7.0","6024060b7e645502d5ff1f5b","condC","","<div class=""vertical-center""><img src=""resources/images/CN_face_a.png"" style=""width:450px;height:300px;""><p>This is the speaker you're about to hear. She is from Vancouver, Canada.</p><p> <br> <i>Press SPACE to continue.</i></p></div>","32","","","","","","","","","","","","","","","",""
"null","","fixation","html-keyboard-response","27","149332","0.0-8.0-0.0","6024060b7e645502d5ff1f5b","condC","","<div class=""vertical-center"" style='width:60%;'><img src=""resources/images/CN_flag_100x52.jpg"" style=""width:100px;height:52px;opacity:0.35;""> <br> <br> <p style='font-weight:bold;'>Does the middle word sound more like the first word (A) or the last word (B)?</p> <br> <div class=""container""> <div id=""a-box""> <p class=""title-text"">A</h3></p> </div> <div id=""x-box""> <p class=""title-text"">X<p> </div> <div id=""b-box""> <p class=""title-text"">B</p></div> <br> <div style='float: left;padding-left:30px;'><p>Press '1' for A</p></div><div style='float: right;padding-right:30px;'><p>Press '0' for B</p> </div> </div></div>","null","","","","","","","","","","","","","","","",""
"5339","","test","audio-keyboard-response","28","154667","0.0-8.0-1.0","6024060b7e645502d5ff1f5b","condC","","resources/audio/wordStim/S3_AU_20_bxa_Step-8.wav","49","","","","","","resources/audio/wordStim/S3_AU_20_bxa_Step-8.wav","S3","20","bxa","8","MI","CN","S3-CN","1","1","true"
"null","","fixation","html-keyboard-response","29","155672","0.0-8.0-0.1","6024060b7e645502d5ff1f5b","condC","","<div class=""vertical-center"" style='width:60%;'><img src=""resources/images/CN_flag_100x52.jpg"" style=""width:100px;height:52px;opacity:0.35;""> <br> <br> <p style='font-weight:bold;'>Does the middle word sound more like the first word (A) or the last word (B)?</p> <br> <div class=""container""> <div id=""a-box""> <p class=""title-text"">A</h3></p> </div> <div id=""x-box""> <p class=""title-text"">X<p> </div> <div id=""b-box""> <p class=""title-text"">B</p></div> <br> <div style='float: left;padding-left:30px;'><p>Press '1' for A</p></div><div style='float: right;padding-right:30px;'><p>Press '0' for B</p> </div> </div></div>","null","","","","","","","","","","","","","","","",""
"3800","","test","audio-keyboard-response","30","159469","0.0-8.0-1.1","6024060b7e645502d5ff1f5b","condC","","resources/audio/wordStim/S3_AU_19_axb_Step-7.wav","49","","","","","","resources/audio/wordStim/S3_AU_19_axb_Step-7.wav","S3","19","axb","7","MI","CN","S3-CN","0","1","false"
"null","","fixation","html-keyboard-response","31","160472","0.0-8.0-0.2","6024060b7e645502d5ff1f5b","condC","","<div class=""vertical-center"" style='width:60%;'><img src=""resources/images/CN_flag_100x52.jpg"" style=""width:100px;height:52px;opacity:0.35;""> <br> <br> <p style='font-weight:bold;'>Does the middle word sound more like the first word (A) or the last word (B)?</p> <br> <div class=""container""> <div id=""a-box""> <p class=""title-text"">A</h3></p> </div> <div id=""x-box""> <p class=""title-text"">X<p> </div> <div id=""b-box""> <p class=""title-text"">B</p></div> <br> <div style='float: left;padding-left:30px;'><p>Press '1' for A</p></div><div style='float: right;padding-right:30px;'><p>Press '0' for B</p> </div> </div></div>","null","","","","","","","","","","","","","","","",""
"3309","","test","audio-keyboard-response","32","163781","0.0-8.0-1.2","6024060b7e645502d5ff1f5b","condC","","resources/audio/wordStim/S3_AU_20_bxa_Step-3.wav","48","","","","","","resources/audio/wordStim/S3_AU_20_bxa_Step-3.wav","S3","20","bxa","3","MI","CN","S3-CN","1","0","false"
"null","","fixation","html-keyboard-response","33","164786","0.0-8.0-0.3","6024060b7e645502d5ff1f5b","condC","","<div class=""vertical-center"" style='width:60%;'><img src=""resources/images/CN_flag_100x52.jpg"" style=""width:100px;height:52px;opacity:0.35;""> <br> <br> <p style='font-weight:bold;'>Does the middle word sound more like the first word (A) or the last word (B)?</p> <br> <div class=""container""> <div id=""a-box""> <p class=""title-text"">A</h3></p> </div> <div id=""x-box""> <p class=""title-text"">X<p> </div> <div id=""b-box""> <p class=""title-text"">B</p></div> <br> <div style='float: left;padding-left:30px;'><p>Press '1' for A</p></div><div style='float: right;padding-right:30px;'><p>Press '0' for B</p> </div> </div></div>","null","","","","","","","","","","","","","","","",""
"3400","","test","audio-keyboard-response","34","168193","0.0-8.0-1.3","6024060b7e645502d5ff1f5b","condC","","resources/audio/wordStim/S3_AU_20_bxa_Step-2.wav","48","","","","","","resources/audio/wordStim/S3_AU_20_bxa_Step-2.wav","S3","20","bxa","2","MI","CN","S3-CN","1","0","false"
"null","","fixation","html-keyboard-response","35","169197","0.0-8.0-0.4","6024060b7e645502d5ff1f5b","condC","","<div class=""vertical-center"" style='width:60%;'><img src=""resources/images/CN_flag_100x52.jpg"" style=""width:100px;height:52px;opacity:0.35;""> <br> <br> <p style='font-weight:bold;'>Does the middle word sound more like the first word (A) or the last word (B)?</p> <br> <div class=""container""> <div id=""a-box""> <p class=""title-text"">A</h3></p> </div> <div id=""x-box""> <p class=""title-text"">X<p> </div> <div id=""b-box""> <p class=""title-text"">B</p></div> <br> <div style='float: left;padding-left:30px;'><p>Press '1' for A</p></div><div style='float: right;padding-right:30px;'><p>Press '0' for B</p> </div> </div></div>","null","","","","","","","","","","","","","","","",""
"3739","","test","audio-keyboard-response","36","172942","0.0-8.0-1.4","6024060b7e645502d5ff1f5b","condC","","resources/audio/wordStim/S3_AI_30_axb_Step-4.wav","48","","","","","","resources/audio/wordStim/S3_AI_30_axb_Step-4.wav","S3","30","axb","4","MI","CN","S3-CN","0","0","true"
"null","","fixation","html-keyboard-response","37","173946","0.0-8.0-0.5","6024060b7e645502d5ff1f5b","condC","","<div class=""vertical-center"" style='width:60%;'><img src=""resources/images/CN_flag_100x52.jpg"" style=""width:100px;height:52px;opacity:0.35;""> <br> <br> <p style='font-weight:bold;'>Does the middle word sound more like the first word (A) or the last word (B)?</p> <br> <div class=""container""> <div id=""a-box""> <p class=""title-text"">A</h3></p> </div> <div id=""x-box""> <p class=""title-text"">X<p> </div> <div id=""b-box""> <p class=""title-text"">B</p></div> <br> <div style='float: left;padding-left:30px;'><p>Press '1' for A</p></div><div style='float: right;padding-right:30px;'><p>Press '0' for B</p> </div> </div></div>","null","","","","","","","","","","","","","","","",""
"2771","","test","audio-keyboard-response","38","176717","0.0-8.0-1.5","6024060b7e645502d5ff1f5b","condC","","resources/audio/wordStim/S3_AI_21_axb_Step-7.wav","49","","","","","","resources/audio/wordStim/S3_AI_21_axb_Step-7.wav","S3","21","axb","7","MI","CN","S3-CN","0","1","false"
"null","","fixation","html-keyboard-response","39","177720","0.0-8.0-0.6","6024060b7e645502d5ff1f5b","condC","","<div class=""vertical-center"" style='width:60%;'><img src=""resources/images/CN_flag_100x52.jpg"" style=""width:100px;height:52px;opacity:0.35;""> <br> <br> <p style='font-weight:bold;'>Does the middle word sound more like the first word (A) or the last word (B)?</p> <br> <div class=""container""> <div id=""a-box""> <p class=""title-text"">A</h3></p> </div> <div id=""x-box""> <p class=""title-text"">X<p> </div> <div id=""b-box""> <p class=""title-text"">B</p></div> <br> <div style='float: left;padding-left:30px;'><p>Press '1' for A</p></div><div style='float: right;padding-right:30px;'><p>Press '0' for B</p> </div> </div></div>","null","","","","","","","","","","","","","","","",""
"3109","","test","audio-keyboard-response","40","180830","0.0-8.0-1.6","6024060b7e645502d5ff1f5b","condC","","resources/audio/wordStim/S3_AI_21_bxa_Step-7.wav","49","","","","","","resources/audio/wordStim/S3_AI_21_bxa_Step-7.wav","S3","21","bxa","7","MI","CN","S3-CN","1","1","true"
"null","","fixation","html-keyboard-response","41","181834","0.0-8.0-0.7","6024060b7e645502d5ff1f5b","condC","","<div class=""vertical-center"" style='width:60%;'><img src=""resources/images/CN_flag_100x52.jpg"" style=""width:100px;height:52px;opacity:0.35;""> <br> <br> <p style='font-weight:bold;'>Does the middle word sound more like the first word (A) or the last word (B)?</p> <br> <div class=""container""> <div id=""a-box""> <p class=""title-text"">A</h3></p> </div> <div id=""x-box""> <p class=""title-text"">X<p> </div> <div id=""b-box""> <p class=""title-text"">B</p></div> <br> <div style='float: left;padding-left:30px;'><p>Press '1' for A</p></div><div style='float: right;padding-right:30px;'><p>Press '0' for B</p> </div> </div></div>","null","","","","","","","","","","","","","","","",""
"4389","","test","audio-keyboard-response","42","186221","0.0-8.0-1.7","6024060b7e645502d5ff1f5b","condC","","resources/audio/wordStim/S3_AU_18_axb_Step-8.wav","48","","","","","","resources/audio/wordStim/S3_AU_18_axb_Step-8.wav","S3","18","axb","8","MI","CN","S3-CN","0","0","true"
"null","","fixation","html-keyboard-response","43","187225","0.0-8.0-0.8","6024060b7e645502d5ff1f5b","condC","","<div class=""vertical-center"" style='width:60%;'><img src=""resources/images/CN_flag_100x52.jpg"" style=""width:100px;height:52px;opacity:0.35;""> <br> <br> <p style='font-weight:bold;'>Does the middle word sound more like the first word (A) or the last word (B)?</p> <br> <div class=""container""> <div id=""a-box""> <p class=""title-text"">A</h3></p> </div> <div id=""x-box""> <p class=""title-text"">X<p> </div> <div id=""b-box""> <p class=""title-text"">B</p></div> <br> <div style='float: left;padding-left:30px;'><p>Press '1' for A</p></div><div style='float: right;padding-right:30px;'><p>Press '0' for B</p> </div> </div></div>","null","","","","","","","","","","","","","","","",""
"3531","","test","audio-keyboard-response","44","190759","0.0-8.0-1.8","6024060b7e645502d5ff1f5b","condC","","resources/audio/wordStim/S3_AU_20_axb_Step-5.wav","48","","","","","","resources/audio/wordStim/S3_AU_20_axb_Step-5.wav","S3","20","axb","5","MI","CN","S3-CN","0","0","true"
"null","","fixation","html-keyboard-response","45","191763","0.0-8.0-0.9","6024060b7e645502d5ff1f5b","condC","","<div class=""vertical-center"" style='width:60%;'><img src=""resources/images/CN_flag_100x52.jpg"" style=""width:100px;height:52px;opacity:0.35;""> <br> <br> <p style='font-weight:bold;'>Does the middle word sound more like the first word (A) or the last word (B)?</p> <br> <div class=""container""> <div id=""a-box""> <p class=""title-text"">A</h3></p> </div> <div id=""x-box""> <p class=""title-text"">X<p> </div> <div id=""b-box""> <p class=""title-text"">B</p></div> <br> <div style='float: left;padding-left:30px;'><p>Press '1' for A</p></div><div style='float: right;padding-right:30px;'><p>Press '0' for B</p> </div> </div></div>","null","","","","","","","","","","","","","","","",""
"3920","","test","audio-keyboard-response","46","195676","0.0-8.0-1.9","6024060b7e645502d5ff1f5b","condC","","resources/audio/wordStim/S3_AI_22_axb_Step-2.wav","49","","","","","","resources/audio/wordStim/S3_AI_22_axb_Step-2.wav","S3","22","axb","2","MI","CN","S3-CN","0","1","false"
"null","","fixation","html-keyboard-response","47","196679","0.0-8.0-0.10","6024060b7e645502d5ff1f5b","condC","","<div class=""vertical-center"" style='width:60%;'><img src=""resources/images/CN_flag_100x52.jpg"" style=""width:100px;height:52px;opacity:0.35;""> <br> <br> <p style='font-weight:bold;'>Does the middle word sound more like the first word (A) or the last word (B)?</p> <br> <div class=""container""> <div id=""a-box""> <p class=""title-text"">A</h3></p> </div> <div id=""x-box""> <p class=""title-text"">X<p> </div> <div id=""b-box""> <p class=""title-text"">B</p></div> <br> <div style='float: left;padding-left:30px;'><p>Press '1' for A</p></div><div style='float: right;padding-right:30px;'><p>Press '0' for B</p> </div> </div></div>","null","","","","","","","","","","","","","","","",""
"4051","","test","audio-keyboard-response","48","200735","0.0-8.0-1.10","6024060b7e645502d5ff1f5b","condC","","resources/audio/wordStim/S3_AI_30_bxa_Step-2.wav","49","","","","","","resources/audio/wordStim/S3_AI_30_bxa_Step-2.wav","S3","30","bxa","2","MI","CN","S3-CN","1","1","true"
"null","","fixation","html-keyboard-response","49","201740","0.0-8.0-0.11","6024060b7e645502d5ff1f5b","condC","","<div class=""vertical-center"" style='width:60%;'><img src=""resources/images/CN_flag_100x52.jpg"" style=""width:100px;height:52px;opacity:0.35;""> <br> <br> <p style='font-weight:bold;'>Does the middle word sound more like the first word (A) or the last word (B)?</p> <br> <div class=""container""> <div id=""a-box""> <p class=""title-text"">A</h3></p> </div> <div id=""x-box""> <p class=""title-text"">X<p> </div> <div id=""b-box""> <p class=""title-text"">B</p></div> <br> <div style='float: left;padding-left:30px;'><p>Press '1' for A</p></div><div style='float: right;padding-right:30px;'><p>Press '0' for B</p> </div> </div></div>","null","","","","","","","","","","","","","","","",""
"3392","","test","audio-keyboard-response","50","205128","0.0-8.0-1.11","6024060b7e645502d5ff1f5b","condC","","resources/audio/wordStim/S3_AI_21_axb_Step-5.wav","49","","","","","","resources/audio/wordStim/S3_AI_21_axb_Step-5.wav","S3","21","axb","5","MI","CN","S3-CN","0","1","false"
"null","","fixation","html-keyboard-response","51","206132","0.0-8.0-0.12","6024060b7e645502d5ff1f5b","condC","","<div class=""vertical-center"" style='width:60%;'><img src=""resources/images/CN_flag_100x52.jpg"" style=""width:100px;height:52px;opacity:0.35;""> <br> <br> <p style='font-weight:bold;'>Does the middle word sound more like the first word (A) or the last word (B)?</p> <br> <div class=""container""> <div id=""a-box""> <p class=""title-text"">A</h3></p> </div> <div id=""x-box""> <p class=""title-text"">X<p> </div> <div id=""b-box""> <p class=""title-text"">B</p></div> <br> <div style='float: left;padding-left:30px;'><p>Press '1' for A</p></div><div style='float: right;padding-right:30px;'><p>Press '0' for B</p> </div> </div></div>","null","","","","","","","","","","","","","","","",""
"4059","","test","audio-keyboard-response","52","210194","0.0-8.0-1.12","6024060b7e645502d5ff1f5b","condC","","resources/audio/wordStim/S3_AU_18_bxa_Step-4.wav","49","","","","","","resources/audio/wordStim/S3_AU_18_bxa_Step-4.wav","S3","18","bxa","4","MI","CN","S3-CN","1","1","true"
"null","","fixation","html-keyboard-response","53","211197","0.0-8.0-0.13","6024060b7e645502d5ff1f5b","condC","","<div class=""vertical-center"" style='width:60%;'><img src=""resources/images/CN_flag_100x52.jpg"" style=""width:100px;height:52px;opacity:0.35;""> <br> <br> <p style='font-weight:bold;'>Does the middle word sound more like the first word (A) or the last word (B)?</p> <br> <div class=""container""> <div id=""a-box""> <p class=""title-text"">A</h3></p> </div> <div id=""x-box""> <p class=""title-text"">X<p> </div> <div id=""b-box""> <p class=""title-text"">B</p></div> <br> <div style='float: left;padding-left:30px;'><p>Press '1' for A</p></div><div style='float: right;padding-right:30px;'><p>Press '0' for B</p> </div> </div></div>","null","","","","","","","","","","","","","","","",""
"3229","","test","audio-keyboard-response","54","214428","0.0-8.0-1.13","6024060b7e645502d5ff1f5b","condC","","resources/audio/wordStim/S3_AI_30_axb_Step-2.wav","48","","","","","","resources/audio/wordStim/S3_AI_30_axb_Step-2.wav","S3","30","axb","2","MI","CN","S3-CN","0","0","true"
"null","","fixation","html-keyboard-response","55","215432","0.0-8.0-0.14","6024060b7e645502d5ff1f5b","condC","","<div class=""vertical-center"" style='width:60%;'><img src=""resources/images/CN_flag_100x52.jpg"" style=""width:100px;height:52px;opacity:0.35;""> <br> <br> <p style='font-weight:bold;'>Does the middle word sound more like the first word (A) or the last word (B)?</p> <br> <div class=""container""> <div id=""a-box""> <p class=""title-text"">A</h3></p> </div> <div id=""x-box""> <p class=""title-text"">X<p> </div> <div id=""b-box""> <p class=""title-text"">B</p></div> <br> <div style='float: left;padding-left:30px;'><p>Press '1' for A</p></div><div style='float: right;padding-right:30px;'><p>Press '0' for B</p> </div> </div></div>","null","","","","","","","","","","","","","","","",""
"3021","","test","audio-keyboard-response","56","218455","0.0-8.0-1.14","6024060b7e645502d5ff1f5b","condC","","resources/audio/wordStim/S3_AU_19_axb_Step-3.wav","49","","","","","","resources/audio/wordStim/S3_AU_19_axb_Step-3.wav","S3","19","axb","3","MI","CN","S3-CN","0","1","false"
"null","","fixation","html-keyboard-response","57","219457","0.0-8.0-0.15","6024060b7e645502d5ff1f5b","condC","","<div class=""vertical-center"" style='width:60%;'><img src=""resources/images/CN_flag_100x52.jpg"" style=""width:100px;height:52px;opacity:0.35;""> <br> <br> <p style='font-weight:bold;'>Does the middle word sound more like the first word (A) or the last word (B)?</p> <br> <div class=""container""> <div id=""a-box""> <p class=""title-text"">A</h3></p> </div> <div id=""x-box""> <p class=""title-text"">X<p> </div> <div id=""b-box""> <p class=""title-text"">B</p></div> <br> <div style='float: left;padding-left:30px;'><p>Press '1' for A</p></div><div style='float: right;padding-right:30px;'><p>Press '0' for B</p> </div> </div></div>","null","","","","","","","","","","","","","","","",""
"5072","","test","audio-keyboard-response","58","224527","0.0-8.0-1.15","6024060b7e645502d5ff1f5b","condC","","resources/audio/wordStim/S3_AI_30_axb_Step-7.wav","48","","","","","","resources/audio/wordStim/S3_AI_30_axb_Step-7.wav","S3","30","axb","7","MI","CN","S3-CN","0","0","true"
"null","","fixation","html-keyboard-response","59","225531","0.0-8.0-0.16","6024060b7e645502d5ff1f5b","condC","","<div class=""vertical-center"" style='width:60%;'><img src=""resources/images/CN_flag_100x52.jpg"" style=""width:100px;height:52px;opacity:0.35;""> <br> <br> <p style='font-weight:bold;'>Does the middle word sound more like the first word (A) or the last word (B)?</p> <br> <div class=""container""> <div id=""a-box""> <p class=""title-text"">A</h3></p> </div> <div id=""x-box""> <p class=""title-text"">X<p> </div> <div id=""b-box""> <p class=""title-text"">B</p></div> <br> <div style='float: left;padding-left:30px;'><p>Press '1' for A</p></div><div style='float: right;padding-right:30px;'><p>Press '0' for B</p> </div> </div></div>","null","","","","","","","","","","","","","","","",""
"3739","","test","audio-keyboard-response","60","229267","0.0-8.0-1.16","6024060b7e645502d5ff1f5b","condC","","resources/audio/wordStim/S3_AI_22_bxa_Step-5.wav","48","","","","","","resources/audio/wordStim/S3_AI_22_bxa_Step-5.wav","S3","22","bxa","5","MI","CN","S3-CN","1","0","false"
"null","","fixation","html-keyboard-response","61","230270","0.0-8.0-0.17","6024060b7e645502d5ff1f5b","condC","","<div class=""vertical-center"" style='width:60%;'><img src=""resources/images/CN_flag_100x52.jpg"" style=""width:100px;height:52px;opacity:0.35;""> <br> <br> <p style='font-weight:bold;'>Does the middle word sound more like the first word (A) or the last word (B)?</p> <br> <div class=""container""> <div id=""a-box""> <p class=""title-text"">A</h3></p> </div> <div id=""x-box""> <p class=""title-text"">X<p> </div> <div id=""b-box""> <p class=""title-text"">B</p></div> <br> <div style='float: left;padding-left:30px;'><p>Press '1' for A</p></div><div style='float: right;padding-right:30px;'><p>Press '0' for B</p> </div> </div></div>","null","","","","","","","","","","","","","","","",""
"4091","","test","audio-keyboard-response","62","234358","0.0-8.0-1.17","6024060b7e645502d5ff1f5b","condC","","resources/audio/wordStim/S3_AU_18_axb_Step-6.wav","49","","","","","","resources/audio/wordStim/S3_AU_18_axb_Step-6.wav","S3","18","axb","6","MI","CN","S3-CN","0","1","false"
"null","","fixation","html-keyboard-response","63","235361","0.0-8.0-0.18","6024060b7e645502d5ff1f5b","condC","","<div class=""vertical-center"" style='width:60%;'><img src=""resources/images/CN_flag_100x52.jpg"" style=""width:100px;height:52px;opacity:0.35;""> <br> <br> <p style='font-weight:bold;'>Does the middle word sound more like the first word (A) or the last word (B)?</p> <br> <div class=""container""> <div id=""a-box""> <p class=""title-text"">A</h3></p> </div> <div id=""x-box""> <p class=""title-text"">X<p> </div> <div id=""b-box""> <p class=""title-text"">B</p></div> <br> <div style='float: left;padding-left:30px;'><p>Press '1' for A</p></div><div style='float: right;padding-right:30px;'><p>Press '0' for B</p> </div> </div></div>","null","","","","","","","","","","","","","","","",""
"3851","","test","audio-keyboard-response","64","239212","0.0-8.0-1.18","6024060b7e645502d5ff1f5b","condC","","resources/audio/wordStim/S3_AI_22_axb_Step-6.wav","49","","","","","","resources/audio/wordStim/S3_AI_22_axb_Step-6.wav","S3","22","axb","6","MI","CN","S3-CN","0","1","false"
"null","","fixation","html-keyboard-response","65","240216","0.0-8.0-0.19","6024060b7e645502d5ff1f5b","condC","","<div class=""vertical-center"" style='width:60%;'><img src=""resources/images/CN_flag_100x52.jpg"" style=""width:100px;height:52px;opacity:0.35;""> <br> <br> <p style='font-weight:bold;'>Does the middle word sound more like the first word (A) or the last word (B)?</p> <br> <div class=""container""> <div id=""a-box""> <p class=""title-text"">A</h3></p> </div> <div id=""x-box""> <p class=""title-text"">X<p> </div> <div id=""b-box""> <p class=""title-text"">B</p></div> <br> <div style='float: left;padding-left:30px;'><p>Press '1' for A</p></div><div style='float: right;padding-right:30px;'><p>Press '0' for B</p> </div> </div></div>","null","","","","","","","","","","","","","","","",""
"3840","","test","audio-keyboard-response","66","244057","0.0-8.0-1.19","6024060b7e645502d5ff1f5b","condC","","resources/audio/wordStim/S3_AI_22_bxa_Step-8.wav","49","","","","","","resources/audio/wordStim/S3_AI_22_bxa_Step-8.wav","S3","22","bxa","8","MI","CN","S3-CN","1","1","true"
"null","","fixation","html-keyboard-response","67","245062","0.0-8.0-0.20","6024060b7e645502d5ff1f5b","condC","","<div class=""vertical-center"" style='width:60%;'><img src=""resources/images/CN_flag_100x52.jpg"" style=""width:100px;height:52px;opacity:0.35;""> <br> <br> <p style='font-weight:bold;'>Does the middle word sound more like the first word (A) or the last word (B)?</p> <br> <div class=""container""> <div id=""a-box""> <p class=""title-text"">A</h3></p> </div> <div id=""x-box""> <p class=""title-text"">X<p> </div> <div id=""b-box""> <p class=""title-text"">B</p></div> <br> <div style='float: left;padding-left:30px;'><p>Press '1' for A</p></div><div style='float: right;padding-right:30px;'><p>Press '0' for B</p> </div> </div></div>","null","","","","","","","","","","","","","","","",""
"3792","","test","audio-keyboard-response","68","248848","0.0-8.0-1.20","6024060b7e645502d5ff1f5b","condC","","resources/audio/wordStim/S3_AI_21_bxa_Step-6.wav","49","","","","","","resources/audio/wordStim/S3_AI_21_bxa_Step-6.wav","S3","21","bxa","6","MI","CN","S3-CN","1","1","true"
"5819.359999964945","","break","html-keyboard-response","69","255169","0.0-8.0-2.20-0.20","6024060b7e645502d5ff1f5b","condC","","<div class=""vertical-center""><p>Feel free to take a break!</p><i>When you're ready to continue, press SPACE to begin the next trial.</i></p></div>","32","","","","","","","","","","","","","","","",""
"null","","fixation","html-keyboard-response","70","255671","0.0-8.0-0.21","6024060b7e645502d5ff1f5b","condC","","<div class=""vertical-center"" style='width:60%;'><img src=""resources/images/CN_flag_100x52.jpg"" style=""width:100px;height:52px;opacity:0.35;""> <br> <br> <p style='font-weight:bold;'>Does the middle word sound more like the first word (A) or the last word (B)?</p> <br> <div class=""container""> <div id=""a-box""> <p class=""title-text"">A</h3></p> </div> <div id=""x-box""> <p class=""title-text"">X<p> </div> <div id=""b-box""> <p class=""title-text"">B</p></div> <br> <div style='float: left;padding-left:30px;'><p>Press '1' for A</p></div><div style='float: right;padding-right:30px;'><p>Press '0' for B</p> </div> </div></div>","null","","","","","","","","","","","","","","","",""
"3829","","test","audio-keyboard-response","71","259498","0.0-8.0-1.21","6024060b7e645502d5ff1f5b","condC","","resources/audio/wordStim/S3_AU_18_bxa_Step-7.wav","49","","","","","","resources/audio/wordStim/S3_AU_18_bxa_Step-7.wav","S3","18","bxa","7","MI","CN","S3-CN","1","1","true"
"null","","fixation","html-keyboard-response","72","260503","0.0-8.0-0.22","6024060b7e645502d5ff1f5b","condC","","<div class=""vertical-center"" style='width:60%;'><img src=""resources/images/CN_flag_100x52.jpg"" style=""width:100px;height:52px;opacity:0.35;""> <br> <br> <p style='font-weight:bold;'>Does the middle word sound more like the first word (A) or the last word (B)?</p> <br> <div class=""container""> <div id=""a-box""> <p class=""title-text"">A</h3></p> </div> <div id=""x-box""> <p class=""title-text"">X<p> </div> <div id=""b-box""> <p class=""title-text"">B</p></div> <br> <div style='float: left;padding-left:30px;'><p>Press '1' for A</p></div><div style='float: right;padding-right:30px;'><p>Press '0' for B</p> </div> </div></div>","null","","","","","","","","","","","","","","","",""
"3131","","test","audio-keyboard-response","73","263626","0.0-8.0-1.22","6024060b7e645502d5ff1f5b","condC","","resources/audio/wordStim/S3_AI_30_axb_Step-8.wav","48","","","","","","resources/audio/wordStim/S3_AI_30_axb_Step-8.wav","S3","30","axb","8","MI","CN","S3-CN","0","0","true"
"null","","fixation","html-keyboard-response","74","264631","0.0-8.0-0.23","6024060b7e645502d5ff1f5b","condC","","<div class=""vertical-center"" style='width:60%;'><img src=""resources/images/CN_flag_100x52.jpg"" style=""width:100px;height:52px;opacity:0.35;""> <br> <br> <p style='font-weight:bold;'>Does the middle word sound more like the first word (A) or the last word (B)?</p> <br> <div class=""container""> <div id=""a-box""> <p class=""title-text"">A</h3></p> </div> <div id=""x-box""> <p class=""title-text"">X<p> </div> <div id=""b-box""> <p class=""title-text"">B</p></div> <br> <div style='float: left;padding-left:30px;'><p>Press '1' for A</p></div><div style='float: right;padding-right:30px;'><p>Press '0' for B</p> </div> </div></div>","null","","","","","","","","","","","","","","","",""
"3531","","test","audio-keyboard-response","75","268160","0.0-8.0-1.23","6024060b7e645502d5ff1f5b","condC","","resources/audio/wordStim/S3_AU_20_bxa_Step-6.wav","48","","","","","","resources/audio/wordStim/S3_AU_20_bxa_Step-6.wav","S3","20","bxa","6","MI","CN","S3-CN","1","0","false"
"null","","fixation","html-keyboard-response","76","269163","0.0-8.0-0.24","6024060b7e645502d5ff1f5b","condC","","<div class=""vertical-center"" style='width:60%;'><img src=""resources/images/CN_flag_100x52.jpg"" style=""width:100px;height:52px;opacity:0.35;""> <br> <br> <p style='font-weight:bold;'>Does the middle word sound more like the first word (A) or the last word (B)?</p> <br> <div class=""container""> <div id=""a-box""> <p class=""title-text"">A</h3></p> </div> <div id=""x-box""> <p class=""title-text"">X<p> </div> <div id=""b-box""> <p class=""title-text"">B</p></div> <br> <div style='float: left;padding-left:30px;'><p>Press '1' for A</p></div><div style='float: right;padding-right:30px;'><p>Press '0' for B</p> </div> </div></div>","null","","","","","","","","","","","","","","","",""
"3669","","test","audio-keyboard-response","77","272831","0.0-8.0-1.24","6024060b7e645502d5ff1f5b","condC","","resources/audio/wordStim/S3_AU_19_bxa_Step-7.wav","48","","","","","","resources/audio/wordStim/S3_AU_19_bxa_Step-7.wav","S3","19","bxa","7","MI","CN","S3-CN","1","0","false"
"null","","fixation","html-keyboard-response","78","273835","0.0-8.0-0.25","6024060b7e645502d5ff1f5b","condC","","<div class=""vertical-center"" style='width:60%;'><img src=""resources/images/CN_flag_100x52.jpg"" style=""width:100px;height:52px;opacity:0.35;""> <br> <br> <p style='font-weight:bold;'>Does the middle word sound more like the first word (A) or the last word (B)?</p> <br> <div class=""container""> <div id=""a-box""> <p class=""title-text"">A</h3></p> </div> <div id=""x-box""> <p class=""title-text"">X<p> </div> <div id=""b-box""> <p class=""title-text"">B</p></div> <br> <div style='float: left;padding-left:30px;'><p>Press '1' for A</p></div><div style='float: right;padding-right:30px;'><p>Press '0' for B</p> </div> </div></div>","null","","","","","","","","","","","","","","","",""
"3051","","test","audio-keyboard-response","79","276893","0.0-8.0-1.25","6024060b7e645502d5ff1f5b","condC","","resources/audio/wordStim/S3_AI_21_axb_Step-6.wav","48","","","","","","resources/audio/wordStim/S3_AI_21_axb_Step-6.wav","S3","21","axb","6","MI","CN","S3-CN","0","0","true"
"null","","fixation","html-keyboard-response","80","277896","0.0-8.0-0.26","6024060b7e645502d5ff1f5b","condC","","<div class=""vertical-center"" style='width:60%;'><img src=""resources/images/CN_flag_100x52.jpg"" style=""width:100px;height:52px;opacity:0.35;""> <br> <br> <p style='font-weight:bold;'>Does the middle word sound more like the first word (A) or the last word (B)?</p> <br> <div class=""container""> <div id=""a-box""> <p class=""title-text"">A</h3></p> </div> <div id=""x-box""> <p class=""title-text"">X<p> </div> <div id=""b-box""> <p class=""title-text"">B</p></div> <br> <div style='float: left;padding-left:30px;'><p>Press '1' for A</p></div><div style='float: right;padding-right:30px;'><p>Press '0' for B</p> </div> </div></div>","null","","","","","","","","","","","","","","","",""
"2691","","test","audio-keyboard-response","81","280594","0.0-8.0-1.26","6024060b7e645502d5ff1f5b","condC","","resources/audio/wordStim/S3_AI_21_bxa_Step-8.wav","49","","","","","","resources/audio/wordStim/S3_AI_21_bxa_Step-8.wav","S3","21","bxa","8","MI","CN","S3-CN","1","1","true"
"null","","fixation","html-keyboard-response","82","281596","0.0-8.0-0.27","6024060b7e645502d5ff1f5b","condC","","<div class=""vertical-center"" style='width:60%;'><img src=""resources/images/CN_flag_100x52.jpg"" style=""width:100px;height:52px;opacity:0.35;""> <br> <br> <p style='font-weight:bold;'>Does the middle word sound more like the first word (A) or the last word (B)?</p> <br> <div class=""container""> <div id=""a-box""> <p class=""title-text"">A</h3></p> </div> <div id=""x-box""> <p class=""title-text"">X<p> </div> <div id=""b-box""> <p class=""title-text"">B</p></div> <br> <div style='float: left;padding-left:30px;'><p>Press '1' for A</p></div><div style='float: right;padding-right:30px;'><p>Press '0' for B</p> </div> </div></div>","null","","","","","","","","","","","","","","","",""
"3200","","test","audio-keyboard-response","83","284798","0.0-8.0-1.27","6024060b7e645502d5ff1f5b","condC","","resources/audio/wordStim/S3_AU_20_axb_Step-2.wav","48","","","","","","resources/audio/wordStim/S3_AU_20_axb_Step-2.wav","S3","20","axb","2","MI","CN","S3-CN","0","0","true"
"null","","fixation","html-keyboard-response","84","285801","0.0-8.0-0.28","6024060b7e645502d5ff1f5b","condC","","<div class=""vertical-center"" style='width:60%;'><img src=""resources/images/CN_flag_100x52.jpg"" style=""width:100px;height:52px;opacity:0.35;""> <br> <br> <p style='font-weight:bold;'>Does the middle word sound more like the first word (A) or the last word (B)?</p> <br> <div class=""container""> <div id=""a-box""> <p class=""title-text"">A</h3></p> </div> <div id=""x-box""> <p class=""title-text"">X<p> </div> <div id=""b-box""> <p class=""title-text"">B</p></div> <br> <div style='float: left;padding-left:30px;'><p>Press '1' for A</p></div><div style='float: right;padding-right:30px;'><p>Press '0' for B</p> </div> </div></div>","null","","","","","","","","","","","","","","","",""
"4109","","test","audio-keyboard-response","85","289912","0.0-8.0-1.28","6024060b7e645502d5ff1f5b","condC","","resources/audio/wordStim/S3_AI_22_axb_Step-7.wav","48","","","","","","resources/audio/wordStim/S3_AI_22_axb_Step-7.wav","S3","22","axb","7","MI","CN","S3-CN","0","0","true"
"null","","fixation","html-keyboard-response","86","290916","0.0-8.0-0.29","6024060b7e645502d5ff1f5b","condC","","<div class=""vertical-center"" style='width:60%;'><img src=""resources/images/CN_flag_100x52.jpg"" style=""width:100px;height:52px;opacity:0.35;""> <br> <br> <p style='font-weight:bold;'>Does the middle word sound more like the first word (A) or the last word (B)?</p> <br> <div class=""container""> <div id=""a-box""> <p class=""title-text"">A</h3></p> </div> <div id=""x-box""> <p class=""title-text"">X<p> </div> <div id=""b-box""> <p class=""title-text"">B</p></div> <br> <div style='float: left;padding-left:30px;'><p>Press '1' for A</p></div><div style='float: right;padding-right:30px;'><p>Press '0' for B</p> </div> </div></div>","null","","","","","","","","","","","","","","","",""
"3659","","test","audio-keyboard-response","87","294578","0.0-8.0-1.29","6024060b7e645502d5ff1f5b","condC","","resources/audio/wordStim/S3_AI_30_bxa_Step-3.wav","49","","","","","","resources/audio/wordStim/S3_AI_30_bxa_Step-3.wav","S3","30","bxa","3","MI","CN","S3-CN","1","1","true"
"null","","fixation","html-keyboard-response","88","295581","0.0-8.0-0.30","6024060b7e645502d5ff1f5b","condC","","<div class=""vertical-center"" style='width:60%;'><img src=""resources/images/CN_flag_100x52.jpg"" style=""width:100px;height:52px;opacity:0.35;""> <br> <br> <p style='font-weight:bold;'>Does the middle word sound more like the first word (A) or the last word (B)?</p> <br> <div class=""container""> <div id=""a-box""> <p class=""title-text"">A</h3></p> </div> <div id=""x-box""> <p class=""title-text"">X<p> </div> <div id=""b-box""> <p class=""title-text"">B</p></div> <br> <div style='float: left;padding-left:30px;'><p>Press '1' for A</p></div><div style='float: right;padding-right:30px;'><p>Press '0' for B</p> </div> </div></div>","null","","","","","","","","","","","","","","","",""
"4171","","test","audio-keyboard-response","89","299754","0.0-8.0-1.30","6024060b7e645502d5ff1f5b","condC","","resources/audio/wordStim/S3_AI_30_bxa_Step-7.wav","49","","","","","","resources/audio/wordStim/S3_AI_30_bxa_Step-7.wav","S3","30","bxa","7","MI","CN","S3-CN","1","1","true"
"null","","fixation","html-keyboard-response","90","300758","0.0-8.0-0.31","6024060b7e645502d5ff1f5b","condC","","<div class=""vertical-center"" style='width:60%;'><img src=""resources/images/CN_flag_100x52.jpg"" style=""width:100px;height:52px;opacity:0.35;""> <br> <br> <p style='font-weight:bold;'>Does the middle word sound more like the first word (A) or the last word (B)?</p> <br> <div class=""container""> <div id=""a-box""> <p class=""title-text"">A</h3></p> </div> <div id=""x-box""> <p class=""title-text"">X<p> </div> <div id=""b-box""> <p class=""title-text"">B</p></div> <br> <div style='float: left;padding-left:30px;'><p>Press '1' for A</p></div><div style='float: right;padding-right:30px;'><p>Press '0' for B</p> </div> </div></div>","null","","","","","","","","","","","","","","","",""
"3771","","test","audio-keyboard-response","91","304530","0.0-8.0-1.31","6024060b7e645502d5ff1f5b","condC","","resources/audio/wordStim/S3_AU_18_bxa_Step-8.wav","48","","","","","","resources/audio/wordStim/S3_AU_18_bxa_Step-8.wav","S3","18","bxa","8","MI","CN","S3-CN","1","0","false"
"null","","fixation","html-keyboard-response","92","305534","0.0-8.0-0.32","6024060b7e645502d5ff1f5b","condC","","<div class=""vertical-center"" style='width:60%;'><img src=""resources/images/CN_flag_100x52.jpg"" style=""width:100px;height:52px;opacity:0.35;""> <br> <br> <p style='font-weight:bold;'>Does the middle word sound more like the first word (A) or the last word (B)?</p> <br> <div class=""container""> <div id=""a-box""> <p class=""title-text"">A</h3></p> </div> <div id=""x-box""> <p class=""title-text"">X<p> </div> <div id=""b-box""> <p class=""title-text"">B</p></div> <br> <div style='float: left;padding-left:30px;'><p>Press '1' for A</p></div><div style='float: right;padding-right:30px;'><p>Press '0' for B</p> </div> </div></div>","null","","","","","","","","","","","","","","","",""
"2992","","test","audio-keyboard-response","93","308527","0.0-8.0-1.32","6024060b7e645502d5ff1f5b","condC","","resources/audio/wordStim/S3_AI_21_bxa_Step-4.wav","48","","","","","","resources/audio/wordStim/S3_AI_21_bxa_Step-4.wav","S3","21","bxa","4","MI","CN","S3-CN","1","0","false"
"null","","fixation","html-keyboard-response","94","309531","0.0-8.0-0.33","6024060b7e645502d5ff1f5b","condC","","<div class=""vertical-center"" style='width:60%;'><img src=""resources/images/CN_flag_100x52.jpg"" style=""width:100px;height:52px;opacity:0.35;""> <br> <br> <p style='font-weight:bold;'>Does the middle word sound more like the first word (A) or the last word (B)?</p> <br> <div class=""container""> <div id=""a-box""> <p class=""title-text"">A</h3></p> </div> <div id=""x-box""> <p class=""title-text"">X<p> </div> <div id=""b-box""> <p class=""title-text"">B</p></div> <br> <div style='float: left;padding-left:30px;'><p>Press '1' for A</p></div><div style='float: right;padding-right:30px;'><p>Press '0' for B</p> </div> </div></div>","null","","","","","","","","","","","","","","","",""
"3579","","test","audio-keyboard-response","95","313113","0.0-8.0-1.33","6024060b7e645502d5ff1f5b","condC","","resources/audio/wordStim/S3_AU_20_axb_Step-4.wav","48","","","","","","resources/audio/wordStim/S3_AU_20_axb_Step-4.wav","S3","20","axb","4","MI","CN","S3-CN","0","0","true"
"null","","fixation","html-keyboard-response","96","314118","0.0-8.0-0.34","6024060b7e645502d5ff1f5b","condC","","<div class=""vertical-center"" style='width:60%;'><img src=""resources/images/CN_flag_100x52.jpg"" style=""width:100px;height:52px;opacity:0.35;""> <br> <br> <p style='font-weight:bold;'>Does the middle word sound more like the first word (A) or the last word (B)?</p> <br> <div class=""container""> <div id=""a-box""> <p class=""title-text"">A</h3></p> </div> <div id=""x-box""> <p class=""title-text"">X<p> </div> <div id=""b-box""> <p class=""title-text"">B</p></div> <br> <div style='float: left;padding-left:30px;'><p>Press '1' for A</p></div><div style='float: right;padding-right:30px;'><p>Press '0' for B</p> </div> </div></div>","null","","","","","","","","","","","","","","","",""
"4291","","test","audio-keyboard-response","97","318411","0.0-8.0-1.34","6024060b7e645502d5ff1f5b","condC","","resources/audio/wordStim/S3_AI_30_bxa_Step-5.wav","49","","","","","","resources/audio/wordStim/S3_AI_30_bxa_Step-5.wav","S3","30","bxa","5","MI","CN","S3-CN","1","1","true"
"null","","fixation","html-keyboard-response","98","319414","0.0-8.0-0.35","6024060b7e645502d5ff1f5b","condC","","<div class=""vertical-center"" style='width:60%;'><img src=""resources/images/CN_flag_100x52.jpg"" style=""width:100px;height:52px;opacity:0.35;""> <br> <br> <p style='font-weight:bold;'>Does the middle word sound more like the first word (A) or the last word (B)?</p> <br> <div class=""container""> <div id=""a-box""> <p class=""title-text"">A</h3></p> </div> <div id=""x-box""> <p class=""title-text"">X<p> </div> <div id=""b-box""> <p class=""title-text"">B</p></div> <br> <div style='float: left;padding-left:30px;'><p>Press '1' for A</p></div><div style='float: right;padding-right:30px;'><p>Press '0' for B</p> </div> </div></div>","null","","","","","","","","","","","","","","","",""
"3440","","test","audio-keyboard-response","99","322864","0.0-8.0-1.35","6024060b7e645502d5ff1f5b","condC","","resources/audio/wordStim/S3_AI_21_axb_Step-8.wav","49","","","","","","resources/audio/wordStim/S3_AI_21_axb_Step-8.wav","S3","21","axb","8","MI","CN","S3-CN","0","1","false"
"null","","fixation","html-keyboard-response","100","323867","0.0-8.0-0.36","6024060b7e645502d5ff1f5b","condC","","<div class=""vertical-center"" style='width:60%;'><img src=""resources/images/CN_flag_100x52.jpg"" style=""width:100px;height:52px;opacity:0.35;""> <br> <br> <p style='font-weight:bold;'>Does the middle word sound more like the first word (A) or the last word (B)?</p> <br> <div class=""container""> <div id=""a-box""> <p class=""title-text"">A</h3></p> </div> <div id=""x-box""> <p class=""title-text"">X<p> </div> <div id=""b-box""> <p class=""title-text"">B</p></div> <br> <div style='float: left;padding-left:30px;'><p>Press '1' for A</p></div><div style='float: right;padding-right:30px;'><p>Press '0' for B</p> </div> </div></div>","null","","","","","","","","","","","","","","","",""
"3480","","test","audio-keyboard-response","101","327347","0.0-8.0-1.36","6024060b7e645502d5ff1f5b","condC","","resources/audio/wordStim/S3_AI_22_axb_Step-3.wav","49","","","","","","resources/audio/wordStim/S3_AI_22_axb_Step-3.wav","S3","22","axb","3","MI","CN","S3-CN","0","1","false"
"null","","fixation","html-keyboard-response","102","328350","0.0-8.0-0.37","6024060b7e645502d5ff1f5b","condC","","<div class=""vertical-center"" style='width:60%;'><img src=""resources/images/CN_flag_100x52.jpg"" style=""width:100px;height:52px;opacity:0.35;""> <br> <br> <p style='font-weight:bold;'>Does the middle word sound more like the first word (A) or the last word (B)?</p> <br> <div class=""container""> <div id=""a-box""> <p class=""title-text"">A</h3></p> </div> <div id=""x-box""> <p class=""title-text"">X<p> </div> <div id=""b-box""> <p class=""title-text"">B</p></div> <br> <div style='float: left;padding-left:30px;'><p>Press '1' for A</p></div><div style='float: right;padding-right:30px;'><p>Press '0' for B</p> </div> </div></div>","null","","","","","","","","","","","","","","","",""
"3331","","test","audio-keyboard-response","103","331680","0.0-8.0-1.37","6024060b7e645502d5ff1f5b","condC","","resources/audio/wordStim/S3_AI_22_bxa_Step-3.wav","48","","","","","","resources/audio/wordStim/S3_AI_22_bxa_Step-3.wav","S3","22","bxa","3","MI","CN","S3-CN","1","0","false"
"null","","fixation","html-keyboard-response","104","332686","0.0-8.0-0.38","6024060b7e645502d5ff1f5b","condC","","<div class=""vertical-center"" style='width:60%;'><img src=""resources/images/CN_flag_100x52.jpg"" style=""width:100px;height:52px;opacity:0.35;""> <br> <br> <p style='font-weight:bold;'>Does the middle word sound more like the first word (A) or the last word (B)?</p> <br> <div class=""container""> <div id=""a-box""> <p class=""title-text"">A</h3></p> </div> <div id=""x-box""> <p class=""title-text"">X<p> </div> <div id=""b-box""> <p class=""title-text"">B</p></div> <br> <div style='float: left;padding-left:30px;'><p>Press '1' for A</p></div><div style='float: right;padding-right:30px;'><p>Press '0' for B</p> </div> </div></div>","null","","","","","","","","","","","","","","","",""
"3709","","test","audio-keyboard-response","105","336395","0.0-8.0-1.38","6024060b7e645502d5ff1f5b","condC","","resources/audio/wordStim/S3_AI_30_bxa_Step-8.wav","49","","","","","","resources/audio/wordStim/S3_AI_30_bxa_Step-8.wav","S3","30","bxa","8","MI","CN","S3-CN","1","1","true"
"null","","fixation","html-keyboard-response","106","337400","0.0-8.0-0.39","6024060b7e645502d5ff1f5b","condC","","<div class=""vertical-center"" style='width:60%;'><img src=""resources/images/CN_flag_100x52.jpg"" style=""width:100px;height:52px;opacity:0.35;""> <br> <br> <p style='font-weight:bold;'>Does the middle word sound more like the first word (A) or the last word (B)?</p> <br> <div class=""container""> <div id=""a-box""> <p class=""title-text"">A</h3></p> </div> <div id=""x-box""> <p class=""title-text"">X<p> </div> <div id=""b-box""> <p class=""title-text"">B</p></div> <br> <div style='float: left;padding-left:30px;'><p>Press '1' for A</p></div><div style='float: right;padding-right:30px;'><p>Press '0' for B</p> </div> </div></div>","null","","","","","","","","","","","","","","","",""
"4360","","test","audio-keyboard-response","107","341758","0.0-8.0-1.39","6024060b7e645502d5ff1f5b","condC","","resources/audio/wordStim/S3_AI_22_bxa_Step-6.wav","48","","","","","","resources/audio/wordStim/S3_AI_22_bxa_Step-6.wav","S3","22","bxa","6","MI","CN","S3-CN","1","0","false"
"null","","fixation","html-keyboard-response","108","342761","0.0-8.0-0.40","6024060b7e645502d5ff1f5b","condC","","<div class=""vertical-center"" style='width:60%;'><img src=""resources/images/CN_flag_100x52.jpg"" style=""width:100px;height:52px;opacity:0.35;""> <br> <br> <p style='font-weight:bold;'>Does the middle word sound more like the first word (A) or the last word (B)?</p> <br> <div class=""container""> <div id=""a-box""> <p class=""title-text"">A</h3></p> </div> <div id=""x-box""> <p class=""title-text"">X<p> </div> <div id=""b-box""> <p class=""title-text"">B</p></div> <br> <div style='float: left;padding-left:30px;'><p>Press '1' for A</p></div><div style='float: right;padding-right:30px;'><p>Press '0' for B</p> </div> </div></div>","null","","","","","","","","","","","","","","","",""
"3539","","test","audio-keyboard-response","109","346297","0.0-8.0-1.40","6024060b7e645502d5ff1f5b","condC","","resources/audio/wordStim/S3_AU_19_bxa_Step-6.wav","49","","","","","","resources/audio/wordStim/S3_AU_19_bxa_Step-6.wav","S3","19","bxa","6","MI","CN","S3-CN","1","1","true"
"null","","fixation","html-keyboard-response","110","347301","0.0-8.0-0.41","6024060b7e645502d5ff1f5b","condC","","<div class=""vertical-center"" style='width:60%;'><img src=""resources/images/CN_flag_100x52.jpg"" style=""width:100px;height:52px;opacity:0.35;""> <br> <br> <p style='font-weight:bold;'>Does the middle word sound more like the first word (A) or the last word (B)?</p> <br> <div class=""container""> <div id=""a-box""> <p class=""title-text"">A</h3></p> </div> <div id=""x-box""> <p class=""title-text"">X<p> </div> <div id=""b-box""> <p class=""title-text"">B</p></div> <br> <div style='float: left;padding-left:30px;'><p>Press '1' for A</p></div><div style='float: right;padding-right:30px;'><p>Press '0' for B</p> </div> </div></div>","null","","","","","","","","","","","","","","","",""
"4251","","test","audio-keyboard-response","111","351552","0.0-8.0-1.41","6024060b7e645502d5ff1f5b","condC","","resources/audio/wordStim/S3_AU_18_bxa_Step-3.wav","49","","","","","","resources/audio/wordStim/S3_AU_18_bxa_Step-3.wav","S3","18","bxa","3","MI","CN","S3-CN","1","1","true"
"24169.180000084452","","break","html-keyboard-response","112","376223","0.0-8.0-2.41-0.41","6024060b7e645502d5ff1f5b","condC","","<div class=""vertical-center""><p>Feel free to take a break!</p><i>When you're ready to continue, press SPACE to begin the next trial.</i></p></div>","32","","","","","","","","","","","","","","","",""
"null","","fixation","html-keyboard-response","113","376728","0.0-8.0-0.42","6024060b7e645502d5ff1f5b","condC","","<div class=""vertical-center"" style='width:60%;'><img src=""resources/images/CN_flag_100x52.jpg"" style=""width:100px;height:52px;opacity:0.35;""> <br> <br> <p style='font-weight:bold;'>Does the middle word sound more like the first word (A) or the last word (B)?</p> <br> <div class=""container""> <div id=""a-box""> <p class=""title-text"">A</h3></p> </div> <div id=""x-box""> <p class=""title-text"">X<p> </div> <div id=""b-box""> <p class=""title-text"">B</p></div> <br> <div style='float: left;padding-left:30px;'><p>Press '1' for A</p></div><div style='float: right;padding-right:30px;'><p>Press '0' for B</p> </div> </div></div>","null","","","","","","","","","","","","","","","",""
"3440","","test","audio-keyboard-response","114","380170","0.0-8.0-1.42","6024060b7e645502d5ff1f5b","condC","","resources/audio/wordStim/S3_AU_20_axb_Step-7.wav","48","","","","","","resources/audio/wordStim/S3_AU_20_axb_Step-7.wav","S3","20","axb","7","MI","CN","S3-CN","0","0","true"
"null","","fixation","html-keyboard-response","115","381173","0.0-8.0-0.43","6024060b7e645502d5ff1f5b","condC","","<div class=""vertical-center"" style='width:60%;'><img src=""resources/images/CN_flag_100x52.jpg"" style=""width:100px;height:52px;opacity:0.35;""> <br> <br> <p style='font-weight:bold;'>Does the middle word sound more like the first word (A) or the last word (B)?</p> <br> <div class=""container""> <div id=""a-box""> <p class=""title-text"">A</h3></p> </div> <div id=""x-box""> <p class=""title-text"">X<p> </div> <div id=""b-box""> <p class=""title-text"">B</p></div> <br> <div style='float: left;padding-left:30px;'><p>Press '1' for A</p></div><div style='float: right;padding-right:30px;'><p>Press '0' for B</p> </div> </div></div>","null","","","","","","","","","","","","","","","",""
"4549","","test","audio-keyboard-response","116","385721","0.0-8.0-1.43","6024060b7e645502d5ff1f5b","condC","","resources/audio/wordStim/S3_AI_21_axb_Step-4.wav","48","","","","","","resources/audio/wordStim/S3_AI_21_axb_Step-4.wav","S3","21","axb","4","MI","CN","S3-CN","0","0","true"
"null","","fixation","html-keyboard-response","117","386724","0.0-8.0-0.44","6024060b7e645502d5ff1f5b","condC","","<div class=""vertical-center"" style='width:60%;'><img src=""resources/images/CN_flag_100x52.jpg"" style=""width:100px;height:52px;opacity:0.35;""> <br> <br> <p style='font-weight:bold;'>Does the middle word sound more like the first word (A) or the last word (B)?</p> <br> <div class=""container""> <div id=""a-box""> <p class=""title-text"">A</h3></p> </div> <div id=""x-box""> <p class=""title-text"">X<p> </div> <div id=""b-box""> <p class=""title-text"">B</p></div> <br> <div style='float: left;padding-left:30px;'><p>Press '1' for A</p></div><div style='float: right;padding-right:30px;'><p>Press '0' for B</p> </div> </div></div>","null","","","","","","","","","","","","","","","",""
"2829","","test","audio-keyboard-response","118","389561","0.0-8.0-1.44","6024060b7e645502d5ff1f5b","condC","","resources/audio/wordStim/S3_AU_19_bxa_Step-8.wav","49","","","","","","resources/audio/wordStim/S3_AU_19_bxa_Step-8.wav","S3","19","bxa","8","MI","CN","S3-CN","1","1","true"
"null","","fixation","html-keyboard-response","119","390564","0.0-8.0-0.45","6024060b7e645502d5ff1f5b","condC","","<div class=""vertical-center"" style='width:60%;'><img src=""resources/images/CN_flag_100x52.jpg"" style=""width:100px;height:52px;opacity:0.35;""> <br> <br> <p style='font-weight:bold;'>Does the middle word sound more like the first word (A) or the last word (B)?</p> <br> <div class=""container""> <div id=""a-box""> <p class=""title-text"">A</h3></p> </div> <div id=""x-box""> <p class=""title-text"">X<p> </div> <div id=""b-box""> <p class=""title-text"">B</p></div> <br> <div style='float: left;padding-left:30px;'><p>Press '1' for A</p></div><div style='float: right;padding-right:30px;'><p>Press '0' for B</p> </div> </div></div>","null","","","","","","","","","","","","","","","",""
"4480","","test","audio-keyboard-response","120","395053","0.0-8.0-1.45","6024060b7e645502d5ff1f5b","condC","","resources/audio/wordStim/S3_AU_19_axb_Step-6.wav","48","","","","","","resources/audio/wordStim/S3_AU_19_axb_Step-6.wav","S3","19","axb","6","MI","CN","S3-CN","0","0","true"
"null","","fixation","html-keyboard-response","121","396056","0.0-8.0-0.46","6024060b7e645502d5ff1f5b","condC","","<div class=""vertical-center"" style='width:60%;'><img src=""resources/images/CN_flag_100x52.jpg"" style=""width:100px;height:52px;opacity:0.35;""> <br> <br> <p style='font-weight:bold;'>Does the middle word sound more like the first word (A) or the last word (B)?</p> <br> <div class=""container""> <div id=""a-box""> <p class=""title-text"">A</h3></p> </div> <div id=""x-box""> <p class=""title-text"">X<p> </div> <div id=""b-box""> <p class=""title-text"">B</p></div> <br> <div style='float: left;padding-left:30px;'><p>Press '1' for A</p></div><div style='float: right;padding-right:30px;'><p>Press '0' for B</p> </div> </div></div>","null","","","","","","","","","","","","","","","",""
"3851","","test","audio-keyboard-response","122","399913","0.0-8.0-1.46","6024060b7e645502d5ff1f5b","condC","","resources/audio/wordStim/S3_AI_30_bxa_Step-6.wav","49","","","","","","resources/audio/wordStim/S3_AI_30_bxa_Step-6.wav","S3","30","bxa","6","MI","CN","S3-CN","1","1","true"
"null","","fixation","html-keyboard-response","123","400918","0.0-8.0-0.47","6024060b7e645502d5ff1f5b","condC","","<div class=""vertical-center"" style='width:60%;'><img src=""resources/images/CN_flag_100x52.jpg"" style=""width:100px;height:52px;opacity:0.35;""> <br> <br> <p style='font-weight:bold;'>Does the middle word sound more like the first word (A) or the last word (B)?</p> <br> <div class=""container""> <div id=""a-box""> <p class=""title-text"">A</h3></p> </div> <div id=""x-box""> <p class=""title-text"">X<p> </div> <div id=""b-box""> <p class=""title-text"">B</p></div> <br> <div style='float: left;padding-left:30px;'><p>Press '1' for A</p></div><div style='float: right;padding-right:30px;'><p>Press '0' for B</p> </div> </div></div>","null","","","","","","","","","","","","","","","",""
"4920","","test","audio-keyboard-response","124","405838","0.0-8.0-1.47","6024060b7e645502d5ff1f5b","condC","","resources/audio/wordStim/S3_AU_18_axb_Step-2.wav","48","","","","","","resources/audio/wordStim/S3_AU_18_axb_Step-2.wav","S3","18","axb","2","MI","CN","S3-CN","0","0","true"
"null","","fixation","html-keyboard-response","125","406840","0.0-8.0-0.48","6024060b7e645502d5ff1f5b","condC","","<div class=""vertical-center"" style='width:60%;'><img src=""resources/images/CN_flag_100x52.jpg"" style=""width:100px;height:52px;opacity:0.35;""> <br> <br> <p style='font-weight:bold;'>Does the middle word sound more like the first word (A) or the last word (B)?</p> <br> <div class=""container""> <div id=""a-box""> <p class=""title-text"">A</h3></p> </div> <div id=""x-box""> <p class=""title-text"">X<p> </div> <div id=""b-box""> <p class=""title-text"">B</p></div> <br> <div style='float: left;padding-left:30px;'><p>Press '1' for A</p></div><div style='float: right;padding-right:30px;'><p>Press '0' for B</p> </div> </div></div>","null","","","","","","","","","","","","","","","",""
"3571","","test","audio-keyboard-response","126","410410","0.0-8.0-1.48","6024060b7e645502d5ff1f5b","condC","","resources/audio/wordStim/S3_AU_20_axb_Step-8.wav","48","","","","","","resources/audio/wordStim/S3_AU_20_axb_Step-8.wav","S3","20","axb","8","MI","CN","S3-CN","0","0","true"
"null","","fixation","html-keyboard-response","127","411414","0.0-8.0-0.49","6024060b7e645502d5ff1f5b","condC","","<div class=""vertical-center"" style='width:60%;'><img src=""resources/images/CN_flag_100x52.jpg"" style=""width:100px;height:52px;opacity:0.35;""> <br> <br> <p style='font-weight:bold;'>Does the middle word sound more like the first word (A) or the last word (B)?</p> <br> <div class=""container""> <div id=""a-box""> <p class=""title-text"">A</h3></p> </div> <div id=""x-box""> <p class=""title-text"">X<p> </div> <div id=""b-box""> <p class=""title-text"">B</p></div> <br> <div style='float: left;padding-left:30px;'><p>Press '1' for A</p></div><div style='float: right;padding-right:30px;'><p>Press '0' for B</p> </div> </div></div>","null","","","","","","","","","","","","","","","",""
"3560","","test","audio-keyboard-response","128","414976","0.0-8.0-1.49","6024060b7e645502d5ff1f5b","condC","","resources/audio/wordStim/S3_AI_30_bxa_Step-4.wav","49","","","","","","resources/audio/wordStim/S3_AI_30_bxa_Step-4.wav","S3","30","bxa","4","MI","CN","S3-CN","1","1","true"
"null","","fixation","html-keyboard-response","129","415981","0.0-8.0-0.50","6024060b7e645502d5ff1f5b","condC","","<div class=""vertical-center"" style='width:60%;'><img src=""resources/images/CN_flag_100x52.jpg"" style=""width:100px;height:52px;opacity:0.35;""> <br> <br> <p style='font-weight:bold;'>Does the middle word sound more like the first word (A) or the last word (B)?</p> <br> <div class=""container""> <div id=""a-box""> <p class=""title-text"">A</h3></p> </div> <div id=""x-box""> <p class=""title-text"">X<p> </div> <div id=""b-box""> <p class=""title-text"">B</p></div> <br> <div style='float: left;padding-left:30px;'><p>Press '1' for A</p></div><div style='float: right;padding-right:30px;'><p>Press '0' for B</p> </div> </div></div>","null","","","","","","","","","","","","","","","",""
"4821","","test","audio-keyboard-response","130","420804","0.0-8.0-1.50","6024060b7e645502d5ff1f5b","condC","","resources/audio/wordStim/S3_AI_22_axb_Step-8.wav","48","","","","","","resources/audio/wordStim/S3_AI_22_axb_Step-8.wav","S3","22","axb","8","MI","CN","S3-CN","0","0","true"
"null","","fixation","html-keyboard-response","131","421811","0.0-8.0-0.51","6024060b7e645502d5ff1f5b","condC","","<div class=""vertical-center"" style='width:60%;'><img src=""resources/images/CN_flag_100x52.jpg"" style=""width:100px;height:52px;opacity:0.35;""> <br> <br> <p style='font-weight:bold;'>Does the middle word sound more like the first word (A) or the last word (B)?</p> <br> <div class=""container""> <div id=""a-box""> <p class=""title-text"">A</h3></p> </div> <div id=""x-box""> <p class=""title-text"">X<p> </div> <div id=""b-box""> <p class=""title-text"">B</p></div> <br> <div style='float: left;padding-left:30px;'><p>Press '1' for A</p></div><div style='float: right;padding-right:30px;'><p>Press '0' for B</p> </div> </div></div>","null","","","","","","","","","","","","","","","",""
"4509","","test","audio-keyboard-response","132","426318","0.0-8.0-1.51","6024060b7e645502d5ff1f5b","condC","","resources/audio/wordStim/S3_AU_18_axb_Step-4.wav","49","","","","","","resources/audio/wordStim/S3_AU_18_axb_Step-4.wav","S3","18","axb","4","MI","CN","S3-CN","0","1","false"
"null","","fixation","html-keyboard-response","133","427323","0.0-8.0-0.52","6024060b7e645502d5ff1f5b","condC","","<div class=""vertical-center"" style='width:60%;'><img src=""resources/images/CN_flag_100x52.jpg"" style=""width:100px;height:52px;opacity:0.35;""> <br> <br> <p style='font-weight:bold;'>Does the middle word sound more like the first word (A) or the last word (B)?</p> <br> <div class=""container""> <div id=""a-box""> <p class=""title-text"">A</h3></p> </div> <div id=""x-box""> <p class=""title-text"">X<p> </div> <div id=""b-box""> <p class=""title-text"">B</p></div> <br> <div style='float: left;padding-left:30px;'><p>Press '1' for A</p></div><div style='float: right;padding-right:30px;'><p>Press '0' for B</p> </div> </div></div>","null","","","","","","","","","","","","","","","",""
"3400","","test","audio-keyboard-response","134","430731","0.0-8.0-1.52","6024060b7e645502d5ff1f5b","condC","","resources/audio/wordStim/S3_AI_22_axb_Step-4.wav","49","","","","","","resources/audio/wordStim/S3_AI_22_axb_Step-4.wav","S3","22","axb","4","MI","CN","S3-CN","0","1","false"
"null","","fixation","html-keyboard-response","135","431736","0.0-8.0-0.53","6024060b7e645502d5ff1f5b","condC","","<div class=""vertical-center"" style='width:60%;'><img src=""resources/images/CN_flag_100x52.jpg"" style=""width:100px;height:52px;opacity:0.35;""> <br> <br> <p style='font-weight:bold;'>Does the middle word sound more like the first word (A) or the last word (B)?</p> <br> <div class=""container""> <div id=""a-box""> <p class=""title-text"">A</h3></p> </div> <div id=""x-box""> <p class=""title-text"">X<p> </div> <div id=""b-box""> <p class=""title-text"">B</p></div> <br> <div style='float: left;padding-left:30px;'><p>Press '1' for A</p></div><div style='float: right;padding-right:30px;'><p>Press '0' for B</p> </div> </div></div>","null","","","","","","","","","","","","","","","",""
"4051","","test","audio-keyboard-response","136","435792","0.0-8.0-1.53","6024060b7e645502d5ff1f5b","condC","","resources/audio/wordStim/S3_AU_18_axb_Step-5.wav","48","","","","","","resources/audio/wordStim/S3_AU_18_axb_Step-5.wav","S3","18","axb","5","MI","CN","S3-CN","0","0","true"
"null","","fixation","html-keyboard-response","137","436796","0.0-8.0-0.54","6024060b7e645502d5ff1f5b","condC","","<div class=""vertical-center"" style='width:60%;'><img src=""resources/images/CN_flag_100x52.jpg"" style=""width:100px;height:52px;opacity:0.35;""> <br> <br> <p style='font-weight:bold;'>Does the middle word sound more like the first word (A) or the last word (B)?</p> <br> <div class=""container""> <div id=""a-box""> <p class=""title-text"">A</h3></p> </div> <div id=""x-box""> <p class=""title-text"">X<p> </div> <div id=""b-box""> <p class=""title-text"">B</p></div> <br> <div style='float: left;padding-left:30px;'><p>Press '1' for A</p></div><div style='float: right;padding-right:30px;'><p>Press '0' for B</p> </div> </div></div>","null","","","","","","","","","","","","","","","",""
"3400","","test","audio-keyboard-response","138","440201","0.0-8.0-1.54","6024060b7e645502d5ff1f5b","condC","","resources/audio/wordStim/S3_AU_19_axb_Step-5.wav","48","","","","","","resources/audio/wordStim/S3_AU_19_axb_Step-5.wav","S3","19","axb","5","MI","CN","S3-CN","0","0","true"
"null","","fixation","html-keyboard-response","139","441204","0.0-8.0-0.55","6024060b7e645502d5ff1f5b","condC","","<div class=""vertical-center"" style='width:60%;'><img src=""resources/images/CN_flag_100x52.jpg"" style=""width:100px;height:52px;opacity:0.35;""> <br> <br> <p style='font-weight:bold;'>Does the middle word sound more like the first word (A) or the last word (B)?</p> <br> <div class=""container""> <div id=""a-box""> <p class=""title-text"">A</h3></p> </div> <div id=""x-box""> <p class=""title-text"">X<p> </div> <div id=""b-box""> <p class=""title-text"">B</p></div> <br> <div style='float: left;padding-left:30px;'><p>Press '1' for A</p></div><div style='float: right;padding-right:30px;'><p>Press '0' for B</p> </div> </div></div>","null","","","","","","","","","","","","","","","",""
"4259","","test","audio-keyboard-response","140","445466","0.0-8.0-1.55","6024060b7e645502d5ff1f5b","condC","","resources/audio/wordStim/S3_AU_19_bxa_Step-5.wav","49","","","","","","resources/audio/wordStim/S3_AU_19_bxa_Step-5.wav","S3","19","bxa","5","MI","CN","S3-CN","1","1","true"
"null","","fixation","html-keyboard-response","141","446468","0.0-8.0-0.56","6024060b7e645502d5ff1f5b","condC","","<div class=""vertical-center"" style='width:60%;'><img src=""resources/images/CN_flag_100x52.jpg"" style=""width:100px;height:52px;opacity:0.35;""> <br> <br> <p style='font-weight:bold;'>Does the middle word sound more like the first word (A) or the last word (B)?</p> <br> <div class=""container""> <div id=""a-box""> <p class=""title-text"">A</h3></p> </div> <div id=""x-box""> <p class=""title-text"">X<p> </div> <div id=""b-box""> <p class=""title-text"">B</p></div> <br> <div style='float: left;padding-left:30px;'><p>Press '1' for A</p></div><div style='float: right;padding-right:30px;'><p>Press '0' for B</p> </div> </div></div>","null","","","","","","","","","","","","","","","",""
"4120","","test","audio-keyboard-response","142","450588","0.0-8.0-1.56","6024060b7e645502d5ff1f5b","condC","","resources/audio/wordStim/S3_AU_18_bxa_Step-6.wav","48","","","","","","resources/audio/wordStim/S3_AU_18_bxa_Step-6.wav","S3","18","bxa","6","MI","CN","S3-CN","1","0","false"
"null","","fixation","html-keyboard-response","143","451592","0.0-8.0-0.57","6024060b7e645502d5ff1f5b","condC","","<div class=""vertical-center"" style='width:60%;'><img src=""resources/images/CN_flag_100x52.jpg"" style=""width:100px;height:52px;opacity:0.35;""> <br> <br> <p style='font-weight:bold;'>Does the middle word sound more like the first word (A) or the last word (B)?</p> <br> <div class=""container""> <div id=""a-box""> <p class=""title-text"">A</h3></p> </div> <div id=""x-box""> <p class=""title-text"">X<p> </div> <div id=""b-box""> <p class=""title-text"">B</p></div> <br> <div style='float: left;padding-left:30px;'><p>Press '1' for A</p></div><div style='float: right;padding-right:30px;'><p>Press '0' for B</p> </div> </div></div>","null","","","","","","","","","","","","","","","",""
"4400","","test","audio-keyboard-response","144","455986","0.0-8.0-1.57","6024060b7e645502d5ff1f5b","condC","","resources/audio/wordStim/S3_AU_20_bxa_Step-5.wav","48","","","","","","resources/audio/wordStim/S3_AU_20_bxa_Step-5.wav","S3","20","bxa","5","MI","CN","S3-CN","1","0","false"
"null","","fixation","html-keyboard-response","145","456989","0.0-8.0-0.58","6024060b7e645502d5ff1f5b","condC","","<div class=""vertical-center"" style='width:60%;'><img src=""resources/images/CN_flag_100x52.jpg"" style=""width:100px;height:52px;opacity:0.35;""> <br> <br> <p style='font-weight:bold;'>Does the middle word sound more like the first word (A) or the last word (B)?</p> <br> <div class=""container""> <div id=""a-box""> <p class=""title-text"">A</h3></p> </div> <div id=""x-box""> <p class=""title-text"">X<p> </div> <div id=""b-box""> <p class=""title-text"">B</p></div> <br> <div style='float: left;padding-left:30px;'><p>Press '1' for A</p></div><div style='float: right;padding-right:30px;'><p>Press '0' for B</p> </div> </div></div>","null","","","","","","","","","","","","","","","",""
"3971","","test","audio-keyboard-response","146","460957","0.0-8.0-1.58","6024060b7e645502d5ff1f5b","condC","","resources/audio/wordStim/S3_AI_22_bxa_Step-4.wav","48","","","","","","resources/audio/wordStim/S3_AI_22_bxa_Step-4.wav","S3","22","bxa","4","MI","CN","S3-CN","1","0","false"
"null","","fixation","html-keyboard-response","147","461961","0.0-8.0-0.59","6024060b7e645502d5ff1f5b","condC","","<div class=""vertical-center"" style='width:60%;'><img src=""resources/images/CN_flag_100x52.jpg"" style=""width:100px;height:52px;opacity:0.35;""> <br> <br> <p style='font-weight:bold;'>Does the middle word sound more like the first word (A) or the last word (B)?</p> <br> <div class=""container""> <div id=""a-box""> <p class=""title-text"">A</h3></p> </div> <div id=""x-box""> <p class=""title-text"">X<p> </div> <div id=""b-box""> <p class=""title-text"">B</p></div> <br> <div style='float: left;padding-left:30px;'><p>Press '1' for A</p></div><div style='float: right;padding-right:30px;'><p>Press '0' for B</p> </div> </div></div>","null","","","","","","","","","","","","","","","",""
"4051","","test","audio-keyboard-response","148","466011","0.0-8.0-1.59","6024060b7e645502d5ff1f5b","condC","","resources/audio/wordStim/S3_AI_22_bxa_Step-7.wav","49","","","","","","resources/audio/wordStim/S3_AI_22_bxa_Step-7.wav","S3","22","bxa","7","MI","CN","S3-CN","1","1","true"
"null","","fixation","html-keyboard-response","149","467017","0.0-8.0-0.60","6024060b7e645502d5ff1f5b","condC","","<div class=""vertical-center"" style='width:60%;'><img src=""resources/images/CN_flag_100x52.jpg"" style=""width:100px;height:52px;opacity:0.35;""> <br> <br> <p style='font-weight:bold;'>Does the middle word sound more like the first word (A) or the last word (B)?</p> <br> <div class=""container""> <div id=""a-box""> <p class=""title-text"">A</h3></p> </div> <div id=""x-box""> <p class=""title-text"">X<p> </div> <div id=""b-box""> <p class=""title-text"">B</p></div> <br> <div style='float: left;padding-left:30px;'><p>Press '1' for A</p></div><div style='float: right;padding-right:30px;'><p>Press '0' for B</p> </div> </div></div>","null","","","","","","","","","","","","","","","",""
"4091","","test","audio-keyboard-response","150","471113","0.0-8.0-1.60","6024060b7e645502d5ff1f5b","condC","","resources/audio/wordStim/S3_AU_18_bxa_Step-5.wav","48","","","","","","resources/audio/wordStim/S3_AU_18_bxa_Step-5.wav","S3","18","bxa","5","MI","CN","S3-CN","1","0","false"
"null","","fixation","html-keyboard-response","151","472118","0.0-8.0-0.61","6024060b7e645502d5ff1f5b","condC","","<div class=""vertical-center"" style='width:60%;'><img src=""resources/images/CN_flag_100x52.jpg"" style=""width:100px;height:52px;opacity:0.35;""> <br> <br> <p style='font-weight:bold;'>Does the middle word sound more like the first word (A) or the last word (B)?</p> <br> <div class=""container""> <div id=""a-box""> <p class=""title-text"">A</h3></p> </div> <div id=""x-box""> <p class=""title-text"">X<p> </div> <div id=""b-box""> <p class=""title-text"">B</p></div> <br> <div style='float: left;padding-left:30px;'><p>Press '1' for A</p></div><div style='float: right;padding-right:30px;'><p>Press '0' for B</p> </div> </div></div>","null","","","","","","","","","","","","","","","",""
"5411","","test","audio-keyboard-response","152","477533","0.0-8.0-1.61","6024060b7e645502d5ff1f5b","condC","","resources/audio/wordStim/S3_AI_30_axb_Step-5.wav","48","","","","","","resources/audio/wordStim/S3_AI_30_axb_Step-5.wav","S3","30","axb","5","MI","CN","S3-CN","0","0","true"
"null","","fixation","html-keyboard-response","153","478537","0.0-8.0-0.62","6024060b7e645502d5ff1f5b","condC","","<div class=""vertical-center"" style='width:60%;'><img src=""resources/images/CN_flag_100x52.jpg"" style=""width:100px;height:52px;opacity:0.35;""> <br> <br> <p style='font-weight:bold;'>Does the middle word sound more like the first word (A) or the last word (B)?</p> <br> <div class=""container""> <div id=""a-box""> <p class=""title-text"">A</h3></p> </div> <div id=""x-box""> <p class=""title-text"">X<p> </div> <div id=""b-box""> <p class=""title-text"">B</p></div> <br> <div style='float: left;padding-left:30px;'><p>Press '1' for A</p></div><div style='float: right;padding-right:30px;'><p>Press '0' for B</p> </div> </div></div>","null","","","","","","","","","","","","","","","",""
"4581","","test","audio-keyboard-response","154","483123","0.0-8.0-1.62","6024060b7e645502d5ff1f5b","condC","","resources/audio/wordStim/S3_AI_21_axb_Step-2.wav","48","","","","","","resources/audio/wordStim/S3_AI_21_axb_Step-2.wav","S3","21","axb","2","MI","CN","S3-CN","0","0","true"
"8425.889999954961","","break","html-keyboard-response","155","492052","0.0-8.0-2.62-0.62","6024060b7e645502d5ff1f5b","condC","","<div class=""vertical-center""><p>Feel free to take a break!</p><i>When you're ready to continue, press SPACE to begin the next trial.</i></p></div>","32","","","","","","","","","","","","","","","",""
"null","","fixation","html-keyboard-response","156","492555","0.0-8.0-0.63","6024060b7e645502d5ff1f5b","condC","","<div class=""vertical-center"" style='width:60%;'><img src=""resources/images/CN_flag_100x52.jpg"" style=""width:100px;height:52px;opacity:0.35;""> <br> <br> <p style='font-weight:bold;'>Does the middle word sound more like the first word (A) or the last word (B)?</p> <br> <div class=""container""> <div id=""a-box""> <p class=""title-text"">A</h3></p> </div> <div id=""x-box""> <p class=""title-text"">X<p> </div> <div id=""b-box""> <p class=""title-text"">B</p></div> <br> <div style='float: left;padding-left:30px;'><p>Press '1' for A</p></div><div style='float: right;padding-right:30px;'><p>Press '0' for B</p> </div> </div></div>","null","","","","","","","","","","","","","","","",""
"3109","","test","audio-keyboard-response","157","495673","0.0-8.0-1.63","6024060b7e645502d5ff1f5b","condC","","resources/audio/wordStim/S3_AU_19_axb_Step-4.wav","48","","","","","","resources/audio/wordStim/S3_AU_19_axb_Step-4.wav","S3","19","axb","4","MI","CN","S3-CN","0","0","true"
"null","","fixation","html-keyboard-response","158","496678","0.0-8.0-0.64","6024060b7e645502d5ff1f5b","condC","","<div class=""vertical-center"" style='width:60%;'><img src=""resources/images/CN_flag_100x52.jpg"" style=""width:100px;height:52px;opacity:0.35;""> <br> <br> <p style='font-weight:bold;'>Does the middle word sound more like the first word (A) or the last word (B)?</p> <br> <div class=""container""> <div id=""a-box""> <p class=""title-text"">A</h3></p> </div> <div id=""x-box""> <p class=""title-text"">X<p> </div> <div id=""b-box""> <p class=""title-text"">B</p></div> <br> <div style='float: left;padding-left:30px;'><p>Press '1' for A</p></div><div style='float: right;padding-right:30px;'><p>Press '0' for B</p> </div> </div></div>","null","","","","","","","","","","","","","","","",""
"2800","","test","audio-keyboard-response","159","499481","0.0-8.0-1.64","6024060b7e645502d5ff1f5b","condC","","resources/audio/wordStim/S3_AI_21_bxa_Step-3.wav","48","","","","","","resources/audio/wordStim/S3_AI_21_bxa_Step-3.wav","S3","21","bxa","3","MI","CN","S3-CN","1","0","false"
"null","","fixation","html-keyboard-response","160","500485","0.0-8.0-0.65","6024060b7e645502d5ff1f5b","condC","","<div class=""vertical-center"" style='width:60%;'><img src=""resources/images/CN_flag_100x52.jpg"" style=""width:100px;height:52px;opacity:0.35;""> <br> <br> <p style='font-weight:bold;'>Does the middle word sound more like the first word (A) or the last word (B)?</p> <br> <div class=""container""> <div id=""a-box""> <p class=""title-text"">A</h3></p> </div> <div id=""x-box""> <p class=""title-text"">X<p> </div> <div id=""b-box""> <p class=""title-text"">B</p></div> <br> <div style='float: left;padding-left:30px;'><p>Press '1' for A</p></div><div style='float: right;padding-right:30px;'><p>Press '0' for B</p> </div> </div></div>","null","","","","","","","","","","","","","","","",""
"4440","","test","audio-keyboard-response","161","504931","0.0-8.0-1.65","6024060b7e645502d5ff1f5b","condC","","resources/audio/wordStim/S3_AU_18_axb_Step-3.wav","48","","","","","","resources/audio/wordStim/S3_AU_18_axb_Step-3.wav","S3","18","axb","3","MI","CN","S3-CN","0","0","true"
"null","","fixation","html-keyboard-response","162","505937","0.0-8.0-0.66","6024060b7e645502d5ff1f5b","condC","","<div class=""vertical-center"" style='width:60%;'><img src=""resources/images/CN_flag_100x52.jpg"" style=""width:100px;height:52px;opacity:0.35;""> <br> <br> <p style='font-weight:bold;'>Does the middle word sound more like the first word (A) or the last word (B)?</p> <br> <div class=""container""> <div id=""a-box""> <p class=""title-text"">A</h3></p> </div> <div id=""x-box""> <p class=""title-text"">X<p> </div> <div id=""b-box""> <p class=""title-text"">B</p></div> <br> <div style='float: left;padding-left:30px;'><p>Press '1' for A</p></div><div style='float: right;padding-right:30px;'><p>Press '0' for B</p> </div> </div></div>","null","","","","","","","","","","","","","","","",""
"3392","","test","audio-keyboard-response","163","509326","0.0-8.0-1.66","6024060b7e645502d5ff1f5b","condC","","resources/audio/wordStim/S3_AI_21_axb_Step-3.wav","49","","","","","","resources/audio/wordStim/S3_AI_21_axb_Step-3.wav","S3","21","axb","3","MI","CN","S3-CN","0","1","false"
"null","","fixation","html-keyboard-response","164","510330","0.0-8.0-0.67","6024060b7e645502d5ff1f5b","condC","","<div class=""vertical-center"" style='width:60%;'><img src=""resources/images/CN_flag_100x52.jpg"" style=""width:100px;height:52px;opacity:0.35;""> <br> <br> <p style='font-weight:bold;'>Does the middle word sound more like the first word (A) or the last word (B)?</p> <br> <div class=""container""> <div id=""a-box""> <p class=""title-text"">A</h3></p> </div> <div id=""x-box""> <p class=""title-text"">X<p> </div> <div id=""b-box""> <p class=""title-text"">B</p></div> <br> <div style='float: left;padding-left:30px;'><p>Press '1' for A</p></div><div style='float: right;padding-right:30px;'><p>Press '0' for B</p> </div> </div></div>","null","","","","","","","","","","","","","","","",""
"3408","","test","audio-keyboard-response","165","513744","0.0-8.0-1.67","6024060b7e645502d5ff1f5b","condC","","resources/audio/wordStim/S3_AU_19_bxa_Step-4.wav","48","","","","","","resources/audio/wordStim/S3_AU_19_bxa_Step-4.wav","S3","19","bxa","4","MI","CN","S3-CN","1","0","false"
"null","","fixation","html-keyboard-response","166","514748","0.0-8.0-0.68","6024060b7e645502d5ff1f5b","condC","","<div class=""vertical-center"" style='width:60%;'><img src=""resources/images/CN_flag_100x52.jpg"" style=""width:100px;height:52px;opacity:0.35;""> <br> <br> <p style='font-weight:bold;'>Does the middle word sound more like the first word (A) or the last word (B)?</p> <br> <div class=""container""> <div id=""a-box""> <p class=""title-text"">A</h3></p> </div> <div id=""x-box""> <p class=""title-text"">X<p> </div> <div id=""b-box""> <p class=""title-text"">B</p></div> <br> <div style='float: left;padding-left:30px;'><p>Press '1' for A</p></div><div style='float: right;padding-right:30px;'><p>Press '0' for B</p> </div> </div></div>","null","","","","","","","","","","","","","","","",""
"3469","","test","audio-keyboard-response","167","518223","0.0-8.0-1.68","6024060b7e645502d5ff1f5b","condC","","resources/audio/wordStim/S3_AI_30_axb_Step-3.wav","48","","","","","","resources/audio/wordStim/S3_AI_30_axb_Step-3.wav","S3","30","axb","3","MI","CN","S3-CN","0","0","true"
"null","","fixation","html-keyboard-response","168","519227","0.0-8.0-0.69","6024060b7e645502d5ff1f5b","condC","","<div class=""vertical-center"" style='width:60%;'><img src=""resources/images/CN_flag_100x52.jpg"" style=""width:100px;height:52px;opacity:0.35;""> <br> <br> <p style='font-weight:bold;'>Does the middle word sound more like the first word (A) or the last word (B)?</p> <br> <div class=""container""> <div id=""a-box""> <p class=""title-text"">A</h3></p> </div> <div id=""x-box""> <p class=""title-text"">X<p> </div> <div id=""b-box""> <p class=""title-text"">B</p></div> <br> <div style='float: left;padding-left:30px;'><p>Press '1' for A</p></div><div style='float: right;padding-right:30px;'><p>Press '0' for B</p> </div> </div></div>","null","","","","","","","","","","","","","","","",""
"2971","","test","audio-keyboard-response","169","522201","0.0-8.0-1.69","6024060b7e645502d5ff1f5b","condC","","resources/audio/wordStim/S3_AU_19_bxa_Step-3.wav","48","","","","","","resources/audio/wordStim/S3_AU_19_bxa_Step-3.wav","S3","19","bxa","3","MI","CN","S3-CN","1","0","false"
"null","","fixation","html-keyboard-response","170","523206","0.0-8.0-0.70","6024060b7e645502d5ff1f5b","condC","","<div class=""vertical-center"" style='width:60%;'><img src=""resources/images/CN_flag_100x52.jpg"" style=""width:100px;height:52px;opacity:0.35;""> <br> <br> <p style='font-weight:bold;'>Does the middle word sound more like the first word (A) or the last word (B)?</p> <br> <div class=""container""> <div id=""a-box""> <p class=""title-text"">A</h3></p> </div> <div id=""x-box""> <p class=""title-text"">X<p> </div> <div id=""b-box""> <p class=""title-text"">B</p></div> <br> <div style='float: left;padding-left:30px;'><p>Press '1' for A</p></div><div style='float: right;padding-right:30px;'><p>Press '0' for B</p> </div> </div></div>","null","","","","","","","","","","","","","","","",""
"3240","","test","audio-keyboard-response","171","526445","0.0-8.0-1.70","6024060b7e645502d5ff1f5b","condC","","resources/audio/wordStim/S3_AU_19_bxa_Step-2.wav","49","","","","","","resources/audio/wordStim/S3_AU_19_bxa_Step-2.wav","S3","19","bxa","2","MI","CN","S3-CN","1","1","true"
"null","","fixation","html-keyboard-response","172","527448","0.0-8.0-0.71","6024060b7e645502d5ff1f5b","condC","","<div class=""vertical-center"" style='width:60%;'><img src=""resources/images/CN_flag_100x52.jpg"" style=""width:100px;height:52px;opacity:0.35;""> <br> <br> <p style='font-weight:bold;'>Does the middle word sound more like the first word (A) or the last word (B)?</p> <br> <div class=""container""> <div id=""a-box""> <p class=""title-text"">A</h3></p> </div> <div id=""x-box""> <p class=""title-text"">X<p> </div> <div id=""b-box""> <p class=""title-text"">B</p></div> <br> <div style='float: left;padding-left:30px;'><p>Press '1' for A</p></div><div style='float: right;padding-right:30px;'><p>Press '0' for B</p> </div> </div></div>","null","","","","","","","","","","","","","","","",""
"2909","","test","audio-keyboard-response","173","530356","0.0-8.0-1.71","6024060b7e645502d5ff1f5b","condC","","resources/audio/wordStim/S3_AI_21_bxa_Step-2.wav","49","","","","","","resources/audio/wordStim/S3_AI_21_bxa_Step-2.wav","S3","21","bxa","2","MI","CN","S3-CN","1","1","true"
"null","","fixation","html-keyboard-response","174","531361","0.0-8.0-0.72","6024060b7e645502d5ff1f5b","condC","","<div class=""vertical-center"" style='width:60%;'><img src=""resources/images/CN_flag_100x52.jpg"" style=""width:100px;height:52px;opacity:0.35;""> <br> <br> <p style='font-weight:bold;'>Does the middle word sound more like the first word (A) or the last word (B)?</p> <br> <div class=""container""> <div id=""a-box""> <p class=""title-text"">A</h3></p> </div> <div id=""x-box""> <p class=""title-text"">X<p> </div> <div id=""b-box""> <p class=""title-text"">B</p></div> <br> <div style='float: left;padding-left:30px;'><p>Press '1' for A</p></div><div style='float: right;padding-right:30px;'><p>Press '0' for B</p> </div> </div></div>","null","","","","","","","","","","","","","","","",""
"4000","","test","audio-keyboard-response","175","535371","0.0-8.0-1.72","6024060b7e645502d5ff1f5b","condC","","resources/audio/wordStim/S3_AU_18_bxa_Step-2.wav","48","","","","","","resources/audio/wordStim/S3_AU_18_bxa_Step-2.wav","S3","18","bxa","2","MI","CN","S3-CN","1","0","false"
"null","","fixation","html-keyboard-response","176","536375","0.0-8.0-0.73","6024060b7e645502d5ff1f5b","condC","","<div class=""vertical-center"" style='width:60%;'><img src=""resources/images/CN_flag_100x52.jpg"" style=""width:100px;height:52px;opacity:0.35;""> <br> <br> <p style='font-weight:bold;'>Does the middle word sound more like the first word (A) or the last word (B)?</p> <br> <div class=""container""> <div id=""a-box""> <p class=""title-text"">A</h3></p> </div> <div id=""x-box""> <p class=""title-text"">X<p> </div> <div id=""b-box""> <p class=""title-text"">B</p></div> <br> <div style='float: left;padding-left:30px;'><p>Press '1' for A</p></div><div style='float: right;padding-right:30px;'><p>Press '0' for B</p> </div> </div></div>","null","","","","","","","","","","","","","","","",""
"3611","","test","audio-keyboard-response","177","539990","0.0-8.0-1.73","6024060b7e645502d5ff1f5b","condC","","resources/audio/wordStim/S3_AU_20_bxa_Step-4.wav","48","","","","","","resources/audio/wordStim/S3_AU_20_bxa_Step-4.wav","S3","20","bxa","4","MI","CN","S3-CN","1","0","false"
"null","","fixation","html-keyboard-response","178","540992","0.0-8.0-0.74","6024060b7e645502d5ff1f5b","condC","","<div class=""vertical-center"" style='width:60%;'><img src=""resources/images/CN_flag_100x52.jpg"" style=""width:100px;height:52px;opacity:0.35;""> <br> <br> <p style='font-weight:bold;'>Does the middle word sound more like the first word (A) or the last word (B)?</p> <br> <div class=""container""> <div id=""a-box""> <p class=""title-text"">A</h3></p> </div> <div id=""x-box""> <p class=""title-text"">X<p> </div> <div id=""b-box""> <p class=""title-text"">B</p></div> <br> <div style='float: left;padding-left:30px;'><p>Press '1' for A</p></div><div style='float: right;padding-right:30px;'><p>Press '0' for B</p> </div> </div></div>","null","","","","","","","","","","","","","","","",""
"3549","","test","audio-keyboard-response","179","544538","0.0-8.0-1.74","6024060b7e645502d5ff1f5b","condC","","resources/audio/wordStim/S3_AI_30_axb_Step-6.wav","49","","","","","","resources/audio/wordStim/S3_AI_30_axb_Step-6.wav","S3","30","axb","6","MI","CN","S3-CN","0","1","false"
"null","","fixation","html-keyboard-response","180","545542","0.0-8.0-0.75","6024060b7e645502d5ff1f5b","condC","","<div class=""vertical-center"" style='width:60%;'><img src=""resources/images/CN_flag_100x52.jpg"" style=""width:100px;height:52px;opacity:0.35;""> <br> <br> <p style='font-weight:bold;'>Does the middle word sound more like the first word (A) or the last word (B)?</p> <br> <div class=""container""> <div id=""a-box""> <p class=""title-text"">A</h3></p> </div> <div id=""x-box""> <p class=""title-text"">X<p> </div> <div id=""b-box""> <p class=""title-text"">B</p></div> <br> <div style='float: left;padding-left:30px;'><p>Press '1' for A</p></div><div style='float: right;padding-right:30px;'><p>Press '0' for B</p> </div> </div></div>","null","","","","","","","","","","","","","","","",""
"3880","","test","audio-keyboard-response","181","549415","0.0-8.0-1.75","6024060b7e645502d5ff1f5b","condC","","resources/audio/wordStim/S3_AI_21_bxa_Step-5.wav","49","","","","","","resources/audio/wordStim/S3_AI_21_bxa_Step-5.wav","S3","21","bxa","5","MI","CN","S3-CN","1","1","true"
"null","","fixation","html-keyboard-response","182","550420","0.0-8.0-0.76","6024060b7e645502d5ff1f5b","condC","","<div class=""vertical-center"" style='width:60%;'><img src=""resources/images/CN_flag_100x52.jpg"" style=""width:100px;height:52px;opacity:0.35;""> <br> <br> <p style='font-weight:bold;'>Does the middle word sound more like the first word (A) or the last word (B)?</p> <br> <div class=""container""> <div id=""a-box""> <p class=""title-text"">A</h3></p> </div> <div id=""x-box""> <p class=""title-text"">X<p> </div> <div id=""b-box""> <p class=""title-text"">B</p></div> <br> <div style='float: left;padding-left:30px;'><p>Press '1' for A</p></div><div style='float: right;padding-right:30px;'><p>Press '0' for B</p> </div> </div></div>","null","","","","","","","","","","","","","","","",""
"3611","","test","audio-keyboard-response","183","554032","0.0-8.0-1.76","6024060b7e645502d5ff1f5b","condC","","resources/audio/wordStim/S3_AU_20_bxa_Step-7.wav","48","","","","","","resources/audio/wordStim/S3_AU_20_bxa_Step-7.wav","S3","20","bxa","7","MI","CN","S3-CN","1","0","false"
"null","","fixation","html-keyboard-response","184","555034","0.0-8.0-0.77","6024060b7e645502d5ff1f5b","condC","","<div class=""vertical-center"" style='width:60%;'><img src=""resources/images/CN_flag_100x52.jpg"" style=""width:100px;height:52px;opacity:0.35;""> <br> <br> <p style='font-weight:bold;'>Does the middle word sound more like the first word (A) or the last word (B)?</p> <br> <div class=""container""> <div id=""a-box""> <p class=""title-text"">A</h3></p> </div> <div id=""x-box""> <p class=""title-text"">X<p> </div> <div id=""b-box""> <p class=""title-text"">B</p></div> <br> <div style='float: left;padding-left:30px;'><p>Press '1' for A</p></div><div style='float: right;padding-right:30px;'><p>Press '0' for B</p> </div> </div></div>","null","","","","","","","","","","","","","","","",""
"3120","","test","audio-keyboard-response","185","558156","0.0-8.0-1.77","6024060b7e645502d5ff1f5b","condC","","resources/audio/wordStim/S3_AU_19_axb_Step-2.wav","48","","","","","","resources/audio/wordStim/S3_AU_19_axb_Step-2.wav","S3","19","axb","2","MI","CN","S3-CN","0","0","true"
"null","","fixation","html-keyboard-response","186","559159","0.0-8.0-0.78","6024060b7e645502d5ff1f5b","condC","","<div class=""vertical-center"" style='width:60%;'><img src=""resources/images/CN_flag_100x52.jpg"" style=""width:100px;height:52px;opacity:0.35;""> <br> <br> <p style='font-weight:bold;'>Does the middle word sound more like the first word (A) or the last word (B)?</p> <br> <div class=""container""> <div id=""a-box""> <p class=""title-text"">A</h3></p> </div> <div id=""x-box""> <p class=""title-text"">X<p> </div> <div id=""b-box""> <p class=""title-text"">B</p></div> <br> <div style='float: left;padding-left:30px;'><p>Press '1' for A</p></div><div style='float: right;padding-right:30px;'><p>Press '0' for B</p> </div> </div></div>","null","","","","","","","","","","","","","","","",""
"3811","","test","audio-keyboard-response","187","562970","0.0-8.0-1.78","6024060b7e645502d5ff1f5b","condC","","resources/audio/wordStim/S3_AU_19_axb_Step-8.wav","48","","","","","","resources/audio/wordStim/S3_AU_19_axb_Step-8.wav","S3","19","axb","8","MI","CN","S3-CN","0","0","true"
"null","","fixation","html-keyboard-response","188","563975","0.0-8.0-0.79","6024060b7e645502d5ff1f5b","condC","","<div class=""vertical-center"" style='width:60%;'><img src=""resources/images/CN_flag_100x52.jpg"" style=""width:100px;height:52px;opacity:0.35;""> <br> <br> <p style='font-weight:bold;'>Does the middle word sound more like the first word (A) or the last word (B)?</p> <br> <div class=""container""> <div id=""a-box""> <p class=""title-text"">A</h3></p> </div> <div id=""x-box""> <p class=""title-text"">X<p> </div> <div id=""b-box""> <p class=""title-text"">B</p></div> <br> <div style='float: left;padding-left:30px;'><p>Press '1' for A</p></div><div style='float: right;padding-right:30px;'><p>Press '0' for B</p> </div> </div></div>","null","","","","","","","","","","","","","","","",""
"3720","","test","audio-keyboard-response","189","567698","0.0-8.0-1.79","6024060b7e645502d5ff1f5b","condC","","resources/audio/wordStim/S3_AU_18_axb_Step-7.wav","48","","","","","","resources/audio/wordStim/S3_AU_18_axb_Step-7.wav","S3","18","axb","7","MI","CN","S3-CN","0","0","true"
"null","","fixation","html-keyboard-response","190","568701","0.0-8.0-0.80","6024060b7e645502d5ff1f5b","condC","","<div class=""vertical-center"" style='width:60%;'><img src=""resources/images/CN_flag_100x52.jpg"" style=""width:100px;height:52px;opacity:0.35;""> <br> <br> <p style='font-weight:bold;'>Does the middle word sound more like the first word (A) or the last word (B)?</p> <br> <div class=""container""> <div id=""a-box""> <p class=""title-text"">A</h3></p> </div> <div id=""x-box""> <p class=""title-text"">X<p> </div> <div id=""b-box""> <p class=""title-text"">B</p></div> <br> <div style='float: left;padding-left:30px;'><p>Press '1' for A</p></div><div style='float: right;padding-right:30px;'><p>Press '0' for B</p> </div> </div></div>","null","","","","","","","","","","","","","","","",""
"3552","","test","audio-keyboard-response","191","572244","0.0-8.0-1.80","6024060b7e645502d5ff1f5b","condC","","resources/audio/wordStim/S3_AU_20_axb_Step-6.wav","49","","","","","","resources/audio/wordStim/S3_AU_20_axb_Step-6.wav","S3","20","axb","6","MI","CN","S3-CN","0","1","false"
"null","","fixation","html-keyboard-response","192","573249","0.0-8.0-0.81","6024060b7e645502d5ff1f5b","condC","","<div class=""vertical-center"" style='width:60%;'><img src=""resources/images/CN_flag_100x52.jpg"" style=""width:100px;height:52px;opacity:0.35;""> <br> <br> <p style='font-weight:bold;'>Does the middle word sound more like the first word (A) or the last word (B)?</p> <br> <div class=""container""> <div id=""a-box""> <p class=""title-text"">A</h3></p> </div> <div id=""x-box""> <p class=""title-text"">X<p> </div> <div id=""b-box""> <p class=""title-text"">B</p></div> <br> <div style='float: left;padding-left:30px;'><p>Press '1' for A</p></div><div style='float: right;padding-right:30px;'><p>Press '0' for B</p> </div> </div></div>","null","","","","","","","","","","","","","","","",""
"3859","","test","audio-keyboard-response","193","577105","0.0-8.0-1.81","6024060b7e645502d5ff1f5b","condC","","resources/audio/wordStim/S3_AI_22_bxa_Step-2.wav","49","","","","","","resources/audio/wordStim/S3_AI_22_bxa_Step-2.wav","S3","22","bxa","2","MI","CN","S3-CN","1","1","true"
