"rt","url","trial_role","trial_type","trial_index","time_elapsed","internal_node_id","participantId","conditionId","view_history","stimulus","key_press","button_pressed","correct_answer","correct_response","success","vowel","wordStim","speaker","sentNum","order","step","speakerIdentity","speakerGuise","guiseName","raised_answer","key_response","raised_response"
"24275.91499988921","micr.axb.consent.html","consent","external-html","0","24329","0.0-0.0","5dd55746f3b7c2503ad3eb7e","condA","","","","","","","","","","","","","","","","","","",""
"36309.30000008084","","instructions","instructions","1","60641","0.0-1.0","5dd55746f3b7c2503ad3eb7e","condA","[{""page_index"":0,""viewing_time"":19703.220000024885},{""page_index"":1,""viewing_time"":13489.769999869168},{""page_index"":2,""viewing_time"":3115.870000096038}]","","","","","","","","","","","","","","","","","",""
"null","","fixation","html-keyboard-response","2","61142","0.0-2.0-0.0-0.0","5dd55746f3b7c2503ad3eb7e","condA","","<div class=""vertical-center"" style=""font-size:60px;"">+</div>","null","","","","","","","","","","","","","","","",""
"17439.994999906048","","tonetest","audio-button-response","3","78587","0.0-2.0-0.0-1.0","5dd55746f3b7c2503ad3eb7e","condA","","../../src/audio/toneTest_4.wav","","2","1","false","","","","","","","","","","","","",""
"null","","fixation","html-keyboard-response","4","79089","0.0-2.0-0.0-0.1","5dd55746f3b7c2503ad3eb7e","condA","","<div class=""vertical-center"" style=""font-size:60px;"">+</div>","null","","","","","","","","","","","","","","","",""
"5092.4700000323355","","tonetest","audio-button-response","5","84183","0.0-2.0-0.0-1.1","5dd55746f3b7c2503ad3eb7e","condA","","../../src/audio/toneTest_6.wav","","1","0","false","","","","","","","","","","","","",""
"null","","fixation","html-keyboard-response","6","84684","0.0-2.0-0.0-0.2","5dd55746f3b7c2503ad3eb7e","condA","","<div class=""vertical-center"" style=""font-size:60px;"">+</div>","null","","","","","","","","","","","","","","","",""
"5162.999999942258","","tonetest","audio-button-response","7","89851","0.0-2.0-0.0-1.2","5dd55746f3b7c2503ad3eb7e","condA","","../../src/audio/toneTest_5.wav","","2","0","false","","","","","","","","","","","","",""
"null","","fixation","html-keyboard-response","8","90353","0.0-2.0-0.0-0.3","5dd55746f3b7c2503ad3eb7e","condA","","<div class=""vertical-center"" style=""font-size:60px;"">+</div>","null","","","","","","","","","","","","","","","",""
"5010.275000007823","","tonetest","audio-button-response","9","95367","0.0-2.0-0.0-1.3","5dd55746f3b7c2503ad3eb7e","condA","","../../src/audio/toneTest_6.wav","","1","0","false","","","","","","","","","","","","",""
"null","","fixation","html-keyboard-response","10","95868","0.0-2.0-0.0-0.4","5dd55746f3b7c2503ad3eb7e","condA","","<div class=""vertical-center"" style=""font-size:60px;"">+</div>","null","","","","","","","","","","","","","","","",""
"6601.3450000900775","","tonetest","audio-button-response","11","102474","0.0-2.0-0.0-1.4","5dd55746f3b7c2503ad3eb7e","condA","","../../src/audio/toneTest_4.wav","","1","1","true","","","","","","","","","","","","",""
"null","","fixation","html-keyboard-response","12","102976","0.0-2.0-0.0-0.5","5dd55746f3b7c2503ad3eb7e","condA","","<div class=""vertical-center"" style=""font-size:60px;"">+</div>","null","","","","","","","","","","","","","","","",""
"4503.685000119731","","tonetest","audio-button-response","13","107484","0.0-2.0-0.0-1.5","5dd55746f3b7c2503ad3eb7e","condA","","../../src/audio/toneTest_3.wav","","2","2","true","","","","","","","","","","","","",""
"11129.580000182614","","instructions","html-keyboard-response","14","118615","0.0-2.0-1.0-0.0","5dd55746f3b7c2503ad3eb7e","condA","","<div class=""vertical-center""><p><b>Your score was 2/6.</b></p><p>If you scored below 5, please ensure that you are wearing properly functioning headphones and in a quiet location free of distractions. Then, press SPACE to repeat the audio test. </p><p><i>If you scored 5 or above, press SPACE to continue to the main experiment.</i></p></div>","32","","","","","","","","","","","","","","","",""
"null","","fixation","html-keyboard-response","15","119118","0.0-2.1-0.1-0.6","5dd55746f3b7c2503ad3eb7e","condA","","<div class=""vertical-center"" style=""font-size:60px;"">+</div>","null","","","","","","","","","","","","","","","",""
"8404.199999989942","","tonetest","audio-button-response","16","127524","0.0-2.1-0.1-1.6","5dd55746f3b7c2503ad3eb7e","condA","","../../src/audio/toneTest_5.wav","","2","0","false","","","","","","","","","","","","",""
"null","","fixation","html-keyboard-response","17","128026","0.0-2.1-0.1-0.7","5dd55746f3b7c2503ad3eb7e","condA","","<div class=""vertical-center"" style=""font-size:60px;"">+</div>","null","","","","","","","","","","","","","","","",""
"4566.815000027418","","tonetest","audio-button-response","18","132596","0.0-2.1-0.1-1.7","5dd55746f3b7c2503ad3eb7e","condA","","../../src/audio/toneTest_3.wav","","2","2","true","","","","","","","","","","","","",""
"null","","fixation","html-keyboard-response","19","133098","0.0-2.1-0.1-0.8","5dd55746f3b7c2503ad3eb7e","condA","","<div class=""vertical-center"" style=""font-size:60px;"">+</div>","null","","","","","","","","","","","","","","","",""
"4560.800000093877","","tonetest","audio-button-response","20","137662","0.0-2.1-0.1-1.8","5dd55746f3b7c2503ad3eb7e","condA","","../../src/audio/toneTest_6.wav","","0","0","true","","","","","","","","","","","","",""
"null","","fixation","html-keyboard-response","21","138164","0.0-2.1-0.1-0.9","5dd55746f3b7c2503ad3eb7e","condA","","<div class=""vertical-center"" style=""font-size:60px;"">+</div>","null","","","","","","","","","","","","","","","",""
"4511.189999990165","","tonetest","audio-button-response","22","142678","0.0-2.1-0.1-1.9","5dd55746f3b7c2503ad3eb7e","condA","","../../src/audio/toneTest_4.wav","","1","1","true","","","","","","","","","","","","",""
"null","","fixation","html-keyboard-response","23","143180","0.0-2.1-0.1-0.10","5dd55746f3b7c2503ad3eb7e","condA","","<div class=""vertical-center"" style=""font-size:60px;"">+</div>","null","","","","","","","","","","","","","","","",""
"4186.495000030845","","tonetest","audio-button-response","24","147368","0.0-2.1-0.1-1.10","5dd55746f3b7c2503ad3eb7e","condA","","../../src/audio/toneTest_3.wav","","2","2","true","","","","","","","","","","","","",""
"null","","fixation","html-keyboard-response","25","147869","0.0-2.1-0.1-0.11","5dd55746f3b7c2503ad3eb7e","condA","","<div class=""vertical-center"" style=""font-size:60px;"">+</div>","null","","","","","","","","","","","","","","","",""
"4327.735000057146","","tonetest","audio-button-response","26","152200","0.0-2.1-0.1-1.11","5dd55746f3b7c2503ad3eb7e","condA","","../../src/audio/toneTest_6.wav","","0","0","true","","","","","","","","","","","","",""
"3472.0850000157952","","instructions","html-keyboard-response","27","155673","0.0-2.1-1.1-0.1","5dd55746f3b7c2503ad3eb7e","condA","","<div class=""vertical-center""><p><b>Your score was 5/6.</b></p><p>If you scored below 5, please ensure that you are wearing properly functioning headphones and in a quiet location free of distractions. Then, press SPACE to repeat the audio test. </p><p><i>If you scored 5 or above, press SPACE to continue to the main experiment.</i></p></div>","32","","","","","","","","","","","","","","","",""
"","","","fullscreen","28","158765","0.0-3.0","5dd55746f3b7c2503ad3eb7e","condA","","","","","","","true","","","","","","","","","","","",""
"457753.8999998942","","instructions","instructions","29","616522","0.0-4.0","5dd55746f3b7c2503ad3eb7e","condA","[{""page_index"":0,""viewing_time"":457753.6849998869}]","","","","","","","","","","","","","","","","","",""
"null","","fixation","html-keyboard-response","30","617024","0.0-5.0-0.0","5dd55746f3b7c2503ad3eb7e","condA","","<div class=""vertical-center"" style='width:60%;'><p style='font-weight:bold;'>Does the middle word sound more like the first word (A) or the last word (B)?</p> <br> <div class=""container""> <div id=""a-box""> <p class=""title-text"">A</h3></p> </div> <div id=""x-box""> <p class=""title-text"">X<p> </div> <div id=""b-box""> <p class=""title-text"">B</p></div> <br> <div style='float: left;padding-left:30px;'><p>Press '1' for A</p></div><div style='float: right;padding-right:30px;'><p>Press '0' for B</p> </div> </div></div>","null","","","","","","","","","","","","","","","",""
"21709","","practice","audio-keyboard-response","31","638882","0.0-5.0-1.0","5dd55746f3b7c2503ad3eb7e","condA","","resources/audio/practiceStim/S1_AI_21_axb_Step-6.wav","49","","","","","","","","","","","","","","","",""
"null","","fixation","html-keyboard-response","32","639884","0.0-5.0-0.1","5dd55746f3b7c2503ad3eb7e","condA","","<div class=""vertical-center"" style='width:60%;'><p style='font-weight:bold;'>Does the middle word sound more like the first word (A) or the last word (B)?</p> <br> <div class=""container""> <div id=""a-box""> <p class=""title-text"">A</h3></p> </div> <div id=""x-box""> <p class=""title-text"">X<p> </div> <div id=""b-box""> <p class=""title-text"">B</p></div> <br> <div style='float: left;padding-left:30px;'><p>Press '1' for A</p></div><div style='float: right;padding-right:30px;'><p>Press '0' for B</p> </div> </div></div>","null","","","","","","","","","","","","","","","",""
"8128","","practice","audio-keyboard-response","33","648018","0.0-5.0-1.1","5dd55746f3b7c2503ad3eb7e","condA","","resources/audio/practiceStim/S1_AI_21_bxa_Step-6.wav","49","","","","","","","","","","","","","","","",""
"null","","fixation","html-keyboard-response","34","649021","0.0-5.0-0.2","5dd55746f3b7c2503ad3eb7e","condA","","<div class=""vertical-center"" style='width:60%;'><p style='font-weight:bold;'>Does the middle word sound more like the first word (A) or the last word (B)?</p> <br> <div class=""container""> <div id=""a-box""> <p class=""title-text"">A</h3></p> </div> <div id=""x-box""> <p class=""title-text"">X<p> </div> <div id=""b-box""> <p class=""title-text"">B</p></div> <br> <div style='float: left;padding-left:30px;'><p>Press '1' for A</p></div><div style='float: right;padding-right:30px;'><p>Press '0' for B</p> </div> </div></div>","null","","","","","","","","","","","","","","","",""
"3811","","practice","audio-keyboard-response","35","652838","0.0-5.0-1.2","5dd55746f3b7c2503ad3eb7e","condA","","resources/audio/practiceStim/S1_AU_14_axb_Step-6.wav","49","","","","","","","","","","","","","","","",""
"null","","fixation","html-keyboard-response","36","653840","0.0-5.0-0.3","5dd55746f3b7c2503ad3eb7e","condA","","<div class=""vertical-center"" style='width:60%;'><p style='font-weight:bold;'>Does the middle word sound more like the first word (A) or the last word (B)?</p> <br> <div class=""container""> <div id=""a-box""> <p class=""title-text"">A</h3></p> </div> <div id=""x-box""> <p class=""title-text"">X<p> </div> <div id=""b-box""> <p class=""title-text"">B</p></div> <br> <div style='float: left;padding-left:30px;'><p>Press '1' for A</p></div><div style='float: right;padding-right:30px;'><p>Press '0' for B</p> </div> </div></div>","null","","","","","","","","","","","","","","","",""
"4349","","practice","audio-keyboard-response","37","658201","0.0-5.0-1.3","5dd55746f3b7c2503ad3eb7e","condA","","resources/audio/practiceStim/S1_AU_14_bxa_Step-6.wav","48","","","","","","","","","","","","","","","",""
"2503.7800001446158","","instructions","instructions","38","661207","0.0-6.0","5dd55746f3b7c2503ad3eb7e","condA","[{""page_index"":0,""viewing_time"":2503.6250001285225}]","","","","","","","","","","","","","","","","","",""
"3805.475000059232","","","html-keyboard-response","39","665023","0.0-7.0","5dd55746f3b7c2503ad3eb7e","condA","","<div class=""vertical-center""><img src=""resources/images/US_face_a.png"" style=""width:450px;height:300px;""><p>This is the speaker you're about to hear. She is from Detroit, Michigan.</p><p> <br> <i>Press SPACE to continue.</i></p></div>","32","","","","","","","","","","","","","","","",""
"null","","fixation","html-keyboard-response","40","665527","0.0-8.0-0.0","5dd55746f3b7c2503ad3eb7e","condA","","<div class=""vertical-center"" style='width:60%;'><img src=""resources/images/US_flag_100x52.jpg"" style=""width:100px;height:52px;opacity:0.35;""> <br> <br> <p style='font-weight:bold;'>Does the middle word sound more like the first word (A) or the last word (B)?</p> <br> <div class=""container""> <div id=""a-box""> <p class=""title-text"">A</h3></p> </div> <div id=""x-box""> <p class=""title-text"">X<p> </div> <div id=""b-box""> <p class=""title-text"">B</p></div> <br> <div style='float: left;padding-left:30px;'><p>Press '1' for A</p></div><div style='float: right;padding-right:30px;'><p>Press '0' for B</p> </div> </div></div>","null","","","","","","","","","","","","","","","",""
"10579","","test","audio-keyboard-response","41","676102","0.0-8.0-1.0","5dd55746f3b7c2503ad3eb7e","condA","","resources/audio/wordStim/S3_AI_22_bxa_Step-8.wav","49","","","","","","resources/audio/wordStim/S3_AI_22_bxa_Step-8.wav","S3","22","bxa","8","MI","MI","S3-MI","1","1","true"
"null","","fixation","html-keyboard-response","42","677107","0.0-8.0-0.1","5dd55746f3b7c2503ad3eb7e","condA","","<div class=""vertical-center"" style='width:60%;'><img src=""resources/images/US_flag_100x52.jpg"" style=""width:100px;height:52px;opacity:0.35;""> <br> <br> <p style='font-weight:bold;'>Does the middle word sound more like the first word (A) or the last word (B)?</p> <br> <div class=""container""> <div id=""a-box""> <p class=""title-text"">A</h3></p> </div> <div id=""x-box""> <p class=""title-text"">X<p> </div> <div id=""b-box""> <p class=""title-text"">B</p></div> <br> <div style='float: left;padding-left:30px;'><p>Press '1' for A</p></div><div style='float: right;padding-right:30px;'><p>Press '0' for B</p> </div> </div></div>","null","","","","","","","","","","","","","","","",""
"5789","","test","audio-keyboard-response","43","682900","0.0-8.0-1.1","5dd55746f3b7c2503ad3eb7e","condA","","resources/audio/wordStim/S3_AI_30_bxa_Step-4.wav","49","","","","","","resources/audio/wordStim/S3_AI_30_bxa_Step-4.wav","S3","30","bxa","4","MI","MI","S3-MI","1","1","true"
"null","","fixation","html-keyboard-response","44","683905","0.0-8.0-0.2","5dd55746f3b7c2503ad3eb7e","condA","","<div class=""vertical-center"" style='width:60%;'><img src=""resources/images/US_flag_100x52.jpg"" style=""width:100px;height:52px;opacity:0.35;""> <br> <br> <p style='font-weight:bold;'>Does the middle word sound more like the first word (A) or the last word (B)?</p> <br> <div class=""container""> <div id=""a-box""> <p class=""title-text"">A</h3></p> </div> <div id=""x-box""> <p class=""title-text"">X<p> </div> <div id=""b-box""> <p class=""title-text"">B</p></div> <br> <div style='float: left;padding-left:30px;'><p>Press '1' for A</p></div><div style='float: right;padding-right:30px;'><p>Press '0' for B</p> </div> </div></div>","null","","","","","","","","","","","","","","","",""
"4611","","test","audio-keyboard-response","45","688518","0.0-8.0-1.2","5dd55746f3b7c2503ad3eb7e","condA","","resources/audio/wordStim/S3_AU_19_axb_Step-2.wav","49","","","","","","resources/audio/wordStim/S3_AU_19_axb_Step-2.wav","S3","19","axb","2","MI","MI","S3-MI","0","1","false"
"null","","fixation","html-keyboard-response","46","689522","0.0-8.0-0.3","5dd55746f3b7c2503ad3eb7e","condA","","<div class=""vertical-center"" style='width:60%;'><img src=""resources/images/US_flag_100x52.jpg"" style=""width:100px;height:52px;opacity:0.35;""> <br> <br> <p style='font-weight:bold;'>Does the middle word sound more like the first word (A) or the last word (B)?</p> <br> <div class=""container""> <div id=""a-box""> <p class=""title-text"">A</h3></p> </div> <div id=""x-box""> <p class=""title-text"">X<p> </div> <div id=""b-box""> <p class=""title-text"">B</p></div> <br> <div style='float: left;padding-left:30px;'><p>Press '1' for A</p></div><div style='float: right;padding-right:30px;'><p>Press '0' for B</p> </div> </div></div>","null","","","","","","","","","","","","","","","",""
"5509","","test","audio-keyboard-response","47","695037","0.0-8.0-1.3","5dd55746f3b7c2503ad3eb7e","condA","","resources/audio/wordStim/S3_AU_18_bxa_Step-7.wav","49","","","","","","resources/audio/wordStim/S3_AU_18_bxa_Step-7.wav","S3","18","bxa","7","MI","MI","S3-MI","1","1","true"
"null","","fixation","html-keyboard-response","48","696041","0.0-8.0-0.4","5dd55746f3b7c2503ad3eb7e","condA","","<div class=""vertical-center"" style='width:60%;'><img src=""resources/images/US_flag_100x52.jpg"" style=""width:100px;height:52px;opacity:0.35;""> <br> <br> <p style='font-weight:bold;'>Does the middle word sound more like the first word (A) or the last word (B)?</p> <br> <div class=""container""> <div id=""a-box""> <p class=""title-text"">A</h3></p> </div> <div id=""x-box""> <p class=""title-text"">X<p> </div> <div id=""b-box""> <p class=""title-text"">B</p></div> <br> <div style='float: left;padding-left:30px;'><p>Press '1' for A</p></div><div style='float: right;padding-right:30px;'><p>Press '0' for B</p> </div> </div></div>","null","","","","","","","","","","","","","","","",""
"3848","","test","audio-keyboard-response","49","699900","0.0-8.0-1.4","5dd55746f3b7c2503ad3eb7e","condA","","resources/audio/wordStim/S3_AU_19_bxa_Step-6.wav","49","","","","","","resources/audio/wordStim/S3_AU_19_bxa_Step-6.wav","S3","19","bxa","6","MI","MI","S3-MI","1","1","true"
"null","","fixation","html-keyboard-response","50","700905","0.0-8.0-0.5","5dd55746f3b7c2503ad3eb7e","condA","","<div class=""vertical-center"" style='width:60%;'><img src=""resources/images/US_flag_100x52.jpg"" style=""width:100px;height:52px;opacity:0.35;""> <br> <br> <p style='font-weight:bold;'>Does the middle word sound more like the first word (A) or the last word (B)?</p> <br> <div class=""container""> <div id=""a-box""> <p class=""title-text"">A</h3></p> </div> <div id=""x-box""> <p class=""title-text"">X<p> </div> <div id=""b-box""> <p class=""title-text"">B</p></div> <br> <div style='float: left;padding-left:30px;'><p>Press '1' for A</p></div><div style='float: right;padding-right:30px;'><p>Press '0' for B</p> </div> </div></div>","null","","","","","","","","","","","","","","","",""
"3451","","test","audio-keyboard-response","51","704355","0.0-8.0-1.5","5dd55746f3b7c2503ad3eb7e","condA","","resources/audio/wordStim/S3_AU_19_bxa_Step-7.wav","49","","","","","","resources/audio/wordStim/S3_AU_19_bxa_Step-7.wav","S3","19","bxa","7","MI","MI","S3-MI","1","1","true"
"null","","fixation","html-keyboard-response","52","705359","0.0-8.0-0.6","5dd55746f3b7c2503ad3eb7e","condA","","<div class=""vertical-center"" style='width:60%;'><img src=""resources/images/US_flag_100x52.jpg"" style=""width:100px;height:52px;opacity:0.35;""> <br> <br> <p style='font-weight:bold;'>Does the middle word sound more like the first word (A) or the last word (B)?</p> <br> <div class=""container""> <div id=""a-box""> <p class=""title-text"">A</h3></p> </div> <div id=""x-box""> <p class=""title-text"">X<p> </div> <div id=""b-box""> <p class=""title-text"">B</p></div> <br> <div style='float: left;padding-left:30px;'><p>Press '1' for A</p></div><div style='float: right;padding-right:30px;'><p>Press '0' for B</p> </div> </div></div>","null","","","","","","","","","","","","","","","",""
"4029","","test","audio-keyboard-response","53","709391","0.0-8.0-1.6","5dd55746f3b7c2503ad3eb7e","condA","","resources/audio/wordStim/S3_AI_30_axb_Step-5.wav","49","","","","","","resources/audio/wordStim/S3_AI_30_axb_Step-5.wav","S3","30","axb","5","MI","MI","S3-MI","0","1","false"
"null","","fixation","html-keyboard-response","54","710401","0.0-8.0-0.7","5dd55746f3b7c2503ad3eb7e","condA","","<div class=""vertical-center"" style='width:60%;'><img src=""resources/images/US_flag_100x52.jpg"" style=""width:100px;height:52px;opacity:0.35;""> <br> <br> <p style='font-weight:bold;'>Does the middle word sound more like the first word (A) or the last word (B)?</p> <br> <div class=""container""> <div id=""a-box""> <p class=""title-text"">A</h3></p> </div> <div id=""x-box""> <p class=""title-text"">X<p> </div> <div id=""b-box""> <p class=""title-text"">B</p></div> <br> <div style='float: left;padding-left:30px;'><p>Press '1' for A</p></div><div style='float: right;padding-right:30px;'><p>Press '0' for B</p> </div> </div></div>","null","","","","","","","","","","","","","","","",""
"4269","","test","audio-keyboard-response","55","714680","0.0-8.0-1.7","5dd55746f3b7c2503ad3eb7e","condA","","resources/audio/wordStim/S3_AU_18_axb_Step-2.wav","49","","","","","","resources/audio/wordStim/S3_AU_18_axb_Step-2.wav","S3","18","axb","2","MI","MI","S3-MI","0","1","false"
"null","","fixation","html-keyboard-response","56","715692","0.0-8.0-0.8","5dd55746f3b7c2503ad3eb7e","condA","","<div class=""vertical-center"" style='width:60%;'><img src=""resources/images/US_flag_100x52.jpg"" style=""width:100px;height:52px;opacity:0.35;""> <br> <br> <p style='font-weight:bold;'>Does the middle word sound more like the first word (A) or the last word (B)?</p> <br> <div class=""container""> <div id=""a-box""> <p class=""title-text"">A</h3></p> </div> <div id=""x-box""> <p class=""title-text"">X<p> </div> <div id=""b-box""> <p class=""title-text"">B</p></div> <br> <div style='float: left;padding-left:30px;'><p>Press '1' for A</p></div><div style='float: right;padding-right:30px;'><p>Press '0' for B</p> </div> </div></div>","null","","","","","","","","","","","","","","","",""
"3752","","test","audio-keyboard-response","57","719450","0.0-8.0-1.8","5dd55746f3b7c2503ad3eb7e","condA","","resources/audio/wordStim/S3_AI_30_axb_Step-2.wav","49","","","","","","resources/audio/wordStim/S3_AI_30_axb_Step-2.wav","S3","30","axb","2","MI","MI","S3-MI","0","1","false"
"null","","fixation","html-keyboard-response","58","720477","0.0-8.0-0.9","5dd55746f3b7c2503ad3eb7e","condA","","<div class=""vertical-center"" style='width:60%;'><img src=""resources/images/US_flag_100x52.jpg"" style=""width:100px;height:52px;opacity:0.35;""> <br> <br> <p style='font-weight:bold;'>Does the middle word sound more like the first word (A) or the last word (B)?</p> <br> <div class=""container""> <div id=""a-box""> <p class=""title-text"">A</h3></p> </div> <div id=""x-box""> <p class=""title-text"">X<p> </div> <div id=""b-box""> <p class=""title-text"">B</p></div> <br> <div style='float: left;padding-left:30px;'><p>Press '1' for A</p></div><div style='float: right;padding-right:30px;'><p>Press '0' for B</p> </div> </div></div>","null","","","","","","","","","","","","","","","",""
"4291","","test","audio-keyboard-response","59","724768","0.0-8.0-1.9","5dd55746f3b7c2503ad3eb7e","condA","","resources/audio/wordStim/S3_AU_18_axb_Step-5.wav","48","","","","","","resources/audio/wordStim/S3_AU_18_axb_Step-5.wav","S3","18","axb","5","MI","MI","S3-MI","0","0","true"
"null","","fixation","html-keyboard-response","60","725812","0.0-8.0-0.10","5dd55746f3b7c2503ad3eb7e","condA","","<div class=""vertical-center"" style='width:60%;'><img src=""resources/images/US_flag_100x52.jpg"" style=""width:100px;height:52px;opacity:0.35;""> <br> <br> <p style='font-weight:bold;'>Does the middle word sound more like the first word (A) or the last word (B)?</p> <br> <div class=""container""> <div id=""a-box""> <p class=""title-text"">A</h3></p> </div> <div id=""x-box""> <p class=""title-text"">X<p> </div> <div id=""b-box""> <p class=""title-text"">B</p></div> <br> <div style='float: left;padding-left:30px;'><p>Press '1' for A</p></div><div style='float: right;padding-right:30px;'><p>Press '0' for B</p> </div> </div></div>","null","","","","","","","","","","","","","","","",""
"4091","","test","audio-keyboard-response","61","729912","0.0-8.0-1.10","5dd55746f3b7c2503ad3eb7e","condA","","resources/audio/wordStim/S3_AI_30_bxa_Step-7.wav","49","","","","","","resources/audio/wordStim/S3_AI_30_bxa_Step-7.wav","S3","30","bxa","7","MI","MI","S3-MI","1","1","true"
"null","","fixation","html-keyboard-response","62","730916","0.0-8.0-0.11","5dd55746f3b7c2503ad3eb7e","condA","","<div class=""vertical-center"" style='width:60%;'><img src=""resources/images/US_flag_100x52.jpg"" style=""width:100px;height:52px;opacity:0.35;""> <br> <br> <p style='font-weight:bold;'>Does the middle word sound more like the first word (A) or the last word (B)?</p> <br> <div class=""container""> <div id=""a-box""> <p class=""title-text"">A</h3></p> </div> <div id=""x-box""> <p class=""title-text"">X<p> </div> <div id=""b-box""> <p class=""title-text"">B</p></div> <br> <div style='float: left;padding-left:30px;'><p>Press '1' for A</p></div><div style='float: right;padding-right:30px;'><p>Press '0' for B</p> </div> </div></div>","null","","","","","","","","","","","","","","","",""
"3309","","test","audio-keyboard-response","63","734225","0.0-8.0-1.11","5dd55746f3b7c2503ad3eb7e","condA","","resources/audio/wordStim/S3_AI_21_axb_Step-2.wav","49","","","","","","resources/audio/wordStim/S3_AI_21_axb_Step-2.wav","S3","21","axb","2","MI","MI","S3-MI","0","1","false"
"null","","fixation","html-keyboard-response","64","735229","0.0-8.0-0.12","5dd55746f3b7c2503ad3eb7e","condA","","<div class=""vertical-center"" style='width:60%;'><img src=""resources/images/US_flag_100x52.jpg"" style=""width:100px;height:52px;opacity:0.35;""> <br> <br> <p style='font-weight:bold;'>Does the middle word sound more like the first word (A) or the last word (B)?</p> <br> <div class=""container""> <div id=""a-box""> <p class=""title-text"">A</h3></p> </div> <div id=""x-box""> <p class=""title-text"">X<p> </div> <div id=""b-box""> <p class=""title-text"">B</p></div> <br> <div style='float: left;padding-left:30px;'><p>Press '1' for A</p></div><div style='float: right;padding-right:30px;'><p>Press '0' for B</p> </div> </div></div>","null","","","","","","","","","","","","","","","",""
"3701","","test","audio-keyboard-response","65","738931","0.0-8.0-1.12","5dd55746f3b7c2503ad3eb7e","condA","","resources/audio/wordStim/S3_AI_22_bxa_Step-6.wav","49","","","","","","resources/audio/wordStim/S3_AI_22_bxa_Step-6.wav","S3","22","bxa","6","MI","MI","S3-MI","1","1","true"
"null","","fixation","html-keyboard-response","66","739959","0.0-8.0-0.13","5dd55746f3b7c2503ad3eb7e","condA","","<div class=""vertical-center"" style='width:60%;'><img src=""resources/images/US_flag_100x52.jpg"" style=""width:100px;height:52px;opacity:0.35;""> <br> <br> <p style='font-weight:bold;'>Does the middle word sound more like the first word (A) or the last word (B)?</p> <br> <div class=""container""> <div id=""a-box""> <p class=""title-text"">A</h3></p> </div> <div id=""x-box""> <p class=""title-text"">X<p> </div> <div id=""b-box""> <p class=""title-text"">B</p></div> <br> <div style='float: left;padding-left:30px;'><p>Press '1' for A</p></div><div style='float: right;padding-right:30px;'><p>Press '0' for B</p> </div> </div></div>","null","","","","","","","","","","","","","","","",""
"3040","","test","audio-keyboard-response","67","742999","0.0-8.0-1.13","5dd55746f3b7c2503ad3eb7e","condA","","resources/audio/wordStim/S3_AI_21_bxa_Step-6.wav","49","","","","","","resources/audio/wordStim/S3_AI_21_bxa_Step-6.wav","S3","21","bxa","6","MI","MI","S3-MI","1","1","true"
"null","","fixation","html-keyboard-response","68","744005","0.0-8.0-0.14","5dd55746f3b7c2503ad3eb7e","condA","","<div class=""vertical-center"" style='width:60%;'><img src=""resources/images/US_flag_100x52.jpg"" style=""width:100px;height:52px;opacity:0.35;""> <br> <br> <p style='font-weight:bold;'>Does the middle word sound more like the first word (A) or the last word (B)?</p> <br> <div class=""container""> <div id=""a-box""> <p class=""title-text"">A</h3></p> </div> <div id=""x-box""> <p class=""title-text"">X<p> </div> <div id=""b-box""> <p class=""title-text"">B</p></div> <br> <div style='float: left;padding-left:30px;'><p>Press '1' for A</p></div><div style='float: right;padding-right:30px;'><p>Press '0' for B</p> </div> </div></div>","null","","","","","","","","","","","","","","","",""
"4109","","test","audio-keyboard-response","69","748119","0.0-8.0-1.14","5dd55746f3b7c2503ad3eb7e","condA","","resources/audio/wordStim/S3_AU_18_axb_Step-4.wav","49","","","","","","resources/audio/wordStim/S3_AU_18_axb_Step-4.wav","S3","18","axb","4","MI","MI","S3-MI","0","1","false"
"null","","fixation","html-keyboard-response","70","749142","0.0-8.0-0.15","5dd55746f3b7c2503ad3eb7e","condA","","<div class=""vertical-center"" style='width:60%;'><img src=""resources/images/US_flag_100x52.jpg"" style=""width:100px;height:52px;opacity:0.35;""> <br> <br> <p style='font-weight:bold;'>Does the middle word sound more like the first word (A) or the last word (B)?</p> <br> <div class=""container""> <div id=""a-box""> <p class=""title-text"">A</h3></p> </div> <div id=""x-box""> <p class=""title-text"">X<p> </div> <div id=""b-box""> <p class=""title-text"">B</p></div> <br> <div style='float: left;padding-left:30px;'><p>Press '1' for A</p></div><div style='float: right;padding-right:30px;'><p>Press '0' for B</p> </div> </div></div>","null","","","","","","","","","","","","","","","",""
"3611","","test","audio-keyboard-response","71","752760","0.0-8.0-1.15","5dd55746f3b7c2503ad3eb7e","condA","","resources/audio/wordStim/S3_AI_30_bxa_Step-3.wav","49","","","","","","resources/audio/wordStim/S3_AI_30_bxa_Step-3.wav","S3","30","bxa","3","MI","MI","S3-MI","1","1","true"
"null","","fixation","html-keyboard-response","72","753786","0.0-8.0-0.16","5dd55746f3b7c2503ad3eb7e","condA","","<div class=""vertical-center"" style='width:60%;'><img src=""resources/images/US_flag_100x52.jpg"" style=""width:100px;height:52px;opacity:0.35;""> <br> <br> <p style='font-weight:bold;'>Does the middle word sound more like the first word (A) or the last word (B)?</p> <br> <div class=""container""> <div id=""a-box""> <p class=""title-text"">A</h3></p> </div> <div id=""x-box""> <p class=""title-text"">X<p> </div> <div id=""b-box""> <p class=""title-text"">B</p></div> <br> <div style='float: left;padding-left:30px;'><p>Press '1' for A</p></div><div style='float: right;padding-right:30px;'><p>Press '0' for B</p> </div> </div></div>","null","","","","","","","","","","","","","","","",""
"3829","","test","audio-keyboard-response","73","757621","0.0-8.0-1.16","5dd55746f3b7c2503ad3eb7e","condA","","resources/audio/wordStim/S3_AI_30_axb_Step-3.wav","48","","","","","","resources/audio/wordStim/S3_AI_30_axb_Step-3.wav","S3","30","axb","3","MI","MI","S3-MI","0","0","true"
"null","","fixation","html-keyboard-response","74","758647","0.0-8.0-0.17","5dd55746f3b7c2503ad3eb7e","condA","","<div class=""vertical-center"" style='width:60%;'><img src=""resources/images/US_flag_100x52.jpg"" style=""width:100px;height:52px;opacity:0.35;""> <br> <br> <p style='font-weight:bold;'>Does the middle word sound more like the first word (A) or the last word (B)?</p> <br> <div class=""container""> <div id=""a-box""> <p class=""title-text"">A</h3></p> </div> <div id=""x-box""> <p class=""title-text"">X<p> </div> <div id=""b-box""> <p class=""title-text"">B</p></div> <br> <div style='float: left;padding-left:30px;'><p>Press '1' for A</p></div><div style='float: right;padding-right:30px;'><p>Press '0' for B</p> </div> </div></div>","null","","","","","","","","","","","","","","","",""
"3869","","test","audio-keyboard-response","75","762514","0.0-8.0-1.17","5dd55746f3b7c2503ad3eb7e","condA","","resources/audio/wordStim/S3_AU_18_axb_Step-7.wav","48","","","","","","resources/audio/wordStim/S3_AU_18_axb_Step-7.wav","S3","18","axb","7","MI","MI","S3-MI","0","0","true"
"null","","fixation","html-keyboard-response","76","763532","0.0-8.0-0.18","5dd55746f3b7c2503ad3eb7e","condA","","<div class=""vertical-center"" style='width:60%;'><img src=""resources/images/US_flag_100x52.jpg"" style=""width:100px;height:52px;opacity:0.35;""> <br> <br> <p style='font-weight:bold;'>Does the middle word sound more like the first word (A) or the last word (B)?</p> <br> <div class=""container""> <div id=""a-box""> <p class=""title-text"">A</h3></p> </div> <div id=""x-box""> <p class=""title-text"">X<p> </div> <div id=""b-box""> <p class=""title-text"">B</p></div> <br> <div style='float: left;padding-left:30px;'><p>Press '1' for A</p></div><div style='float: right;padding-right:30px;'><p>Press '0' for B</p> </div> </div></div>","null","","","","","","","","","","","","","","","",""
"3392","","test","audio-keyboard-response","77","766926","0.0-8.0-1.18","5dd55746f3b7c2503ad3eb7e","condA","","resources/audio/wordStim/S3_AI_21_bxa_Step-4.wav","49","","","","","","resources/audio/wordStim/S3_AI_21_bxa_Step-4.wav","S3","21","bxa","4","MI","MI","S3-MI","1","1","true"
"null","","fixation","html-keyboard-response","78","767952","0.0-8.0-0.19","5dd55746f3b7c2503ad3eb7e","condA","","<div class=""vertical-center"" style='width:60%;'><img src=""resources/images/US_flag_100x52.jpg"" style=""width:100px;height:52px;opacity:0.35;""> <br> <br> <p style='font-weight:bold;'>Does the middle word sound more like the first word (A) or the last word (B)?</p> <br> <div class=""container""> <div id=""a-box""> <p class=""title-text"">A</h3></p> </div> <div id=""x-box""> <p class=""title-text"">X<p> </div> <div id=""b-box""> <p class=""title-text"">B</p></div> <br> <div style='float: left;padding-left:30px;'><p>Press '1' for A</p></div><div style='float: right;padding-right:30px;'><p>Press '0' for B</p> </div> </div></div>","null","","","","","","","","","","","","","","","",""
"3989","","test","audio-keyboard-response","79","771950","0.0-8.0-1.19","5dd55746f3b7c2503ad3eb7e","condA","","resources/audio/wordStim/S3_AI_22_axb_Step-6.wav","49","","","","","","resources/audio/wordStim/S3_AI_22_axb_Step-6.wav","S3","22","axb","6","MI","MI","S3-MI","0","1","false"
"null","","fixation","html-keyboard-response","80","772962","0.0-8.0-0.20","5dd55746f3b7c2503ad3eb7e","condA","","<div class=""vertical-center"" style='width:60%;'><img src=""resources/images/US_flag_100x52.jpg"" style=""width:100px;height:52px;opacity:0.35;""> <br> <br> <p style='font-weight:bold;'>Does the middle word sound more like the first word (A) or the last word (B)?</p> <br> <div class=""container""> <div id=""a-box""> <p class=""title-text"">A</h3></p> </div> <div id=""x-box""> <p class=""title-text"">X<p> </div> <div id=""b-box""> <p class=""title-text"">B</p></div> <br> <div style='float: left;padding-left:30px;'><p>Press '1' for A</p></div><div style='float: right;padding-right:30px;'><p>Press '0' for B</p> </div> </div></div>","null","","","","","","","","","","","","","","","",""
"3928","","test","audio-keyboard-response","81","776902","0.0-8.0-1.20","5dd55746f3b7c2503ad3eb7e","condA","","resources/audio/wordStim/S3_AI_30_axb_Step-4.wav","49","","","","","","resources/audio/wordStim/S3_AI_30_axb_Step-4.wav","S3","30","axb","4","MI","MI","S3-MI","0","1","false"
"2591.814999934286","","break","html-keyboard-response","82","780014","0.0-8.0-2.20-0.20","5dd55746f3b7c2503ad3eb7e","condA","","<div class=""vertical-center""><p>Feel free to take a break!</p><i>When you're ready to continue, press SPACE to begin the next trial.</i></p></div>","32","","","","","","","","","","","","","","","",""
"null","","fixation","html-keyboard-response","83","780516","0.0-8.0-0.21","5dd55746f3b7c2503ad3eb7e","condA","","<div class=""vertical-center"" style='width:60%;'><img src=""resources/images/US_flag_100x52.jpg"" style=""width:100px;height:52px;opacity:0.35;""> <br> <br> <p style='font-weight:bold;'>Does the middle word sound more like the first word (A) or the last word (B)?</p> <br> <div class=""container""> <div id=""a-box""> <p class=""title-text"">A</h3></p> </div> <div id=""x-box""> <p class=""title-text"">X<p> </div> <div id=""b-box""> <p class=""title-text"">B</p></div> <br> <div style='float: left;padding-left:30px;'><p>Press '1' for A</p></div><div style='float: right;padding-right:30px;'><p>Press '0' for B</p> </div> </div></div>","null","","","","","","","","","","","","","","","",""
"3899","","test","audio-keyboard-response","84","784422","0.0-8.0-1.21","5dd55746f3b7c2503ad3eb7e","condA","","resources/audio/wordStim/S3_AI_22_bxa_Step-3.wav","49","","","","","","resources/audio/wordStim/S3_AI_22_bxa_Step-3.wav","S3","22","bxa","3","MI","MI","S3-MI","1","1","true"
"null","","fixation","html-keyboard-response","85","785431","0.0-8.0-0.22","5dd55746f3b7c2503ad3eb7e","condA","","<div class=""vertical-center"" style='width:60%;'><img src=""resources/images/US_flag_100x52.jpg"" style=""width:100px;height:52px;opacity:0.35;""> <br> <br> <p style='font-weight:bold;'>Does the middle word sound more like the first word (A) or the last word (B)?</p> <br> <div class=""container""> <div id=""a-box""> <p class=""title-text"">A</h3></p> </div> <div id=""x-box""> <p class=""title-text"">X<p> </div> <div id=""b-box""> <p class=""title-text"">B</p></div> <br> <div style='float: left;padding-left:30px;'><p>Press '1' for A</p></div><div style='float: right;padding-right:30px;'><p>Press '0' for B</p> </div> </div></div>","null","","","","","","","","","","","","","","","",""
"3691","","test","audio-keyboard-response","86","789125","0.0-8.0-1.22","5dd55746f3b7c2503ad3eb7e","condA","","resources/audio/wordStim/S3_AI_30_axb_Step-7.wav","49","","","","","","resources/audio/wordStim/S3_AI_30_axb_Step-7.wav","S3","30","axb","7","MI","MI","S3-MI","0","1","false"
"null","","fixation","html-keyboard-response","87","790133","0.0-8.0-0.23","5dd55746f3b7c2503ad3eb7e","condA","","<div class=""vertical-center"" style='width:60%;'><img src=""resources/images/US_flag_100x52.jpg"" style=""width:100px;height:52px;opacity:0.35;""> <br> <br> <p style='font-weight:bold;'>Does the middle word sound more like the first word (A) or the last word (B)?</p> <br> <div class=""container""> <div id=""a-box""> <p class=""title-text"">A</h3></p> </div> <div id=""x-box""> <p class=""title-text"">X<p> </div> <div id=""b-box""> <p class=""title-text"">B</p></div> <br> <div style='float: left;padding-left:30px;'><p>Press '1' for A</p></div><div style='float: right;padding-right:30px;'><p>Press '0' for B</p> </div> </div></div>","null","","","","","","","","","","","","","","","",""
"3541","","test","audio-keyboard-response","88","793680","0.0-8.0-1.23","5dd55746f3b7c2503ad3eb7e","condA","","resources/audio/wordStim/S3_AU_20_bxa_Step-7.wav","49","","","","","","resources/audio/wordStim/S3_AU_20_bxa_Step-7.wav","S3","20","bxa","7","MI","MI","S3-MI","1","1","true"
"null","","fixation","html-keyboard-response","89","794693","0.0-8.0-0.24","5dd55746f3b7c2503ad3eb7e","condA","","<div class=""vertical-center"" style='width:60%;'><img src=""resources/images/US_flag_100x52.jpg"" style=""width:100px;height:52px;opacity:0.35;""> <br> <br> <p style='font-weight:bold;'>Does the middle word sound more like the first word (A) or the last word (B)?</p> <br> <div class=""container""> <div id=""a-box""> <p class=""title-text"">A</h3></p> </div> <div id=""x-box""> <p class=""title-text"">X<p> </div> <div id=""b-box""> <p class=""title-text"">B</p></div> <br> <div style='float: left;padding-left:30px;'><p>Press '1' for A</p></div><div style='float: right;padding-right:30px;'><p>Press '0' for B</p> </div> </div></div>","null","","","","","","","","","","","","","","","",""
"3331","","test","audio-keyboard-response","90","798027","0.0-8.0-1.24","5dd55746f3b7c2503ad3eb7e","condA","","resources/audio/wordStim/S3_AU_20_axb_Step-6.wav","49","","","","","","resources/audio/wordStim/S3_AU_20_axb_Step-6.wav","S3","20","axb","6","MI","MI","S3-MI","0","1","false"
"null","","fixation","html-keyboard-response","91","799041","0.0-8.0-0.25","5dd55746f3b7c2503ad3eb7e","condA","","<div class=""vertical-center"" style='width:60%;'><img src=""resources/images/US_flag_100x52.jpg"" style=""width:100px;height:52px;opacity:0.35;""> <br> <br> <p style='font-weight:bold;'>Does the middle word sound more like the first word (A) or the last word (B)?</p> <br> <div class=""container""> <div id=""a-box""> <p class=""title-text"">A</h3></p> </div> <div id=""x-box""> <p class=""title-text"">X<p> </div> <div id=""b-box""> <p class=""title-text"">B</p></div> <br> <div style='float: left;padding-left:30px;'><p>Press '1' for A</p></div><div style='float: right;padding-right:30px;'><p>Press '0' for B</p> </div> </div></div>","null","","","","","","","","","","","","","","","",""
"2808","","test","audio-keyboard-response","92","801859","0.0-8.0-1.25","5dd55746f3b7c2503ad3eb7e","condA","","resources/audio/wordStim/S3_AI_21_axb_Step-5.wav","49","","","","","","resources/audio/wordStim/S3_AI_21_axb_Step-5.wav","S3","21","axb","5","MI","MI","S3-MI","0","1","false"
"null","","fixation","html-keyboard-response","93","802881","0.0-8.0-0.26","5dd55746f3b7c2503ad3eb7e","condA","","<div class=""vertical-center"" style='width:60%;'><img src=""resources/images/US_flag_100x52.jpg"" style=""width:100px;height:52px;opacity:0.35;""> <br> <br> <p style='font-weight:bold;'>Does the middle word sound more like the first word (A) or the last word (B)?</p> <br> <div class=""container""> <div id=""a-box""> <p class=""title-text"">A</h3></p> </div> <div id=""x-box""> <p class=""title-text"">X<p> </div> <div id=""b-box""> <p class=""title-text"">B</p></div> <br> <div style='float: left;padding-left:30px;'><p>Press '1' for A</p></div><div style='float: right;padding-right:30px;'><p>Press '0' for B</p> </div> </div></div>","null","","","","","","","","","","","","","","","",""
"4248","","test","audio-keyboard-response","94","807141","0.0-8.0-1.26","5dd55746f3b7c2503ad3eb7e","condA","","resources/audio/wordStim/S3_AU_18_axb_Step-3.wav","49","","","","","","resources/audio/wordStim/S3_AU_18_axb_Step-3.wav","S3","18","axb","3","MI","MI","S3-MI","0","1","false"
"null","","fixation","html-keyboard-response","95","808161","0.0-8.0-0.27","5dd55746f3b7c2503ad3eb7e","condA","","<div class=""vertical-center"" style='width:60%;'><img src=""resources/images/US_flag_100x52.jpg"" style=""width:100px;height:52px;opacity:0.35;""> <br> <br> <p style='font-weight:bold;'>Does the middle word sound more like the first word (A) or the last word (B)?</p> <br> <div class=""container""> <div id=""a-box""> <p class=""title-text"">A</h3></p> </div> <div id=""x-box""> <p class=""title-text"">X<p> </div> <div id=""b-box""> <p class=""title-text"">B</p></div> <br> <div style='float: left;padding-left:30px;'><p>Press '1' for A</p></div><div style='float: right;padding-right:30px;'><p>Press '0' for B</p> </div> </div></div>","null","","","","","","","","","","","","","","","",""
"4240","","test","audio-keyboard-response","96","812404","0.0-8.0-1.27","5dd55746f3b7c2503ad3eb7e","condA","","resources/audio/wordStim/S3_AU_20_axb_Step-8.wav","48","","","","","","resources/audio/wordStim/S3_AU_20_axb_Step-8.wav","S3","20","axb","8","MI","MI","S3-MI","0","0","true"
"null","","fixation","html-keyboard-response","97","813431","0.0-8.0-0.28","5dd55746f3b7c2503ad3eb7e","condA","","<div class=""vertical-center"" style='width:60%;'><img src=""resources/images/US_flag_100x52.jpg"" style=""width:100px;height:52px;opacity:0.35;""> <br> <br> <p style='font-weight:bold;'>Does the middle word sound more like the first word (A) or the last word (B)?</p> <br> <div class=""container""> <div id=""a-box""> <p class=""title-text"">A</h3></p> </div> <div id=""x-box""> <p class=""title-text"">X<p> </div> <div id=""b-box""> <p class=""title-text"">B</p></div> <br> <div style='float: left;padding-left:30px;'><p>Press '1' for A</p></div><div style='float: right;padding-right:30px;'><p>Press '0' for B</p> </div> </div></div>","null","","","","","","","","","","","","","","","",""
"3560","","test","audio-keyboard-response","98","816997","0.0-8.0-1.28","5dd55746f3b7c2503ad3eb7e","condA","","resources/audio/wordStim/S3_AI_30_bxa_Step-2.wav","48","","","","","","resources/audio/wordStim/S3_AI_30_bxa_Step-2.wav","S3","30","bxa","2","MI","MI","S3-MI","1","0","false"
"null","","fixation","html-keyboard-response","99","818013","0.0-8.0-0.29","5dd55746f3b7c2503ad3eb7e","condA","","<div class=""vertical-center"" style='width:60%;'><img src=""resources/images/US_flag_100x52.jpg"" style=""width:100px;height:52px;opacity:0.35;""> <br> <br> <p style='font-weight:bold;'>Does the middle word sound more like the first word (A) or the last word (B)?</p> <br> <div class=""container""> <div id=""a-box""> <p class=""title-text"">A</h3></p> </div> <div id=""x-box""> <p class=""title-text"">X<p> </div> <div id=""b-box""> <p class=""title-text"">B</p></div> <br> <div style='float: left;padding-left:30px;'><p>Press '1' for A</p></div><div style='float: right;padding-right:30px;'><p>Press '0' for B</p> </div> </div></div>","null","","","","","","","","","","","","","","","",""
"3120","","test","audio-keyboard-response","100","821133","0.0-8.0-1.29","5dd55746f3b7c2503ad3eb7e","condA","","resources/audio/wordStim/S3_AI_21_bxa_Step-8.wav","49","","","","","","resources/audio/wordStim/S3_AI_21_bxa_Step-8.wav","S3","21","bxa","8","MI","MI","S3-MI","1","1","true"
"null","","fixation","html-keyboard-response","101","822172","0.0-8.0-0.30","5dd55746f3b7c2503ad3eb7e","condA","","<div class=""vertical-center"" style='width:60%;'><img src=""resources/images/US_flag_100x52.jpg"" style=""width:100px;height:52px;opacity:0.35;""> <br> <br> <p style='font-weight:bold;'>Does the middle word sound more like the first word (A) or the last word (B)?</p> <br> <div class=""container""> <div id=""a-box""> <p class=""title-text"">A</h3></p> </div> <div id=""x-box""> <p class=""title-text"">X<p> </div> <div id=""b-box""> <p class=""title-text"">B</p></div> <br> <div style='float: left;padding-left:30px;'><p>Press '1' for A</p></div><div style='float: right;padding-right:30px;'><p>Press '0' for B</p> </div> </div></div>","null","","","","","","","","","","","","","","","",""
"4251","","test","audio-keyboard-response","102","826432","0.0-8.0-1.30","5dd55746f3b7c2503ad3eb7e","condA","","resources/audio/wordStim/S3_AU_18_bxa_Step-3.wav","49","","","","","","resources/audio/wordStim/S3_AU_18_bxa_Step-3.wav","S3","18","bxa","3","MI","MI","S3-MI","1","1","true"
"null","","fixation","html-keyboard-response","103","827471","0.0-8.0-0.31","5dd55746f3b7c2503ad3eb7e","condA","","<div class=""vertical-center"" style='width:60%;'><img src=""resources/images/US_flag_100x52.jpg"" style=""width:100px;height:52px;opacity:0.35;""> <br> <br> <p style='font-weight:bold;'>Does the middle word sound more like the first word (A) or the last word (B)?</p> <br> <div class=""container""> <div id=""a-box""> <p class=""title-text"">A</h3></p> </div> <div id=""x-box""> <p class=""title-text"">X<p> </div> <div id=""b-box""> <p class=""title-text"">B</p></div> <br> <div style='float: left;padding-left:30px;'><p>Press '1' for A</p></div><div style='float: right;padding-right:30px;'><p>Press '0' for B</p> </div> </div></div>","null","","","","","","","","","","","","","","","",""
"3869","","test","audio-keyboard-response","104","831342","0.0-8.0-1.31","5dd55746f3b7c2503ad3eb7e","condA","","resources/audio/wordStim/S3_AI_22_axb_Step-2.wav","49","","","","","","resources/audio/wordStim/S3_AI_22_axb_Step-2.wav","S3","22","axb","2","MI","MI","S3-MI","0","1","false"
"null","","fixation","html-keyboard-response","105","832372","0.0-8.0-0.32","5dd55746f3b7c2503ad3eb7e","condA","","<div class=""vertical-center"" style='width:60%;'><img src=""resources/images/US_flag_100x52.jpg"" style=""width:100px;height:52px;opacity:0.35;""> <br> <br> <p style='font-weight:bold;'>Does the middle word sound more like the first word (A) or the last word (B)?</p> <br> <div class=""container""> <div id=""a-box""> <p class=""title-text"">A</h3></p> </div> <div id=""x-box""> <p class=""title-text"">X<p> </div> <div id=""b-box""> <p class=""title-text"">B</p></div> <br> <div style='float: left;padding-left:30px;'><p>Press '1' for A</p></div><div style='float: right;padding-right:30px;'><p>Press '0' for B</p> </div> </div></div>","null","","","","","","","","","","","","","","","",""
"3501","","test","audio-keyboard-response","106","835876","0.0-8.0-1.32","5dd55746f3b7c2503ad3eb7e","condA","","resources/audio/wordStim/S3_AU_19_axb_Step-7.wav","49","","","","","","resources/audio/wordStim/S3_AU_19_axb_Step-7.wav","S3","19","axb","7","MI","MI","S3-MI","0","1","false"
"null","","fixation","html-keyboard-response","107","836883","0.0-8.0-0.33","5dd55746f3b7c2503ad3eb7e","condA","","<div class=""vertical-center"" style='width:60%;'><img src=""resources/images/US_flag_100x52.jpg"" style=""width:100px;height:52px;opacity:0.35;""> <br> <br> <p style='font-weight:bold;'>Does the middle word sound more like the first word (A) or the last word (B)?</p> <br> <div class=""container""> <div id=""a-box""> <p class=""title-text"">A</h3></p> </div> <div id=""x-box""> <p class=""title-text"">X<p> </div> <div id=""b-box""> <p class=""title-text"">B</p></div> <br> <div style='float: left;padding-left:30px;'><p>Press '1' for A</p></div><div style='float: right;padding-right:30px;'><p>Press '0' for B</p> </div> </div></div>","null","","","","","","","","","","","","","","","",""
"3880","","test","audio-keyboard-response","108","840763","0.0-8.0-1.33","5dd55746f3b7c2503ad3eb7e","condA","","resources/audio/wordStim/S3_AU_18_axb_Step-8.wav","48","","","","","","resources/audio/wordStim/S3_AU_18_axb_Step-8.wav","S3","18","axb","8","MI","MI","S3-MI","0","0","true"
"null","","fixation","html-keyboard-response","109","841772","0.0-8.0-0.34","5dd55746f3b7c2503ad3eb7e","condA","","<div class=""vertical-center"" style='width:60%;'><img src=""resources/images/US_flag_100x52.jpg"" style=""width:100px;height:52px;opacity:0.35;""> <br> <br> <p style='font-weight:bold;'>Does the middle word sound more like the first word (A) or the last word (B)?</p> <br> <div class=""container""> <div id=""a-box""> <p class=""title-text"">A</h3></p> </div> <div id=""x-box""> <p class=""title-text"">X<p> </div> <div id=""b-box""> <p class=""title-text"">B</p></div> <br> <div style='float: left;padding-left:30px;'><p>Press '1' for A</p></div><div style='float: right;padding-right:30px;'><p>Press '0' for B</p> </div> </div></div>","null","","","","","","","","","","","","","","","",""
"3581","","test","audio-keyboard-response","110","845354","0.0-8.0-1.34","5dd55746f3b7c2503ad3eb7e","condA","","resources/audio/wordStim/S3_AU_20_bxa_Step-2.wav","49","","","","","","resources/audio/wordStim/S3_AU_20_bxa_Step-2.wav","S3","20","bxa","2","MI","MI","S3-MI","1","1","true"
"null","","fixation","html-keyboard-response","111","846392","0.0-8.0-0.35","5dd55746f3b7c2503ad3eb7e","condA","","<div class=""vertical-center"" style='width:60%;'><img src=""resources/images/US_flag_100x52.jpg"" style=""width:100px;height:52px;opacity:0.35;""> <br> <br> <p style='font-weight:bold;'>Does the middle word sound more like the first word (A) or the last word (B)?</p> <br> <div class=""container""> <div id=""a-box""> <p class=""title-text"">A</h3></p> </div> <div id=""x-box""> <p class=""title-text"">X<p> </div> <div id=""b-box""> <p class=""title-text"">B</p></div> <br> <div style='float: left;padding-left:30px;'><p>Press '1' for A</p></div><div style='float: right;padding-right:30px;'><p>Press '0' for B</p> </div> </div></div>","null","","","","","","","","","","","","","","","",""
"3851","","test","audio-keyboard-response","112","850250","0.0-8.0-1.35","5dd55746f3b7c2503ad3eb7e","condA","","resources/audio/wordStim/S3_AU_18_bxa_Step-8.wav","48","","","","","","resources/audio/wordStim/S3_AU_18_bxa_Step-8.wav","S3","18","bxa","8","MI","MI","S3-MI","1","0","false"
"null","","fixation","html-keyboard-response","113","851255","0.0-8.0-0.36","5dd55746f3b7c2503ad3eb7e","condA","","<div class=""vertical-center"" style='width:60%;'><img src=""resources/images/US_flag_100x52.jpg"" style=""width:100px;height:52px;opacity:0.35;""> <br> <br> <p style='font-weight:bold;'>Does the middle word sound more like the first word (A) or the last word (B)?</p> <br> <div class=""container""> <div id=""a-box""> <p class=""title-text"">A</h3></p> </div> <div id=""x-box""> <p class=""title-text"">X<p> </div> <div id=""b-box""> <p class=""title-text"">B</p></div> <br> <div style='float: left;padding-left:30px;'><p>Press '1' for A</p></div><div style='float: right;padding-right:30px;'><p>Press '0' for B</p> </div> </div></div>","null","","","","","","","","","","","","","","","",""
"3512","","test","audio-keyboard-response","114","854769","0.0-8.0-1.36","5dd55746f3b7c2503ad3eb7e","condA","","resources/audio/wordStim/S3_AI_21_axb_Step-8.wav","48","","","","","","resources/audio/wordStim/S3_AI_21_axb_Step-8.wav","S3","21","axb","8","MI","MI","S3-MI","0","0","true"
"null","","fixation","html-keyboard-response","115","855774","0.0-8.0-0.37","5dd55746f3b7c2503ad3eb7e","condA","","<div class=""vertical-center"" style='width:60%;'><img src=""resources/images/US_flag_100x52.jpg"" style=""width:100px;height:52px;opacity:0.35;""> <br> <br> <p style='font-weight:bold;'>Does the middle word sound more like the first word (A) or the last word (B)?</p> <br> <div class=""container""> <div id=""a-box""> <p class=""title-text"">A</h3></p> </div> <div id=""x-box""> <p class=""title-text"">X<p> </div> <div id=""b-box""> <p class=""title-text"">B</p></div> <br> <div style='float: left;padding-left:30px;'><p>Press '1' for A</p></div><div style='float: right;padding-right:30px;'><p>Press '0' for B</p> </div> </div></div>","null","","","","","","","","","","","","","","","",""
"4371","","test","audio-keyboard-response","116","860151","0.0-8.0-1.37","5dd55746f3b7c2503ad3eb7e","condA","","resources/audio/wordStim/S3_AI_21_bxa_Step-5.wav","49","","","","","","resources/audio/wordStim/S3_AI_21_bxa_Step-5.wav","S3","21","bxa","5","MI","MI","S3-MI","1","1","true"
"null","","fixation","html-keyboard-response","117","861155","0.0-8.0-0.38","5dd55746f3b7c2503ad3eb7e","condA","","<div class=""vertical-center"" style='width:60%;'><img src=""resources/images/US_flag_100x52.jpg"" style=""width:100px;height:52px;opacity:0.35;""> <br> <br> <p style='font-weight:bold;'>Does the middle word sound more like the first word (A) or the last word (B)?</p> <br> <div class=""container""> <div id=""a-box""> <p class=""title-text"">A</h3></p> </div> <div id=""x-box""> <p class=""title-text"">X<p> </div> <div id=""b-box""> <p class=""title-text"">B</p></div> <br> <div style='float: left;padding-left:30px;'><p>Press '1' for A</p></div><div style='float: right;padding-right:30px;'><p>Press '0' for B</p> </div> </div></div>","null","","","","","","","","","","","","","","","",""
"4320","","test","audio-keyboard-response","118","865476","0.0-8.0-1.38","5dd55746f3b7c2503ad3eb7e","condA","","resources/audio/wordStim/S3_AI_21_bxa_Step-3.wav","49","","","","","","resources/audio/wordStim/S3_AI_21_bxa_Step-3.wav","S3","21","bxa","3","MI","MI","S3-MI","1","1","true"
"null","","fixation","html-keyboard-response","119","866482","0.0-8.0-0.39","5dd55746f3b7c2503ad3eb7e","condA","","<div class=""vertical-center"" style='width:60%;'><img src=""resources/images/US_flag_100x52.jpg"" style=""width:100px;height:52px;opacity:0.35;""> <br> <br> <p style='font-weight:bold;'>Does the middle word sound more like the first word (A) or the last word (B)?</p> <br> <div class=""container""> <div id=""a-box""> <p class=""title-text"">A</h3></p> </div> <div id=""x-box""> <p class=""title-text"">X<p> </div> <div id=""b-box""> <p class=""title-text"">B</p></div> <br> <div style='float: left;padding-left:30px;'><p>Press '1' for A</p></div><div style='float: right;padding-right:30px;'><p>Press '0' for B</p> </div> </div></div>","null","","","","","","","","","","","","","","","",""
"3808","","test","audio-keyboard-response","120","870300","0.0-8.0-1.39","5dd55746f3b7c2503ad3eb7e","condA","","resources/audio/wordStim/S3_AU_19_bxa_Step-5.wav","48","","","","","","resources/audio/wordStim/S3_AU_19_bxa_Step-5.wav","S3","19","bxa","5","MI","MI","S3-MI","1","0","false"
"null","","fixation","html-keyboard-response","121","871305","0.0-8.0-0.40","5dd55746f3b7c2503ad3eb7e","condA","","<div class=""vertical-center"" style='width:60%;'><img src=""resources/images/US_flag_100x52.jpg"" style=""width:100px;height:52px;opacity:0.35;""> <br> <br> <p style='font-weight:bold;'>Does the middle word sound more like the first word (A) or the last word (B)?</p> <br> <div class=""container""> <div id=""a-box""> <p class=""title-text"">A</h3></p> </div> <div id=""x-box""> <p class=""title-text"">X<p> </div> <div id=""b-box""> <p class=""title-text"">B</p></div> <br> <div style='float: left;padding-left:30px;'><p>Press '1' for A</p></div><div style='float: right;padding-right:30px;'><p>Press '0' for B</p> </div> </div></div>","null","","","","","","","","","","","","","","","",""
"3960","","test","audio-keyboard-response","122","875268","0.0-8.0-1.40","5dd55746f3b7c2503ad3eb7e","condA","","resources/audio/wordStim/S3_AU_20_axb_Step-5.wav","48","","","","","","resources/audio/wordStim/S3_AU_20_axb_Step-5.wav","S3","20","axb","5","MI","MI","S3-MI","0","0","true"
"null","","fixation","html-keyboard-response","123","876272","0.0-8.0-0.41","5dd55746f3b7c2503ad3eb7e","condA","","<div class=""vertical-center"" style='width:60%;'><img src=""resources/images/US_flag_100x52.jpg"" style=""width:100px;height:52px;opacity:0.35;""> <br> <br> <p style='font-weight:bold;'>Does the middle word sound more like the first word (A) or the last word (B)?</p> <br> <div class=""container""> <div id=""a-box""> <p class=""title-text"">A</h3></p> </div> <div id=""x-box""> <p class=""title-text"">X<p> </div> <div id=""b-box""> <p class=""title-text"">B</p></div> <br> <div style='float: left;padding-left:30px;'><p>Press '1' for A</p></div><div style='float: right;padding-right:30px;'><p>Press '0' for B</p> </div> </div></div>","null","","","","","","","","","","","","","","","",""
"3171","","test","audio-keyboard-response","124","879445","0.0-8.0-1.41","5dd55746f3b7c2503ad3eb7e","condA","","resources/audio/wordStim/S3_AU_19_bxa_Step-4.wav","48","","","","","","resources/audio/wordStim/S3_AU_19_bxa_Step-4.wav","S3","19","bxa","4","MI","MI","S3-MI","1","0","false"
"1190438.3900000248","","break","html-keyboard-response","125","2070386","0.0-8.0-2.41-0.41","5dd55746f3b7c2503ad3eb7e","condA","","<div class=""vertical-center""><p>Feel free to take a break!</p><i>When you're ready to continue, press SPACE to begin the next trial.</i></p></div>","32","","","","","","","","","","","","","","","",""
"null","","fixation","html-keyboard-response","126","2070888","0.0-8.0-0.42","5dd55746f3b7c2503ad3eb7e","condA","","<div class=""vertical-center"" style='width:60%;'><img src=""resources/images/US_flag_100x52.jpg"" style=""width:100px;height:52px;opacity:0.35;""> <br> <br> <p style='font-weight:bold;'>Does the middle word sound more like the first word (A) or the last word (B)?</p> <br> <div class=""container""> <div id=""a-box""> <p class=""title-text"">A</h3></p> </div> <div id=""x-box""> <p class=""title-text"">X<p> </div> <div id=""b-box""> <p class=""title-text"">B</p></div> <br> <div style='float: left;padding-left:30px;'><p>Press '1' for A</p></div><div style='float: right;padding-right:30px;'><p>Press '0' for B</p> </div> </div></div>","null","","","","","","","","","","","","","","","",""
"6661","","test","audio-keyboard-response","127","2077714","0.0-8.0-1.42","5dd55746f3b7c2503ad3eb7e","condA","","resources/audio/wordStim/S3_AU_19_axb_Step-3.wav","49","","","","","","resources/audio/wordStim/S3_AU_19_axb_Step-3.wav","S3","19","axb","3","MI","MI","S3-MI","0","1","false"
"null","","fixation","html-keyboard-response","128","2078720","0.0-8.0-0.43","5dd55746f3b7c2503ad3eb7e","condA","","<div class=""vertical-center"" style='width:60%;'><img src=""resources/images/US_flag_100x52.jpg"" style=""width:100px;height:52px;opacity:0.35;""> <br> <br> <p style='font-weight:bold;'>Does the middle word sound more like the first word (A) or the last word (B)?</p> <br> <div class=""container""> <div id=""a-box""> <p class=""title-text"">A</h3></p> </div> <div id=""x-box""> <p class=""title-text"">X<p> </div> <div id=""b-box""> <p class=""title-text"">B</p></div> <br> <div style='float: left;padding-left:30px;'><p>Press '1' for A</p></div><div style='float: right;padding-right:30px;'><p>Press '0' for B</p> </div> </div></div>","null","","","","","","","","","","","","","","","",""
"3952","","test","audio-keyboard-response","129","2082671","0.0-8.0-1.43","5dd55746f3b7c2503ad3eb7e","condA","","resources/audio/wordStim/S3_AI_22_axb_Step-8.wav","48","","","","","","resources/audio/wordStim/S3_AI_22_axb_Step-8.wav","S3","22","axb","8","MI","MI","S3-MI","0","0","true"
"null","","fixation","html-keyboard-response","130","2083676","0.0-8.0-0.44","5dd55746f3b7c2503ad3eb7e","condA","","<div class=""vertical-center"" style='width:60%;'><img src=""resources/images/US_flag_100x52.jpg"" style=""width:100px;height:52px;opacity:0.35;""> <br> <br> <p style='font-weight:bold;'>Does the middle word sound more like the first word (A) or the last word (B)?</p> <br> <div class=""container""> <div id=""a-box""> <p class=""title-text"">A</h3></p> </div> <div id=""x-box""> <p class=""title-text"">X<p> </div> <div id=""b-box""> <p class=""title-text"">B</p></div> <br> <div style='float: left;padding-left:30px;'><p>Press '1' for A</p></div><div style='float: right;padding-right:30px;'><p>Press '0' for B</p> </div> </div></div>","null","","","","","","","","","","","","","","","",""
"3480","","test","audio-keyboard-response","131","2087163","0.0-8.0-1.44","5dd55746f3b7c2503ad3eb7e","condA","","resources/audio/wordStim/S3_AI_22_bxa_Step-2.wav","48","","","","","","resources/audio/wordStim/S3_AI_22_bxa_Step-2.wav","S3","22","bxa","2","MI","MI","S3-MI","1","0","false"
"null","","fixation","html-keyboard-response","132","2088167","0.0-8.0-0.45","5dd55746f3b7c2503ad3eb7e","condA","","<div class=""vertical-center"" style='width:60%;'><img src=""resources/images/US_flag_100x52.jpg"" style=""width:100px;height:52px;opacity:0.35;""> <br> <br> <p style='font-weight:bold;'>Does the middle word sound more like the first word (A) or the last word (B)?</p> <br> <div class=""container""> <div id=""a-box""> <p class=""title-text"">A</h3></p> </div> <div id=""x-box""> <p class=""title-text"">X<p> </div> <div id=""b-box""> <p class=""title-text"">B</p></div> <br> <div style='float: left;padding-left:30px;'><p>Press '1' for A</p></div><div style='float: right;padding-right:30px;'><p>Press '0' for B</p> </div> </div></div>","null","","","","","","","","","","","","","","","",""
"3389","","test","audio-keyboard-response","133","2091561","0.0-8.0-1.45","5dd55746f3b7c2503ad3eb7e","condA","","resources/audio/wordStim/S3_AI_22_axb_Step-4.wav","49","","","","","","resources/audio/wordStim/S3_AI_22_axb_Step-4.wav","S3","22","axb","4","MI","MI","S3-MI","0","1","false"
"null","","fixation","html-keyboard-response","134","2092564","0.0-8.0-0.46","5dd55746f3b7c2503ad3eb7e","condA","","<div class=""vertical-center"" style='width:60%;'><img src=""resources/images/US_flag_100x52.jpg"" style=""width:100px;height:52px;opacity:0.35;""> <br> <br> <p style='font-weight:bold;'>Does the middle word sound more like the first word (A) or the last word (B)?</p> <br> <div class=""container""> <div id=""a-box""> <p class=""title-text"">A</h3></p> </div> <div id=""x-box""> <p class=""title-text"">X<p> </div> <div id=""b-box""> <p class=""title-text"">B</p></div> <br> <div style='float: left;padding-left:30px;'><p>Press '1' for A</p></div><div style='float: right;padding-right:30px;'><p>Press '0' for B</p> </div> </div></div>","null","","","","","","","","","","","","","","","",""
"3771","","test","audio-keyboard-response","135","2096336","0.0-8.0-1.46","5dd55746f3b7c2503ad3eb7e","condA","","resources/audio/wordStim/S3_AI_22_axb_Step-5.wav","49","","","","","","resources/audio/wordStim/S3_AI_22_axb_Step-5.wav","S3","22","axb","5","MI","MI","S3-MI","0","1","false"
"null","","fixation","html-keyboard-response","136","2097341","0.0-8.0-0.47","5dd55746f3b7c2503ad3eb7e","condA","","<div class=""vertical-center"" style='width:60%;'><img src=""resources/images/US_flag_100x52.jpg"" style=""width:100px;height:52px;opacity:0.35;""> <br> <br> <p style='font-weight:bold;'>Does the middle word sound more like the first word (A) or the last word (B)?</p> <br> <div class=""container""> <div id=""a-box""> <p class=""title-text"">A</h3></p> </div> <div id=""x-box""> <p class=""title-text"">X<p> </div> <div id=""b-box""> <p class=""title-text"">B</p></div> <br> <div style='float: left;padding-left:30px;'><p>Press '1' for A</p></div><div style='float: right;padding-right:30px;'><p>Press '0' for B</p> </div> </div></div>","null","","","","","","","","","","","","","","","",""
"3629","","test","audio-keyboard-response","137","2100968","0.0-8.0-1.47","5dd55746f3b7c2503ad3eb7e","condA","","resources/audio/wordStim/S3_AI_22_bxa_Step-4.wav","49","","","","","","resources/audio/wordStim/S3_AI_22_bxa_Step-4.wav","S3","22","bxa","4","MI","MI","S3-MI","1","1","true"
"null","","fixation","html-keyboard-response","138","2101972","0.0-8.0-0.48","5dd55746f3b7c2503ad3eb7e","condA","","<div class=""vertical-center"" style='width:60%;'><img src=""resources/images/US_flag_100x52.jpg"" style=""width:100px;height:52px;opacity:0.35;""> <br> <br> <p style='font-weight:bold;'>Does the middle word sound more like the first word (A) or the last word (B)?</p> <br> <div class=""container""> <div id=""a-box""> <p class=""title-text"">A</h3></p> </div> <div id=""x-box""> <p class=""title-text"">X<p> </div> <div id=""b-box""> <p class=""title-text"">B</p></div> <br> <div style='float: left;padding-left:30px;'><p>Press '1' for A</p></div><div style='float: right;padding-right:30px;'><p>Press '0' for B</p> </div> </div></div>","null","","","","","","","","","","","","","","","",""
"3581","","test","audio-keyboard-response","139","2105556","0.0-8.0-1.48","5dd55746f3b7c2503ad3eb7e","condA","","resources/audio/wordStim/S3_AI_30_axb_Step-8.wav","49","","","","","","resources/audio/wordStim/S3_AI_30_axb_Step-8.wav","S3","30","axb","8","MI","MI","S3-MI","0","1","false"
"null","","fixation","html-keyboard-response","140","2106561","0.0-8.0-0.49","5dd55746f3b7c2503ad3eb7e","condA","","<div class=""vertical-center"" style='width:60%;'><img src=""resources/images/US_flag_100x52.jpg"" style=""width:100px;height:52px;opacity:0.35;""> <br> <br> <p style='font-weight:bold;'>Does the middle word sound more like the first word (A) or the last word (B)?</p> <br> <div class=""container""> <div id=""a-box""> <p class=""title-text"">A</h3></p> </div> <div id=""x-box""> <p class=""title-text"">X<p> </div> <div id=""b-box""> <p class=""title-text"">B</p></div> <br> <div style='float: left;padding-left:30px;'><p>Press '1' for A</p></div><div style='float: right;padding-right:30px;'><p>Press '0' for B</p> </div> </div></div>","null","","","","","","","","","","","","","","","",""
"3640","","test","audio-keyboard-response","141","2110200","0.0-8.0-1.49","5dd55746f3b7c2503ad3eb7e","condA","","resources/audio/wordStim/S3_AU_20_bxa_Step-5.wav","49","","","","","","resources/audio/wordStim/S3_AU_20_bxa_Step-5.wav","S3","20","bxa","5","MI","MI","S3-MI","1","1","true"
"null","","fixation","html-keyboard-response","142","2111205","0.0-8.0-0.50","5dd55746f3b7c2503ad3eb7e","condA","","<div class=""vertical-center"" style='width:60%;'><img src=""resources/images/US_flag_100x52.jpg"" style=""width:100px;height:52px;opacity:0.35;""> <br> <br> <p style='font-weight:bold;'>Does the middle word sound more like the first word (A) or the last word (B)?</p> <br> <div class=""container""> <div id=""a-box""> <p class=""title-text"">A</h3></p> </div> <div id=""x-box""> <p class=""title-text"">X<p> </div> <div id=""b-box""> <p class=""title-text"">B</p></div> <br> <div style='float: left;padding-left:30px;'><p>Press '1' for A</p></div><div style='float: right;padding-right:30px;'><p>Press '0' for B</p> </div> </div></div>","null","","","","","","","","","","","","","","","",""
"3771","","test","audio-keyboard-response","143","2114971","0.0-8.0-1.50","5dd55746f3b7c2503ad3eb7e","condA","","resources/audio/wordStim/S3_AI_22_axb_Step-3.wav","49","","","","","","resources/audio/wordStim/S3_AI_22_axb_Step-3.wav","S3","22","axb","3","MI","MI","S3-MI","0","1","false"
"null","","fixation","html-keyboard-response","144","2115976","0.0-8.0-0.51","5dd55746f3b7c2503ad3eb7e","condA","","<div class=""vertical-center"" style='width:60%;'><img src=""resources/images/US_flag_100x52.jpg"" style=""width:100px;height:52px;opacity:0.35;""> <br> <br> <p style='font-weight:bold;'>Does the middle word sound more like the first word (A) or the last word (B)?</p> <br> <div class=""container""> <div id=""a-box""> <p class=""title-text"">A</h3></p> </div> <div id=""x-box""> <p class=""title-text"">X<p> </div> <div id=""b-box""> <p class=""title-text"">B</p></div> <br> <div style='float: left;padding-left:30px;'><p>Press '1' for A</p></div><div style='float: right;padding-right:30px;'><p>Press '0' for B</p> </div> </div></div>","null","","","","","","","","","","","","","","","",""
"3240","","test","audio-keyboard-response","145","2119224","0.0-8.0-1.51","5dd55746f3b7c2503ad3eb7e","condA","","resources/audio/wordStim/S3_AU_19_axb_Step-8.wav","48","","","","","","resources/audio/wordStim/S3_AU_19_axb_Step-8.wav","S3","19","axb","8","MI","MI","S3-MI","0","0","true"
"null","","fixation","html-keyboard-response","146","2120228","0.0-8.0-0.52","5dd55746f3b7c2503ad3eb7e","condA","","<div class=""vertical-center"" style='width:60%;'><img src=""resources/images/US_flag_100x52.jpg"" style=""width:100px;height:52px;opacity:0.35;""> <br> <br> <p style='font-weight:bold;'>Does the middle word sound more like the first word (A) or the last word (B)?</p> <br> <div class=""container""> <div id=""a-box""> <p class=""title-text"">A</h3></p> </div> <div id=""x-box""> <p class=""title-text"">X<p> </div> <div id=""b-box""> <p class=""title-text"">B</p></div> <br> <div style='float: left;padding-left:30px;'><p>Press '1' for A</p></div><div style='float: right;padding-right:30px;'><p>Press '0' for B</p> </div> </div></div>","null","","","","","","","","","","","","","","","",""
"3059","","test","audio-keyboard-response","147","2123294","0.0-8.0-1.52","5dd55746f3b7c2503ad3eb7e","condA","","resources/audio/wordStim/S3_AI_21_axb_Step-4.wav","49","","","","","","resources/audio/wordStim/S3_AI_21_axb_Step-4.wav","S3","21","axb","4","MI","MI","S3-MI","0","1","false"
"null","","fixation","html-keyboard-response","148","2124298","0.0-8.0-0.53","5dd55746f3b7c2503ad3eb7e","condA","","<div class=""vertical-center"" style='width:60%;'><img src=""resources/images/US_flag_100x52.jpg"" style=""width:100px;height:52px;opacity:0.35;""> <br> <br> <p style='font-weight:bold;'>Does the middle word sound more like the first word (A) or the last word (B)?</p> <br> <div class=""container""> <div id=""a-box""> <p class=""title-text"">A</h3></p> </div> <div id=""x-box""> <p class=""title-text"">X<p> </div> <div id=""b-box""> <p class=""title-text"">B</p></div> <br> <div style='float: left;padding-left:30px;'><p>Press '1' for A</p></div><div style='float: right;padding-right:30px;'><p>Press '0' for B</p> </div> </div></div>","null","","","","","","","","","","","","","","","",""
"3229","","test","audio-keyboard-response","149","2127536","0.0-8.0-1.53","5dd55746f3b7c2503ad3eb7e","condA","","resources/audio/wordStim/S3_AI_21_axb_Step-6.wav","48","","","","","","resources/audio/wordStim/S3_AI_21_axb_Step-6.wav","S3","21","axb","6","MI","MI","S3-MI","0","0","true"
"null","","fixation","html-keyboard-response","150","2128541","0.0-8.0-0.54","5dd55746f3b7c2503ad3eb7e","condA","","<div class=""vertical-center"" style='width:60%;'><img src=""resources/images/US_flag_100x52.jpg"" style=""width:100px;height:52px;opacity:0.35;""> <br> <br> <p style='font-weight:bold;'>Does the middle word sound more like the first word (A) or the last word (B)?</p> <br> <div class=""container""> <div id=""a-box""> <p class=""title-text"">A</h3></p> </div> <div id=""x-box""> <p class=""title-text"">X<p> </div> <div id=""b-box""> <p class=""title-text"">B</p></div> <br> <div style='float: left;padding-left:30px;'><p>Press '1' for A</p></div><div style='float: right;padding-right:30px;'><p>Press '0' for B</p> </div> </div></div>","null","","","","","","","","","","","","","","","",""
"3531","","test","audio-keyboard-response","151","2132075","0.0-8.0-1.54","5dd55746f3b7c2503ad3eb7e","condA","","resources/audio/wordStim/S3_AU_19_axb_Step-5.wav","49","","","","","","resources/audio/wordStim/S3_AU_19_axb_Step-5.wav","S3","19","axb","5","MI","MI","S3-MI","0","1","false"
"null","","fixation","html-keyboard-response","152","2133079","0.0-8.0-0.55","5dd55746f3b7c2503ad3eb7e","condA","","<div class=""vertical-center"" style='width:60%;'><img src=""resources/images/US_flag_100x52.jpg"" style=""width:100px;height:52px;opacity:0.35;""> <br> <br> <p style='font-weight:bold;'>Does the middle word sound more like the first word (A) or the last word (B)?</p> <br> <div class=""container""> <div id=""a-box""> <p class=""title-text"">A</h3></p> </div> <div id=""x-box""> <p class=""title-text"">X<p> </div> <div id=""b-box""> <p class=""title-text"">B</p></div> <br> <div style='float: left;padding-left:30px;'><p>Press '1' for A</p></div><div style='float: right;padding-right:30px;'><p>Press '0' for B</p> </div> </div></div>","null","","","","","","","","","","","","","","","",""
"3560","","test","audio-keyboard-response","153","2136646","0.0-8.0-1.55","5dd55746f3b7c2503ad3eb7e","condA","","resources/audio/wordStim/S3_AU_20_bxa_Step-6.wav","49","","","","","","resources/audio/wordStim/S3_AU_20_bxa_Step-6.wav","S3","20","bxa","6","MI","MI","S3-MI","1","1","true"
"null","","fixation","html-keyboard-response","154","2137650","0.0-8.0-0.56","5dd55746f3b7c2503ad3eb7e","condA","","<div class=""vertical-center"" style='width:60%;'><img src=""resources/images/US_flag_100x52.jpg"" style=""width:100px;height:52px;opacity:0.35;""> <br> <br> <p style='font-weight:bold;'>Does the middle word sound more like the first word (A) or the last word (B)?</p> <br> <div class=""container""> <div id=""a-box""> <p class=""title-text"">A</h3></p> </div> <div id=""x-box""> <p class=""title-text"">X<p> </div> <div id=""b-box""> <p class=""title-text"">B</p></div> <br> <div style='float: left;padding-left:30px;'><p>Press '1' for A</p></div><div style='float: right;padding-right:30px;'><p>Press '0' for B</p> </div> </div></div>","null","","","","","","","","","","","","","","","",""
"3411","","test","audio-keyboard-response","155","2141058","0.0-8.0-1.56","5dd55746f3b7c2503ad3eb7e","condA","","resources/audio/wordStim/S3_AI_22_axb_Step-7.wav","48","","","","","","resources/audio/wordStim/S3_AI_22_axb_Step-7.wav","S3","22","axb","7","MI","MI","S3-MI","0","0","true"
"null","","fixation","html-keyboard-response","156","2142063","0.0-8.0-0.57","5dd55746f3b7c2503ad3eb7e","condA","","<div class=""vertical-center"" style='width:60%;'><img src=""resources/images/US_flag_100x52.jpg"" style=""width:100px;height:52px;opacity:0.35;""> <br> <br> <p style='font-weight:bold;'>Does the middle word sound more like the first word (A) or the last word (B)?</p> <br> <div class=""container""> <div id=""a-box""> <p class=""title-text"">A</h3></p> </div> <div id=""x-box""> <p class=""title-text"">X<p> </div> <div id=""b-box""> <p class=""title-text"">B</p></div> <br> <div style='float: left;padding-left:30px;'><p>Press '1' for A</p></div><div style='float: right;padding-right:30px;'><p>Press '0' for B</p> </div> </div></div>","null","","","","","","","","","","","","","","","",""
"2869","","test","audio-keyboard-response","157","2144935","0.0-8.0-1.57","5dd55746f3b7c2503ad3eb7e","condA","","resources/audio/wordStim/S3_AI_21_bxa_Step-2.wav","48","","","","","","resources/audio/wordStim/S3_AI_21_bxa_Step-2.wav","S3","21","bxa","2","MI","MI","S3-MI","1","0","false"
"null","","fixation","html-keyboard-response","158","2145938","0.0-8.0-0.58","5dd55746f3b7c2503ad3eb7e","condA","","<div class=""vertical-center"" style='width:60%;'><img src=""resources/images/US_flag_100x52.jpg"" style=""width:100px;height:52px;opacity:0.35;""> <br> <br> <p style='font-weight:bold;'>Does the middle word sound more like the first word (A) or the last word (B)?</p> <br> <div class=""container""> <div id=""a-box""> <p class=""title-text"">A</h3></p> </div> <div id=""x-box""> <p class=""title-text"">X<p> </div> <div id=""b-box""> <p class=""title-text"">B</p></div> <br> <div style='float: left;padding-left:30px;'><p>Press '1' for A</p></div><div style='float: right;padding-right:30px;'><p>Press '0' for B</p> </div> </div></div>","null","","","","","","","","","","","","","","","",""
"3200","","test","audio-keyboard-response","159","2149140","0.0-8.0-1.58","5dd55746f3b7c2503ad3eb7e","condA","","resources/audio/wordStim/S3_AU_20_bxa_Step-3.wav","48","","","","","","resources/audio/wordStim/S3_AU_20_bxa_Step-3.wav","S3","20","bxa","3","MI","MI","S3-MI","1","0","false"
"null","","fixation","html-keyboard-response","160","2150145","0.0-8.0-0.59","5dd55746f3b7c2503ad3eb7e","condA","","<div class=""vertical-center"" style='width:60%;'><img src=""resources/images/US_flag_100x52.jpg"" style=""width:100px;height:52px;opacity:0.35;""> <br> <br> <p style='font-weight:bold;'>Does the middle word sound more like the first word (A) or the last word (B)?</p> <br> <div class=""container""> <div id=""a-box""> <p class=""title-text"">A</h3></p> </div> <div id=""x-box""> <p class=""title-text"">X<p> </div> <div id=""b-box""> <p class=""title-text"">B</p></div> <br> <div style='float: left;padding-left:30px;'><p>Press '1' for A</p></div><div style='float: right;padding-right:30px;'><p>Press '0' for B</p> </div> </div></div>","null","","","","","","","","","","","","","","","",""
"3469","","test","audio-keyboard-response","161","2153622","0.0-8.0-1.59","5dd55746f3b7c2503ad3eb7e","condA","","resources/audio/wordStim/S3_AI_30_bxa_Step-5.wav","48","","","","","","resources/audio/wordStim/S3_AI_30_bxa_Step-5.wav","S3","30","bxa","5","MI","MI","S3-MI","1","0","false"
"null","","fixation","html-keyboard-response","162","2154628","0.0-8.0-0.60","5dd55746f3b7c2503ad3eb7e","condA","","<div class=""vertical-center"" style='width:60%;'><img src=""resources/images/US_flag_100x52.jpg"" style=""width:100px;height:52px;opacity:0.35;""> <br> <br> <p style='font-weight:bold;'>Does the middle word sound more like the first word (A) or the last word (B)?</p> <br> <div class=""container""> <div id=""a-box""> <p class=""title-text"">A</h3></p> </div> <div id=""x-box""> <p class=""title-text"">X<p> </div> <div id=""b-box""> <p class=""title-text"">B</p></div> <br> <div style='float: left;padding-left:30px;'><p>Press '1' for A</p></div><div style='float: right;padding-right:30px;'><p>Press '0' for B</p> </div> </div></div>","null","","","","","","","","","","","","","","","",""
"4099","","test","audio-keyboard-response","163","2158732","0.0-8.0-1.60","5dd55746f3b7c2503ad3eb7e","condA","","resources/audio/wordStim/S3_AU_19_axb_Step-4.wav","49","","","","","","resources/audio/wordStim/S3_AU_19_axb_Step-4.wav","S3","19","axb","4","MI","MI","S3-MI","0","1","false"
"null","","fixation","html-keyboard-response","164","2159735","0.0-8.0-0.61","5dd55746f3b7c2503ad3eb7e","condA","","<div class=""vertical-center"" style='width:60%;'><img src=""resources/images/US_flag_100x52.jpg"" style=""width:100px;height:52px;opacity:0.35;""> <br> <br> <p style='font-weight:bold;'>Does the middle word sound more like the first word (A) or the last word (B)?</p> <br> <div class=""container""> <div id=""a-box""> <p class=""title-text"">A</h3></p> </div> <div id=""x-box""> <p class=""title-text"">X<p> </div> <div id=""b-box""> <p class=""title-text"">B</p></div> <br> <div style='float: left;padding-left:30px;'><p>Press '1' for A</p></div><div style='float: right;padding-right:30px;'><p>Press '0' for B</p> </div> </div></div>","null","","","","","","","","","","","","","","","",""
"3869","","test","audio-keyboard-response","165","2163613","0.0-8.0-1.61","5dd55746f3b7c2503ad3eb7e","condA","","resources/audio/wordStim/S3_AI_30_bxa_Step-8.wav","48","","","","","","resources/audio/wordStim/S3_AI_30_bxa_Step-8.wav","S3","30","bxa","8","MI","MI","S3-MI","1","0","false"
"null","","fixation","html-keyboard-response","166","2164617","0.0-8.0-0.62","5dd55746f3b7c2503ad3eb7e","condA","","<div class=""vertical-center"" style='width:60%;'><img src=""resources/images/US_flag_100x52.jpg"" style=""width:100px;height:52px;opacity:0.35;""> <br> <br> <p style='font-weight:bold;'>Does the middle word sound more like the first word (A) or the last word (B)?</p> <br> <div class=""container""> <div id=""a-box""> <p class=""title-text"">A</h3></p> </div> <div id=""x-box""> <p class=""title-text"">X<p> </div> <div id=""b-box""> <p class=""title-text"">B</p></div> <br> <div style='float: left;padding-left:30px;'><p>Press '1' for A</p></div><div style='float: right;padding-right:30px;'><p>Press '0' for B</p> </div> </div></div>","null","","","","","","","","","","","","","","","",""
"6299","","test","audio-keyboard-response","167","2170919","0.0-8.0-1.62","5dd55746f3b7c2503ad3eb7e","condA","","resources/audio/wordStim/S3_AU_19_bxa_Step-8.wav","48","","","","","","resources/audio/wordStim/S3_AU_19_bxa_Step-8.wav","S3","19","bxa","8","MI","MI","S3-MI","1","0","false"
"3264.26999992691","","break","html-keyboard-response","168","2174685","0.0-8.0-2.62-0.62","5dd55746f3b7c2503ad3eb7e","condA","","<div class=""vertical-center""><p>Feel free to take a break!</p><i>When you're ready to continue, press SPACE to begin the next trial.</i></p></div>","32","","","","","","","","","","","","","","","",""
"null","","fixation","html-keyboard-response","169","2175189","0.0-8.0-0.63","5dd55746f3b7c2503ad3eb7e","condA","","<div class=""vertical-center"" style='width:60%;'><img src=""resources/images/US_flag_100x52.jpg"" style=""width:100px;height:52px;opacity:0.35;""> <br> <br> <p style='font-weight:bold;'>Does the middle word sound more like the first word (A) or the last word (B)?</p> <br> <div class=""container""> <div id=""a-box""> <p class=""title-text"">A</h3></p> </div> <div id=""x-box""> <p class=""title-text"">X<p> </div> <div id=""b-box""> <p class=""title-text"">B</p></div> <br> <div style='float: left;padding-left:30px;'><p>Press '1' for A</p></div><div style='float: right;padding-right:30px;'><p>Press '0' for B</p> </div> </div></div>","null","","","","","","","","","","","","","","","",""
"7149","","test","audio-keyboard-response","170","2182342","0.0-8.0-1.63","5dd55746f3b7c2503ad3eb7e","condA","","resources/audio/wordStim/S3_AU_18_axb_Step-6.wav","49","","","","","","resources/audio/wordStim/S3_AU_18_axb_Step-6.wav","S3","18","axb","6","MI","MI","S3-MI","0","1","false"
"null","","fixation","html-keyboard-response","171","2183348","0.0-8.0-0.64","5dd55746f3b7c2503ad3eb7e","condA","","<div class=""vertical-center"" style='width:60%;'><img src=""resources/images/US_flag_100x52.jpg"" style=""width:100px;height:52px;opacity:0.35;""> <br> <br> <p style='font-weight:bold;'>Does the middle word sound more like the first word (A) or the last word (B)?</p> <br> <div class=""container""> <div id=""a-box""> <p class=""title-text"">A</h3></p> </div> <div id=""x-box""> <p class=""title-text"">X<p> </div> <div id=""b-box""> <p class=""title-text"">B</p></div> <br> <div style='float: left;padding-left:30px;'><p>Press '1' for A</p></div><div style='float: right;padding-right:30px;'><p>Press '0' for B</p> </div> </div></div>","null","","","","","","","","","","","","","","","",""
"3680","","test","audio-keyboard-response","172","2187036","0.0-8.0-1.64","5dd55746f3b7c2503ad3eb7e","condA","","resources/audio/wordStim/S3_AI_22_bxa_Step-7.wav","49","","","","","","resources/audio/wordStim/S3_AI_22_bxa_Step-7.wav","S3","22","bxa","7","MI","MI","S3-MI","1","1","true"
"null","","fixation","html-keyboard-response","173","2188040","0.0-8.0-0.65","5dd55746f3b7c2503ad3eb7e","condA","","<div class=""vertical-center"" style='width:60%;'><img src=""resources/images/US_flag_100x52.jpg"" style=""width:100px;height:52px;opacity:0.35;""> <br> <br> <p style='font-weight:bold;'>Does the middle word sound more like the first word (A) or the last word (B)?</p> <br> <div class=""container""> <div id=""a-box""> <p class=""title-text"">A</h3></p> </div> <div id=""x-box""> <p class=""title-text"">X<p> </div> <div id=""b-box""> <p class=""title-text"">B</p></div> <br> <div style='float: left;padding-left:30px;'><p>Press '1' for A</p></div><div style='float: right;padding-right:30px;'><p>Press '0' for B</p> </div> </div></div>","null","","","","","","","","","","","","","","","",""
"3501","","test","audio-keyboard-response","174","2191538","0.0-8.0-1.65","5dd55746f3b7c2503ad3eb7e","condA","","resources/audio/wordStim/S3_AU_19_axb_Step-6.wav","49","","","","","","resources/audio/wordStim/S3_AU_19_axb_Step-6.wav","S3","19","axb","6","MI","MI","S3-MI","0","1","false"
"null","","fixation","html-keyboard-response","175","2192542","0.0-8.0-0.66","5dd55746f3b7c2503ad3eb7e","condA","","<div class=""vertical-center"" style='width:60%;'><img src=""resources/images/US_flag_100x52.jpg"" style=""width:100px;height:52px;opacity:0.35;""> <br> <br> <p style='font-weight:bold;'>Does the middle word sound more like the first word (A) or the last word (B)?</p> <br> <div class=""container""> <div id=""a-box""> <p class=""title-text"">A</h3></p> </div> <div id=""x-box""> <p class=""title-text"">X<p> </div> <div id=""b-box""> <p class=""title-text"">B</p></div> <br> <div style='float: left;padding-left:30px;'><p>Press '1' for A</p></div><div style='float: right;padding-right:30px;'><p>Press '0' for B</p> </div> </div></div>","null","","","","","","","","","","","","","","","",""
"3469","","test","audio-keyboard-response","176","2196014","0.0-8.0-1.66","5dd55746f3b7c2503ad3eb7e","condA","","resources/audio/wordStim/S3_AU_20_axb_Step-2.wav","49","","","","","","resources/audio/wordStim/S3_AU_20_axb_Step-2.wav","S3","20","axb","2","MI","MI","S3-MI","0","1","false"
"null","","fixation","html-keyboard-response","177","2197018","0.0-8.0-0.67","5dd55746f3b7c2503ad3eb7e","condA","","<div class=""vertical-center"" style='width:60%;'><img src=""resources/images/US_flag_100x52.jpg"" style=""width:100px;height:52px;opacity:0.35;""> <br> <br> <p style='font-weight:bold;'>Does the middle word sound more like the first word (A) or the last word (B)?</p> <br> <div class=""container""> <div id=""a-box""> <p class=""title-text"">A</h3></p> </div> <div id=""x-box""> <p class=""title-text"">X<p> </div> <div id=""b-box""> <p class=""title-text"">B</p></div> <br> <div style='float: left;padding-left:30px;'><p>Press '1' for A</p></div><div style='float: right;padding-right:30px;'><p>Press '0' for B</p> </div> </div></div>","null","","","","","","","","","","","","","","","",""
"3989","","test","audio-keyboard-response","178","2201013","0.0-8.0-1.67","5dd55746f3b7c2503ad3eb7e","condA","","resources/audio/wordStim/S3_AI_30_axb_Step-6.wav","49","","","","","","resources/audio/wordStim/S3_AI_30_axb_Step-6.wav","S3","30","axb","6","MI","MI","S3-MI","0","1","false"
"null","","fixation","html-keyboard-response","179","2202017","0.0-8.0-0.68","5dd55746f3b7c2503ad3eb7e","condA","","<div class=""vertical-center"" style='width:60%;'><img src=""resources/images/US_flag_100x52.jpg"" style=""width:100px;height:52px;opacity:0.35;""> <br> <br> <p style='font-weight:bold;'>Does the middle word sound more like the first word (A) or the last word (B)?</p> <br> <div class=""container""> <div id=""a-box""> <p class=""title-text"">A</h3></p> </div> <div id=""x-box""> <p class=""title-text"">X<p> </div> <div id=""b-box""> <p class=""title-text"">B</p></div> <br> <div style='float: left;padding-left:30px;'><p>Press '1' for A</p></div><div style='float: right;padding-right:30px;'><p>Press '0' for B</p> </div> </div></div>","null","","","","","","","","","","","","","","","",""
"3629","","test","audio-keyboard-response","180","2205651","0.0-8.0-1.68","5dd55746f3b7c2503ad3eb7e","condA","","resources/audio/wordStim/S3_AU_19_bxa_Step-3.wav","48","","","","","","resources/audio/wordStim/S3_AU_19_bxa_Step-3.wav","S3","19","bxa","3","MI","MI","S3-MI","1","0","false"
"null","","fixation","html-keyboard-response","181","2206656","0.0-8.0-0.69","5dd55746f3b7c2503ad3eb7e","condA","","<div class=""vertical-center"" style='width:60%;'><img src=""resources/images/US_flag_100x52.jpg"" style=""width:100px;height:52px;opacity:0.35;""> <br> <br> <p style='font-weight:bold;'>Does the middle word sound more like the first word (A) or the last word (B)?</p> <br> <div class=""container""> <div id=""a-box""> <p class=""title-text"">A</h3></p> </div> <div id=""x-box""> <p class=""title-text"">X<p> </div> <div id=""b-box""> <p class=""title-text"">B</p></div> <br> <div style='float: left;padding-left:30px;'><p>Press '1' for A</p></div><div style='float: right;padding-right:30px;'><p>Press '0' for B</p> </div> </div></div>","null","","","","","","","","","","","","","","","",""
"4419","","test","audio-keyboard-response","182","2211082","0.0-8.0-1.69","5dd55746f3b7c2503ad3eb7e","condA","","resources/audio/wordStim/S3_AU_18_bxa_Step-2.wav","48","","","","","","resources/audio/wordStim/S3_AU_18_bxa_Step-2.wav","S3","18","bxa","2","MI","MI","S3-MI","1","0","false"
"null","","fixation","html-keyboard-response","183","2212088","0.0-8.0-0.70","5dd55746f3b7c2503ad3eb7e","condA","","<div class=""vertical-center"" style='width:60%;'><img src=""resources/images/US_flag_100x52.jpg"" style=""width:100px;height:52px;opacity:0.35;""> <br> <br> <p style='font-weight:bold;'>Does the middle word sound more like the first word (A) or the last word (B)?</p> <br> <div class=""container""> <div id=""a-box""> <p class=""title-text"">A</h3></p> </div> <div id=""x-box""> <p class=""title-text"">X<p> </div> <div id=""b-box""> <p class=""title-text"">B</p></div> <br> <div style='float: left;padding-left:30px;'><p>Press '1' for A</p></div><div style='float: right;padding-right:30px;'><p>Press '0' for B</p> </div> </div></div>","null","","","","","","","","","","","","","","","",""
"3800","","test","audio-keyboard-response","184","2215892","0.0-8.0-1.70","5dd55746f3b7c2503ad3eb7e","condA","","resources/audio/wordStim/S3_AU_18_bxa_Step-6.wav","49","","","","","","resources/audio/wordStim/S3_AU_18_bxa_Step-6.wav","S3","18","bxa","6","MI","MI","S3-MI","1","1","true"
"null","","fixation","html-keyboard-response","185","2216895","0.0-8.0-0.71","5dd55746f3b7c2503ad3eb7e","condA","","<div class=""vertical-center"" style='width:60%;'><img src=""resources/images/US_flag_100x52.jpg"" style=""width:100px;height:52px;opacity:0.35;""> <br> <br> <p style='font-weight:bold;'>Does the middle word sound more like the first word (A) or the last word (B)?</p> <br> <div class=""container""> <div id=""a-box""> <p class=""title-text"">A</h3></p> </div> <div id=""x-box""> <p class=""title-text"">X<p> </div> <div id=""b-box""> <p class=""title-text"">B</p></div> <br> <div style='float: left;padding-left:30px;'><p>Press '1' for A</p></div><div style='float: right;padding-right:30px;'><p>Press '0' for B</p> </div> </div></div>","null","","","","","","","","","","","","","","","",""
"3939","","test","audio-keyboard-response","186","2220844","0.0-8.0-1.71","5dd55746f3b7c2503ad3eb7e","condA","","resources/audio/wordStim/S3_AU_18_bxa_Step-4.wav","48","","","","","","resources/audio/wordStim/S3_AU_18_bxa_Step-4.wav","S3","18","bxa","4","MI","MI","S3-MI","1","0","false"
"null","","fixation","html-keyboard-response","187","2221849","0.0-8.0-0.72","5dd55746f3b7c2503ad3eb7e","condA","","<div class=""vertical-center"" style='width:60%;'><img src=""resources/images/US_flag_100x52.jpg"" style=""width:100px;height:52px;opacity:0.35;""> <br> <br> <p style='font-weight:bold;'>Does the middle word sound more like the first word (A) or the last word (B)?</p> <br> <div class=""container""> <div id=""a-box""> <p class=""title-text"">A</h3></p> </div> <div id=""x-box""> <p class=""title-text"">X<p> </div> <div id=""b-box""> <p class=""title-text"">B</p></div> <br> <div style='float: left;padding-left:30px;'><p>Press '1' for A</p></div><div style='float: right;padding-right:30px;'><p>Press '0' for B</p> </div> </div></div>","null","","","","","","","","","","","","","","","",""
"3269","","test","audio-keyboard-response","188","2225125","0.0-8.0-1.72","5dd55746f3b7c2503ad3eb7e","condA","","resources/audio/wordStim/S3_AU_20_axb_Step-7.wav","48","","","","","","resources/audio/wordStim/S3_AU_20_axb_Step-7.wav","S3","20","axb","7","MI","MI","S3-MI","0","0","true"
"null","","fixation","html-keyboard-response","189","2226128","0.0-8.0-0.73","5dd55746f3b7c2503ad3eb7e","condA","","<div class=""vertical-center"" style='width:60%;'><img src=""resources/images/US_flag_100x52.jpg"" style=""width:100px;height:52px;opacity:0.35;""> <br> <br> <p style='font-weight:bold;'>Does the middle word sound more like the first word (A) or the last word (B)?</p> <br> <div class=""container""> <div id=""a-box""> <p class=""title-text"">A</h3></p> </div> <div id=""x-box""> <p class=""title-text"">X<p> </div> <div id=""b-box""> <p class=""title-text"">B</p></div> <br> <div style='float: left;padding-left:30px;'><p>Press '1' for A</p></div><div style='float: right;padding-right:30px;'><p>Press '0' for B</p> </div> </div></div>","null","","","","","","","","","","","","","","","",""
"3789","","test","audio-keyboard-response","190","2229924","0.0-8.0-1.73","5dd55746f3b7c2503ad3eb7e","condA","","resources/audio/wordStim/S3_AU_20_axb_Step-4.wav","49","","","","","","resources/audio/wordStim/S3_AU_20_axb_Step-4.wav","S3","20","axb","4","MI","MI","S3-MI","0","1","false"
"null","","fixation","html-keyboard-response","191","2230928","0.0-8.0-0.74","5dd55746f3b7c2503ad3eb7e","condA","","<div class=""vertical-center"" style='width:60%;'><img src=""resources/images/US_flag_100x52.jpg"" style=""width:100px;height:52px;opacity:0.35;""> <br> <br> <p style='font-weight:bold;'>Does the middle word sound more like the first word (A) or the last word (B)?</p> <br> <div class=""container""> <div id=""a-box""> <p class=""title-text"">A</h3></p> </div> <div id=""x-box""> <p class=""title-text"">X<p> </div> <div id=""b-box""> <p class=""title-text"">B</p></div> <br> <div style='float: left;padding-left:30px;'><p>Press '1' for A</p></div><div style='float: right;padding-right:30px;'><p>Press '0' for B</p> </div> </div></div>","null","","","","","","","","","","","","","","","",""
"2941","","test","audio-keyboard-response","192","2233873","0.0-8.0-1.74","5dd55746f3b7c2503ad3eb7e","condA","","resources/audio/wordStim/S3_AI_21_axb_Step-3.wav","49","","","","","","resources/audio/wordStim/S3_AI_21_axb_Step-3.wav","S3","21","axb","3","MI","MI","S3-MI","0","1","false"
"null","","fixation","html-keyboard-response","193","2234876","0.0-8.0-0.75","5dd55746f3b7c2503ad3eb7e","condA","","<div class=""vertical-center"" style='width:60%;'><img src=""resources/images/US_flag_100x52.jpg"" style=""width:100px;height:52px;opacity:0.35;""> <br> <br> <p style='font-weight:bold;'>Does the middle word sound more like the first word (A) or the last word (B)?</p> <br> <div class=""container""> <div id=""a-box""> <p class=""title-text"">A</h3></p> </div> <div id=""x-box""> <p class=""title-text"">X<p> </div> <div id=""b-box""> <p class=""title-text"">B</p></div> <br> <div style='float: left;padding-left:30px;'><p>Press '1' for A</p></div><div style='float: right;padding-right:30px;'><p>Press '0' for B</p> </div> </div></div>","null","","","","","","","","","","","","","","","",""
"2752","","test","audio-keyboard-response","194","2237631","0.0-8.0-1.75","5dd55746f3b7c2503ad3eb7e","condA","","resources/audio/wordStim/S3_AI_21_axb_Step-7.wav","48","","","","","","resources/audio/wordStim/S3_AI_21_axb_Step-7.wav","S3","21","axb","7","MI","MI","S3-MI","0","0","true"
"null","","fixation","html-keyboard-response","195","2238634","0.0-8.0-0.76","5dd55746f3b7c2503ad3eb7e","condA","","<div class=""vertical-center"" style='width:60%;'><img src=""resources/images/US_flag_100x52.jpg"" style=""width:100px;height:52px;opacity:0.35;""> <br> <br> <p style='font-weight:bold;'>Does the middle word sound more like the first word (A) or the last word (B)?</p> <br> <div class=""container""> <div id=""a-box""> <p class=""title-text"">A</h3></p> </div> <div id=""x-box""> <p class=""title-text"">X<p> </div> <div id=""b-box""> <p class=""title-text"">B</p></div> <br> <div style='float: left;padding-left:30px;'><p>Press '1' for A</p></div><div style='float: right;padding-right:30px;'><p>Press '0' for B</p> </div> </div></div>","null","","","","","","","","","","","","","","","",""
"3240","","test","audio-keyboard-response","196","2241869","0.0-8.0-1.76","5dd55746f3b7c2503ad3eb7e","condA","","resources/audio/wordStim/S3_AI_21_bxa_Step-7.wav","48","","","","","","resources/audio/wordStim/S3_AI_21_bxa_Step-7.wav","S3","21","bxa","7","MI","MI","S3-MI","1","0","false"
"null","","fixation","html-keyboard-response","197","2242872","0.0-8.0-0.77","5dd55746f3b7c2503ad3eb7e","condA","","<div class=""vertical-center"" style='width:60%;'><img src=""resources/images/US_flag_100x52.jpg"" style=""width:100px;height:52px;opacity:0.35;""> <br> <br> <p style='font-weight:bold;'>Does the middle word sound more like the first word (A) or the last word (B)?</p> <br> <div class=""container""> <div id=""a-box""> <p class=""title-text"">A</h3></p> </div> <div id=""x-box""> <p class=""title-text"">X<p> </div> <div id=""b-box""> <p class=""title-text"">B</p></div> <br> <div style='float: left;padding-left:30px;'><p>Press '1' for A</p></div><div style='float: right;padding-right:30px;'><p>Press '0' for B</p> </div> </div></div>","null","","","","","","","","","","","","","","","",""
"3829","","test","audio-keyboard-response","198","2246704","0.0-8.0-1.77","5dd55746f3b7c2503ad3eb7e","condA","","resources/audio/wordStim/S3_AU_18_bxa_Step-5.wav","48","","","","","","resources/audio/wordStim/S3_AU_18_bxa_Step-5.wav","S3","18","bxa","5","MI","MI","S3-MI","1","0","false"
"null","","fixation","html-keyboard-response","199","2247708","0.0-8.0-0.78","5dd55746f3b7c2503ad3eb7e","condA","","<div class=""vertical-center"" style='width:60%;'><img src=""resources/images/US_flag_100x52.jpg"" style=""width:100px;height:52px;opacity:0.35;""> <br> <br> <p style='font-weight:bold;'>Does the middle word sound more like the first word (A) or the last word (B)?</p> <br> <div class=""container""> <div id=""a-box""> <p class=""title-text"">A</h3></p> </div> <div id=""x-box""> <p class=""title-text"">X<p> </div> <div id=""b-box""> <p class=""title-text"">B</p></div> <br> <div style='float: left;padding-left:30px;'><p>Press '1' for A</p></div><div style='float: right;padding-right:30px;'><p>Press '0' for B</p> </div> </div></div>","null","","","","","","","","","","","","","","","",""
"3179","","test","audio-keyboard-response","200","2250890","0.0-8.0-1.78","5dd55746f3b7c2503ad3eb7e","condA","","resources/audio/wordStim/S3_AU_20_axb_Step-3.wav","49","","","","","","resources/audio/wordStim/S3_AU_20_axb_Step-3.wav","S3","20","axb","3","MI","MI","S3-MI","0","1","false"
