"rt","url","trial_role","trial_type","trial_index","time_elapsed","internal_node_id","participantId","conditionId","view_history","stimulus","key_press","button_pressed","correct_answer","correct_response","success","vowel","wordStim","speaker","sentNum","order","step","speakerIdentity","speakerGuise","guiseName","raised_answer","key_response","raised_response"
"37992.93499998748","micr.axb.consent.html","consent","external-html","0","38088","0.0-0.0","5fcaa818ae2a8f7198de4e93","condE","","","","","","","","","","","","","","","","","","",""
"53709.70500004478","","instructions","instructions","1","91801","0.0-1.0","5fcaa818ae2a8f7198de4e93","condE","[{""page_index"":0,""viewing_time"":27157.145000062883},{""page_index"":1,""viewing_time"":13759.915000060573},{""page_index"":2,""viewing_time"":12791.124999988824}]","","","","","","","","","","","","","","","","","",""
"null","","fixation","html-keyboard-response","2","92313","0.0-2.0-0.0-0.0","5fcaa818ae2a8f7198de4e93","condE","","<div class=""vertical-center"" style=""font-size:60px;"">+</div>","null","","","","","","","","","","","","","","","",""
"5831.634999951348","","tonetest","audio-button-response","3","98150","0.0-2.0-0.0-1.0","5fcaa818ae2a8f7198de4e93","condE","","../../src/audio/toneTest_1.wav","","2","2","true","","","","","","","","","","","","",""
"null","","fixation","html-keyboard-response","4","98663","0.0-2.0-0.0-0.1","5fcaa818ae2a8f7198de4e93","condE","","<div class=""vertical-center"" style=""font-size:60px;"">+</div>","null","","","","","","","","","","","","","","","",""
"4319.884999888018","","tonetest","audio-button-response","5","102985","0.0-2.0-0.0-1.1","5fcaa818ae2a8f7198de4e93","condE","","../../src/audio/toneTest_6.wav","","0","0","true","","","","","","","","","","","","",""
"null","","fixation","html-keyboard-response","6","103488","0.0-2.0-0.0-0.2","5fcaa818ae2a8f7198de4e93","condE","","<div class=""vertical-center"" style=""font-size:60px;"">+</div>","null","","","","","","","","","","","","","","","",""
"4675.005000084639","","tonetest","audio-button-response","7","108167","0.0-2.0-0.0-1.2","5fcaa818ae2a8f7198de4e93","condE","","../../src/audio/toneTest_1.wav","","2","2","true","","","","","","","","","","","","",""
"null","","fixation","html-keyboard-response","8","108669","0.0-2.0-0.0-0.3","5fcaa818ae2a8f7198de4e93","condE","","<div class=""vertical-center"" style=""font-size:60px;"">+</div>","null","","","","","","","","","","","","","","","",""
"4213.530000066385","","tonetest","audio-button-response","9","112886","0.0-2.0-0.0-1.3","5fcaa818ae2a8f7198de4e93","condE","","../../src/audio/toneTest_3.wav","","2","2","true","","","","","","","","","","","","",""
"null","","fixation","html-keyboard-response","10","113400","0.0-2.0-0.0-0.4","5fcaa818ae2a8f7198de4e93","condE","","<div class=""vertical-center"" style=""font-size:60px;"">+</div>","null","","","","","","","","","","","","","","","",""
"4576.289999997243","","tonetest","audio-button-response","11","117979","0.0-2.0-0.0-1.4","5fcaa818ae2a8f7198de4e93","condE","","../../src/audio/toneTest_1.wav","","2","2","true","","","","","","","","","","","","",""
"null","","fixation","html-keyboard-response","12","118490","0.0-2.0-0.0-0.5","5fcaa818ae2a8f7198de4e93","condE","","<div class=""vertical-center"" style=""font-size:60px;"">+</div>","null","","","","","","","","","","","","","","","",""
"3699.2450000252575","","tonetest","audio-button-response","13","122192","0.0-2.0-0.0-1.5","5fcaa818ae2a8f7198de4e93","condE","","../../src/audio/toneTest_5.wav","","0","0","true","","","","","","","","","","","","",""
"8646.06499997899","","instructions","html-keyboard-response","14","130843","0.0-2.0-1.0-0.0","5fcaa818ae2a8f7198de4e93","condE","","<div class=""vertical-center""><p><b>Your score was 6/6.</b></p><p>If you scored below 5, please ensure that you are wearing properly functioning headphones and in a quiet location free of distractions. Then, press SPACE to repeat the audio test. </p><p><i>If you scored 5 or above, press SPACE to continue to the main experiment.</i></p></div>","32","","","","","","","","","","","","","","","",""
"","","","fullscreen","15","137377","0.0-3.0","5fcaa818ae2a8f7198de4e93","condE","","","","","","","true","","","","","","","","","","","",""
"23365.00500002876","","instructions","instructions","16","160743","0.0-4.0","5fcaa818ae2a8f7198de4e93","condE","[{""page_index"":0,""viewing_time"":23364.73000003025}]","","","","","","","","","","","","","","","","","",""
"null","","fixation","html-keyboard-response","17","161250","0.0-5.0-0.0","5fcaa818ae2a8f7198de4e93","condE","","<div class=""vertical-center"" style='width:60%;'><p style='font-weight:bold;'>Does the middle word sound more like the first word (A) or the last word (B)?</p> <br> <div class=""container""> <div id=""a-box""> <p class=""title-text"">A</h3></p> </div> <div id=""x-box""> <p class=""title-text"">X<p> </div> <div id=""b-box""> <p class=""title-text"">B</p></div> <br> <div style='float: left;padding-left:30px;'><p>Press '1' for A</p></div><div style='float: right;padding-right:30px;'><p>Press '0' for B</p> </div> </div></div>","null","","","","","","","","","","","","","","","",""
"5592","","practice","audio-keyboard-response","18","166945","0.0-5.0-1.0","5fcaa818ae2a8f7198de4e93","condE","","resources/audio/practiceStim/S1_AI_21_bxa_Step-6.wav","48","","","","","","","","","","","","","","","",""
"null","","fixation","html-keyboard-response","19","167955","0.0-5.0-0.1","5fcaa818ae2a8f7198de4e93","condE","","<div class=""vertical-center"" style='width:60%;'><p style='font-weight:bold;'>Does the middle word sound more like the first word (A) or the last word (B)?</p> <br> <div class=""container""> <div id=""a-box""> <p class=""title-text"">A</h3></p> </div> <div id=""x-box""> <p class=""title-text"">X<p> </div> <div id=""b-box""> <p class=""title-text"">B</p></div> <br> <div style='float: left;padding-left:30px;'><p>Press '1' for A</p></div><div style='float: right;padding-right:30px;'><p>Press '0' for B</p> </div> </div></div>","null","","","","","","","","","","","","","","","",""
"2491","","practice","audio-keyboard-response","20","170448","0.0-5.0-1.1","5fcaa818ae2a8f7198de4e93","condE","","resources/audio/practiceStim/S1_AU_14_axb_Step-6.wav","49","","","","","","","","","","","","","","","",""
"null","","fixation","html-keyboard-response","21","171467","0.0-5.0-0.2","5fcaa818ae2a8f7198de4e93","condE","","<div class=""vertical-center"" style='width:60%;'><p style='font-weight:bold;'>Does the middle word sound more like the first word (A) or the last word (B)?</p> <br> <div class=""container""> <div id=""a-box""> <p class=""title-text"">A</h3></p> </div> <div id=""x-box""> <p class=""title-text"">X<p> </div> <div id=""b-box""> <p class=""title-text"">B</p></div> <br> <div style='float: left;padding-left:30px;'><p>Press '1' for A</p></div><div style='float: right;padding-right:30px;'><p>Press '0' for B</p> </div> </div></div>","null","","","","","","","","","","","","","","","",""
"2880","","practice","audio-keyboard-response","22","174354","0.0-5.0-1.2","5fcaa818ae2a8f7198de4e93","condE","","resources/audio/practiceStim/S1_AI_21_axb_Step-6.wav","49","","","","","","","","","","","","","","","",""
"null","","fixation","html-keyboard-response","23","175381","0.0-5.0-0.3","5fcaa818ae2a8f7198de4e93","condE","","<div class=""vertical-center"" style='width:60%;'><p style='font-weight:bold;'>Does the middle word sound more like the first word (A) or the last word (B)?</p> <br> <div class=""container""> <div id=""a-box""> <p class=""title-text"">A</h3></p> </div> <div id=""x-box""> <p class=""title-text"">X<p> </div> <div id=""b-box""> <p class=""title-text"">B</p></div> <br> <div style='float: left;padding-left:30px;'><p>Press '1' for A</p></div><div style='float: right;padding-right:30px;'><p>Press '0' for B</p> </div> </div></div>","null","","","","","","","","","","","","","","","",""
"2568","","practice","audio-keyboard-response","24","177949","0.0-5.0-1.3","5fcaa818ae2a8f7198de4e93","condE","","resources/audio/practiceStim/S1_AU_14_bxa_Step-6.wav","49","","","","","","","","","","","","","","","",""
"3526.374999899417","","instructions","instructions","25","181978","0.0-6.0","5fcaa818ae2a8f7198de4e93","condE","[{""page_index"":0,""viewing_time"":3526.049999985844}]","","","","","","","","","","","","","","","","","",""
"3769.3650000728667","","","html-keyboard-response","26","185753","0.0-7.0","5fcaa818ae2a8f7198de4e93","condE","","<div class=""vertical-center""><img src=""resources/images/BL_face_a.png"" style=""width:450px;height:300px;""><p>This is the speaker you're about to hear.</p><p> <br> <i>Press SPACE to continue.</i></p></div>","32","","","","","","","","","","","","","","","",""
"null","","fixation","html-keyboard-response","27","186260","0.0-8.0-0.0","5fcaa818ae2a8f7198de4e93","condE","","<div class=""vertical-center"" style='width:60%;'><p style='font-weight:bold;'>Does the middle word sound more like the first word (A) or the last word (B)?</p> <br> <div class=""container""> <div id=""a-box""> <p class=""title-text"">A</h3></p> </div> <div id=""x-box""> <p class=""title-text"">X<p> </div> <div id=""b-box""> <p class=""title-text"">B</p></div> <br> <div style='float: left;padding-left:30px;'><p>Press '1' for A</p></div><div style='float: right;padding-right:30px;'><p>Press '0' for B</p> </div> </div></div>","null","","","","","","","","","","","","","","","",""
"3829","","test","audio-keyboard-response","28","190093","0.0-8.0-1.0","5fcaa818ae2a8f7198de4e93","condE","","resources/audio/wordStim/S3_AU_18_bxa_Step-2.wav","49","","","","","","resources/audio/wordStim/S3_AU_18_bxa_Step-2.wav","S3","18","bxa","2","MI","BL","S3-BL","1","1","true"
"null","","fixation","html-keyboard-response","29","191113","0.0-8.0-0.1","5fcaa818ae2a8f7198de4e93","condE","","<div class=""vertical-center"" style='width:60%;'><p style='font-weight:bold;'>Does the middle word sound more like the first word (A) or the last word (B)?</p> <br> <div class=""container""> <div id=""a-box""> <p class=""title-text"">A</h3></p> </div> <div id=""x-box""> <p class=""title-text"">X<p> </div> <div id=""b-box""> <p class=""title-text"">B</p></div> <br> <div style='float: left;padding-left:30px;'><p>Press '1' for A</p></div><div style='float: right;padding-right:30px;'><p>Press '0' for B</p> </div> </div></div>","null","","","","","","","","","","","","","","","",""
"3552","","test","audio-keyboard-response","30","194662","0.0-8.0-1.1","5fcaa818ae2a8f7198de4e93","condE","","resources/audio/wordStim/S3_AI_22_axb_Step-6.wav","49","","","","","","resources/audio/wordStim/S3_AI_22_axb_Step-6.wav","S3","22","axb","6","MI","BL","S3-BL","0","1","false"
"null","","fixation","html-keyboard-response","31","195682","0.0-8.0-0.2","5fcaa818ae2a8f7198de4e93","condE","","<div class=""vertical-center"" style='width:60%;'><p style='font-weight:bold;'>Does the middle word sound more like the first word (A) or the last word (B)?</p> <br> <div class=""container""> <div id=""a-box""> <p class=""title-text"">A</h3></p> </div> <div id=""x-box""> <p class=""title-text"">X<p> </div> <div id=""b-box""> <p class=""title-text"">B</p></div> <br> <div style='float: left;padding-left:30px;'><p>Press '1' for A</p></div><div style='float: right;padding-right:30px;'><p>Press '0' for B</p> </div> </div></div>","null","","","","","","","","","","","","","","","",""
"3051","","test","audio-keyboard-response","32","198736","0.0-8.0-1.2","5fcaa818ae2a8f7198de4e93","condE","","resources/audio/wordStim/S3_AU_19_bxa_Step-7.wav","49","","","","","","resources/audio/wordStim/S3_AU_19_bxa_Step-7.wav","S3","19","bxa","7","MI","BL","S3-BL","1","1","true"
"null","","fixation","html-keyboard-response","33","199772","0.0-8.0-0.3","5fcaa818ae2a8f7198de4e93","condE","","<div class=""vertical-center"" style='width:60%;'><p style='font-weight:bold;'>Does the middle word sound more like the first word (A) or the last word (B)?</p> <br> <div class=""container""> <div id=""a-box""> <p class=""title-text"">A</h3></p> </div> <div id=""x-box""> <p class=""title-text"">X<p> </div> <div id=""b-box""> <p class=""title-text"">B</p></div> <br> <div style='float: left;padding-left:30px;'><p>Press '1' for A</p></div><div style='float: right;padding-right:30px;'><p>Press '0' for B</p> </div> </div></div>","null","","","","","","","","","","","","","","","",""
"3171","","test","audio-keyboard-response","34","202941","0.0-8.0-1.3","5fcaa818ae2a8f7198de4e93","condE","","resources/audio/wordStim/S3_AU_20_axb_Step-8.wav","48","","","","","","resources/audio/wordStim/S3_AU_20_axb_Step-8.wav","S3","20","axb","8","MI","BL","S3-BL","0","0","true"
"null","","fixation","html-keyboard-response","35","203966","0.0-8.0-0.4","5fcaa818ae2a8f7198de4e93","condE","","<div class=""vertical-center"" style='width:60%;'><p style='font-weight:bold;'>Does the middle word sound more like the first word (A) or the last word (B)?</p> <br> <div class=""container""> <div id=""a-box""> <p class=""title-text"">A</h3></p> </div> <div id=""x-box""> <p class=""title-text"">X<p> </div> <div id=""b-box""> <p class=""title-text"">B</p></div> <br> <div style='float: left;padding-left:30px;'><p>Press '1' for A</p></div><div style='float: right;padding-right:30px;'><p>Press '0' for B</p> </div> </div></div>","null","","","","","","","","","","","","","","","",""
"3160","","test","audio-keyboard-response","36","207125","0.0-8.0-1.4","5fcaa818ae2a8f7198de4e93","condE","","resources/audio/wordStim/S3_AI_21_axb_Step-8.wav","48","","","","","","resources/audio/wordStim/S3_AI_21_axb_Step-8.wav","S3","21","axb","8","MI","BL","S3-BL","0","0","true"
"null","","fixation","html-keyboard-response","37","208147","0.0-8.0-0.5","5fcaa818ae2a8f7198de4e93","condE","","<div class=""vertical-center"" style='width:60%;'><p style='font-weight:bold;'>Does the middle word sound more like the first word (A) or the last word (B)?</p> <br> <div class=""container""> <div id=""a-box""> <p class=""title-text"">A</h3></p> </div> <div id=""x-box""> <p class=""title-text"">X<p> </div> <div id=""b-box""> <p class=""title-text"">B</p></div> <br> <div style='float: left;padding-left:30px;'><p>Press '1' for A</p></div><div style='float: right;padding-right:30px;'><p>Press '0' for B</p> </div> </div></div>","null","","","","","","","","","","","","","","","",""
"2800","","test","audio-keyboard-response","38","210949","0.0-8.0-1.5","5fcaa818ae2a8f7198de4e93","condE","","resources/audio/wordStim/S3_AI_21_axb_Step-3.wav","49","","","","","","resources/audio/wordStim/S3_AI_21_axb_Step-3.wav","S3","21","axb","3","MI","BL","S3-BL","0","1","false"
"null","","fixation","html-keyboard-response","39","211981","0.0-8.0-0.6","5fcaa818ae2a8f7198de4e93","condE","","<div class=""vertical-center"" style='width:60%;'><p style='font-weight:bold;'>Does the middle word sound more like the first word (A) or the last word (B)?</p> <br> <div class=""container""> <div id=""a-box""> <p class=""title-text"">A</h3></p> </div> <div id=""x-box""> <p class=""title-text"">X<p> </div> <div id=""b-box""> <p class=""title-text"">B</p></div> <br> <div style='float: left;padding-left:30px;'><p>Press '1' for A</p></div><div style='float: right;padding-right:30px;'><p>Press '0' for B</p> </div> </div></div>","null","","","","","","","","","","","","","","","",""
"3469","","test","audio-keyboard-response","40","215452","0.0-8.0-1.6","5fcaa818ae2a8f7198de4e93","condE","","resources/audio/wordStim/S3_AU_18_axb_Step-8.wav","48","","","","","","resources/audio/wordStim/S3_AU_18_axb_Step-8.wav","S3","18","axb","8","MI","BL","S3-BL","0","0","true"
"null","","fixation","html-keyboard-response","41","216462","0.0-8.0-0.7","5fcaa818ae2a8f7198de4e93","condE","","<div class=""vertical-center"" style='width:60%;'><p style='font-weight:bold;'>Does the middle word sound more like the first word (A) or the last word (B)?</p> <br> <div class=""container""> <div id=""a-box""> <p class=""title-text"">A</h3></p> </div> <div id=""x-box""> <p class=""title-text"">X<p> </div> <div id=""b-box""> <p class=""title-text"">B</p></div> <br> <div style='float: left;padding-left:30px;'><p>Press '1' for A</p></div><div style='float: right;padding-right:30px;'><p>Press '0' for B</p> </div> </div></div>","null","","","","","","","","","","","","","","","",""
"3309","","test","audio-keyboard-response","42","219777","0.0-8.0-1.7","5fcaa818ae2a8f7198de4e93","condE","","resources/audio/wordStim/S3_AU_20_bxa_Step-4.wav","49","","","","","","resources/audio/wordStim/S3_AU_20_bxa_Step-4.wav","S3","20","bxa","4","MI","BL","S3-BL","1","1","true"
"null","","fixation","html-keyboard-response","43","220797","0.0-8.0-0.8","5fcaa818ae2a8f7198de4e93","condE","","<div class=""vertical-center"" style='width:60%;'><p style='font-weight:bold;'>Does the middle word sound more like the first word (A) or the last word (B)?</p> <br> <div class=""container""> <div id=""a-box""> <p class=""title-text"">A</h3></p> </div> <div id=""x-box""> <p class=""title-text"">X<p> </div> <div id=""b-box""> <p class=""title-text"">B</p></div> <br> <div style='float: left;padding-left:30px;'><p>Press '1' for A</p></div><div style='float: right;padding-right:30px;'><p>Press '0' for B</p> </div> </div></div>","null","","","","","","","","","","","","","","","",""
"3341","","test","audio-keyboard-response","44","224144","0.0-8.0-1.8","5fcaa818ae2a8f7198de4e93","condE","","resources/audio/wordStim/S3_AI_30_bxa_Step-4.wav","49","","","","","","resources/audio/wordStim/S3_AI_30_bxa_Step-4.wav","S3","30","bxa","4","MI","BL","S3-BL","1","1","true"
"null","","fixation","html-keyboard-response","45","225166","0.0-8.0-0.9","5fcaa818ae2a8f7198de4e93","condE","","<div class=""vertical-center"" style='width:60%;'><p style='font-weight:bold;'>Does the middle word sound more like the first word (A) or the last word (B)?</p> <br> <div class=""container""> <div id=""a-box""> <p class=""title-text"">A</h3></p> </div> <div id=""x-box""> <p class=""title-text"">X<p> </div> <div id=""b-box""> <p class=""title-text"">B</p></div> <br> <div style='float: left;padding-left:30px;'><p>Press '1' for A</p></div><div style='float: right;padding-right:30px;'><p>Press '0' for B</p> </div> </div></div>","null","","","","","","","","","","","","","","","",""
"3389","","test","audio-keyboard-response","46","228564","0.0-8.0-1.9","5fcaa818ae2a8f7198de4e93","condE","","resources/audio/wordStim/S3_AI_30_bxa_Step-7.wav","48","","","","","","resources/audio/wordStim/S3_AI_30_bxa_Step-7.wav","S3","30","bxa","7","MI","BL","S3-BL","1","0","false"
"null","","fixation","html-keyboard-response","47","229577","0.0-8.0-0.10","5fcaa818ae2a8f7198de4e93","condE","","<div class=""vertical-center"" style='width:60%;'><p style='font-weight:bold;'>Does the middle word sound more like the first word (A) or the last word (B)?</p> <br> <div class=""container""> <div id=""a-box""> <p class=""title-text"">A</h3></p> </div> <div id=""x-box""> <p class=""title-text"">X<p> </div> <div id=""b-box""> <p class=""title-text"">B</p></div> <br> <div style='float: left;padding-left:30px;'><p>Press '1' for A</p></div><div style='float: right;padding-right:30px;'><p>Press '0' for B</p> </div> </div></div>","null","","","","","","","","","","","","","","","",""
"2960","","test","audio-keyboard-response","48","232541","0.0-8.0-1.10","5fcaa818ae2a8f7198de4e93","condE","","resources/audio/wordStim/S3_AU_19_bxa_Step-4.wav","49","","","","","","resources/audio/wordStim/S3_AU_19_bxa_Step-4.wav","S3","19","bxa","4","MI","BL","S3-BL","1","1","true"
"null","","fixation","html-keyboard-response","49","233558","0.0-8.0-0.11","5fcaa818ae2a8f7198de4e93","condE","","<div class=""vertical-center"" style='width:60%;'><p style='font-weight:bold;'>Does the middle word sound more like the first word (A) or the last word (B)?</p> <br> <div class=""container""> <div id=""a-box""> <p class=""title-text"">A</h3></p> </div> <div id=""x-box""> <p class=""title-text"">X<p> </div> <div id=""b-box""> <p class=""title-text"">B</p></div> <br> <div style='float: left;padding-left:30px;'><p>Press '1' for A</p></div><div style='float: right;padding-right:30px;'><p>Press '0' for B</p> </div> </div></div>","null","","","","","","","","","","","","","","","",""
"3541","","test","audio-keyboard-response","50","237098","0.0-8.0-1.11","5fcaa818ae2a8f7198de4e93","condE","","resources/audio/wordStim/S3_AI_22_bxa_Step-3.wav","49","","","","","","resources/audio/wordStim/S3_AI_22_bxa_Step-3.wav","S3","22","bxa","3","MI","BL","S3-BL","1","1","true"
"null","","fixation","html-keyboard-response","51","238116","0.0-8.0-0.12","5fcaa818ae2a8f7198de4e93","condE","","<div class=""vertical-center"" style='width:60%;'><p style='font-weight:bold;'>Does the middle word sound more like the first word (A) or the last word (B)?</p> <br> <div class=""container""> <div id=""a-box""> <p class=""title-text"">A</h3></p> </div> <div id=""x-box""> <p class=""title-text"">X<p> </div> <div id=""b-box""> <p class=""title-text"">B</p></div> <br> <div style='float: left;padding-left:30px;'><p>Press '1' for A</p></div><div style='float: right;padding-right:30px;'><p>Press '0' for B</p> </div> </div></div>","null","","","","","","","","","","","","","","","",""
"3640","","test","audio-keyboard-response","52","241758","0.0-8.0-1.12","5fcaa818ae2a8f7198de4e93","condE","","resources/audio/wordStim/S3_AU_18_axb_Step-2.wav","49","","","","","","resources/audio/wordStim/S3_AU_18_axb_Step-2.wav","S3","18","axb","2","MI","BL","S3-BL","0","1","false"
"null","","fixation","html-keyboard-response","53","242761","0.0-8.0-0.13","5fcaa818ae2a8f7198de4e93","condE","","<div class=""vertical-center"" style='width:60%;'><p style='font-weight:bold;'>Does the middle word sound more like the first word (A) or the last word (B)?</p> <br> <div class=""container""> <div id=""a-box""> <p class=""title-text"">A</h3></p> </div> <div id=""x-box""> <p class=""title-text"">X<p> </div> <div id=""b-box""> <p class=""title-text"">B</p></div> <br> <div style='float: left;padding-left:30px;'><p>Press '1' for A</p></div><div style='float: right;padding-right:30px;'><p>Press '0' for B</p> </div> </div></div>","null","","","","","","","","","","","","","","","",""
"3069","","test","audio-keyboard-response","54","245835","0.0-8.0-1.13","5fcaa818ae2a8f7198de4e93","condE","","resources/audio/wordStim/S3_AU_20_bxa_Step-8.wav","49","","","","","","resources/audio/wordStim/S3_AU_20_bxa_Step-8.wav","S3","20","bxa","8","MI","BL","S3-BL","1","1","true"
"null","","fixation","html-keyboard-response","55","246855","0.0-8.0-0.14","5fcaa818ae2a8f7198de4e93","condE","","<div class=""vertical-center"" style='width:60%;'><p style='font-weight:bold;'>Does the middle word sound more like the first word (A) or the last word (B)?</p> <br> <div class=""container""> <div id=""a-box""> <p class=""title-text"">A</h3></p> </div> <div id=""x-box""> <p class=""title-text"">X<p> </div> <div id=""b-box""> <p class=""title-text"">B</p></div> <br> <div style='float: left;padding-left:30px;'><p>Press '1' for A</p></div><div style='float: right;padding-right:30px;'><p>Press '0' for B</p> </div> </div></div>","null","","","","","","","","","","","","","","","",""
"2989","","test","audio-keyboard-response","56","249851","0.0-8.0-1.14","5fcaa818ae2a8f7198de4e93","condE","","resources/audio/wordStim/S3_AU_19_axb_Step-6.wav","49","","","","","","resources/audio/wordStim/S3_AU_19_axb_Step-6.wav","S3","19","axb","6","MI","BL","S3-BL","0","1","false"
"null","","fixation","html-keyboard-response","57","250885","0.0-8.0-0.15","5fcaa818ae2a8f7198de4e93","condE","","<div class=""vertical-center"" style='width:60%;'><p style='font-weight:bold;'>Does the middle word sound more like the first word (A) or the last word (B)?</p> <br> <div class=""container""> <div id=""a-box""> <p class=""title-text"">A</h3></p> </div> <div id=""x-box""> <p class=""title-text"">X<p> </div> <div id=""b-box""> <p class=""title-text"">B</p></div> <br> <div style='float: left;padding-left:30px;'><p>Press '1' for A</p></div><div style='float: right;padding-right:30px;'><p>Press '0' for B</p> </div> </div></div>","null","","","","","","","","","","","","","","","",""
"3720","","test","audio-keyboard-response","58","254611","0.0-8.0-1.15","5fcaa818ae2a8f7198de4e93","condE","","resources/audio/wordStim/S3_AU_18_bxa_Step-6.wav","48","","","","","","resources/audio/wordStim/S3_AU_18_bxa_Step-6.wav","S3","18","bxa","6","MI","BL","S3-BL","1","0","false"
"null","","fixation","html-keyboard-response","59","255649","0.0-8.0-0.16","5fcaa818ae2a8f7198de4e93","condE","","<div class=""vertical-center"" style='width:60%;'><p style='font-weight:bold;'>Does the middle word sound more like the first word (A) or the last word (B)?</p> <br> <div class=""container""> <div id=""a-box""> <p class=""title-text"">A</h3></p> </div> <div id=""x-box""> <p class=""title-text"">X<p> </div> <div id=""b-box""> <p class=""title-text"">B</p></div> <br> <div style='float: left;padding-left:30px;'><p>Press '1' for A</p></div><div style='float: right;padding-right:30px;'><p>Press '0' for B</p> </div> </div></div>","null","","","","","","","","","","","","","","","",""
"3219","","test","audio-keyboard-response","60","258873","0.0-8.0-1.16","5fcaa818ae2a8f7198de4e93","condE","","resources/audio/wordStim/S3_AU_20_axb_Step-6.wav","48","","","","","","resources/audio/wordStim/S3_AU_20_axb_Step-6.wav","S3","20","axb","6","MI","BL","S3-BL","0","0","true"
"null","","fixation","html-keyboard-response","61","259891","0.0-8.0-0.17","5fcaa818ae2a8f7198de4e93","condE","","<div class=""vertical-center"" style='width:60%;'><p style='font-weight:bold;'>Does the middle word sound more like the first word (A) or the last word (B)?</p> <br> <div class=""container""> <div id=""a-box""> <p class=""title-text"">A</h3></p> </div> <div id=""x-box""> <p class=""title-text"">X<p> </div> <div id=""b-box""> <p class=""title-text"">B</p></div> <br> <div style='float: left;padding-left:30px;'><p>Press '1' for A</p></div><div style='float: right;padding-right:30px;'><p>Press '0' for B</p> </div> </div></div>","null","","","","","","","","","","","","","","","",""
"3429","","test","audio-keyboard-response","62","263325","0.0-8.0-1.17","5fcaa818ae2a8f7198de4e93","condE","","resources/audio/wordStim/S3_AU_18_axb_Step-6.wav","49","","","","","","resources/audio/wordStim/S3_AU_18_axb_Step-6.wav","S3","18","axb","6","MI","BL","S3-BL","0","1","false"
"null","","fixation","html-keyboard-response","63","264341","0.0-8.0-0.18","5fcaa818ae2a8f7198de4e93","condE","","<div class=""vertical-center"" style='width:60%;'><p style='font-weight:bold;'>Does the middle word sound more like the first word (A) or the last word (B)?</p> <br> <div class=""container""> <div id=""a-box""> <p class=""title-text"">A</h3></p> </div> <div id=""x-box""> <p class=""title-text"">X<p> </div> <div id=""b-box""> <p class=""title-text"">B</p></div> <br> <div style='float: left;padding-left:30px;'><p>Press '1' for A</p></div><div style='float: right;padding-right:30px;'><p>Press '0' for B</p> </div> </div></div>","null","","","","","","","","","","","","","","","",""
"2368","","test","audio-keyboard-response","64","266713","0.0-8.0-1.18","5fcaa818ae2a8f7198de4e93","condE","","resources/audio/wordStim/S3_AI_22_bxa_Step-4.wav","49","","","","","","resources/audio/wordStim/S3_AI_22_bxa_Step-4.wav","S3","22","bxa","4","MI","BL","S3-BL","1","1","true"
"null","","fixation","html-keyboard-response","65","267733","0.0-8.0-0.19","5fcaa818ae2a8f7198de4e93","condE","","<div class=""vertical-center"" style='width:60%;'><p style='font-weight:bold;'>Does the middle word sound more like the first word (A) or the last word (B)?</p> <br> <div class=""container""> <div id=""a-box""> <p class=""title-text"">A</h3></p> </div> <div id=""x-box""> <p class=""title-text"">X<p> </div> <div id=""b-box""> <p class=""title-text"">B</p></div> <br> <div style='float: left;padding-left:30px;'><p>Press '1' for A</p></div><div style='float: right;padding-right:30px;'><p>Press '0' for B</p> </div> </div></div>","null","","","","","","","","","","","","","","","",""
"4120","","test","audio-keyboard-response","66","271854","0.0-8.0-1.19","5fcaa818ae2a8f7198de4e93","condE","","resources/audio/wordStim/S3_AU_18_bxa_Step-7.wav","48","","","","","","resources/audio/wordStim/S3_AU_18_bxa_Step-7.wav","S3","18","bxa","7","MI","BL","S3-BL","1","0","false"
"null","","fixation","html-keyboard-response","67","272866","0.0-8.0-0.20","5fcaa818ae2a8f7198de4e93","condE","","<div class=""vertical-center"" style='width:60%;'><p style='font-weight:bold;'>Does the middle word sound more like the first word (A) or the last word (B)?</p> <br> <div class=""container""> <div id=""a-box""> <p class=""title-text"">A</h3></p> </div> <div id=""x-box""> <p class=""title-text"">X<p> </div> <div id=""b-box""> <p class=""title-text"">B</p></div> <br> <div style='float: left;padding-left:30px;'><p>Press '1' for A</p></div><div style='float: right;padding-right:30px;'><p>Press '0' for B</p> </div> </div></div>","null","","","","","","","","","","","","","","","",""
"3101","","test","audio-keyboard-response","68","275966","0.0-8.0-1.20","5fcaa818ae2a8f7198de4e93","condE","","resources/audio/wordStim/S3_AI_30_axb_Step-5.wav","49","","","","","","resources/audio/wordStim/S3_AI_30_axb_Step-5.wav","S3","30","axb","5","MI","BL","S3-BL","0","1","false"
"1729.4049998745322","","break","html-keyboard-response","69","278208","0.0-8.0-2.20-0.20","5fcaa818ae2a8f7198de4e93","condE","","<div class=""vertical-center""><p>Feel free to take a break!</p><i>When you're ready to continue, press SPACE to begin the next trial.</i></p></div>","32","","","","","","","","","","","","","","","",""
"null","","fixation","html-keyboard-response","70","278720","0.0-8.0-0.21","5fcaa818ae2a8f7198de4e93","condE","","<div class=""vertical-center"" style='width:60%;'><p style='font-weight:bold;'>Does the middle word sound more like the first word (A) or the last word (B)?</p> <br> <div class=""container""> <div id=""a-box""> <p class=""title-text"">A</h3></p> </div> <div id=""x-box""> <p class=""title-text"">X<p> </div> <div id=""b-box""> <p class=""title-text"">B</p></div> <br> <div style='float: left;padding-left:30px;'><p>Press '1' for A</p></div><div style='float: right;padding-right:30px;'><p>Press '0' for B</p> </div> </div></div>","null","","","","","","","","","","","","","","","",""
"3000","","test","audio-keyboard-response","71","281719","0.0-8.0-1.21","5fcaa818ae2a8f7198de4e93","condE","","resources/audio/wordStim/S3_AU_20_bxa_Step-2.wav","48","","","","","","resources/audio/wordStim/S3_AU_20_bxa_Step-2.wav","S3","20","bxa","2","MI","BL","S3-BL","1","0","false"
"null","","fixation","html-keyboard-response","72","282750","0.0-8.0-0.22","5fcaa818ae2a8f7198de4e93","condE","","<div class=""vertical-center"" style='width:60%;'><p style='font-weight:bold;'>Does the middle word sound more like the first word (A) or the last word (B)?</p> <br> <div class=""container""> <div id=""a-box""> <p class=""title-text"">A</h3></p> </div> <div id=""x-box""> <p class=""title-text"">X<p> </div> <div id=""b-box""> <p class=""title-text"">B</p></div> <br> <div style='float: left;padding-left:30px;'><p>Press '1' for A</p></div><div style='float: right;padding-right:30px;'><p>Press '0' for B</p> </div> </div></div>","null","","","","","","","","","","","","","","","",""
"4061","","test","audio-keyboard-response","73","286812","0.0-8.0-1.22","5fcaa818ae2a8f7198de4e93","condE","","resources/audio/wordStim/S3_AU_18_axb_Step-5.wav","49","","","","","","resources/audio/wordStim/S3_AU_18_axb_Step-5.wav","S3","18","axb","5","MI","BL","S3-BL","0","1","false"
"null","","fixation","html-keyboard-response","74","287825","0.0-8.0-0.23","5fcaa818ae2a8f7198de4e93","condE","","<div class=""vertical-center"" style='width:60%;'><p style='font-weight:bold;'>Does the middle word sound more like the first word (A) or the last word (B)?</p> <br> <div class=""container""> <div id=""a-box""> <p class=""title-text"">A</h3></p> </div> <div id=""x-box""> <p class=""title-text"">X<p> </div> <div id=""b-box""> <p class=""title-text"">B</p></div> <br> <div style='float: left;padding-left:30px;'><p>Press '1' for A</p></div><div style='float: right;padding-right:30px;'><p>Press '0' for B</p> </div> </div></div>","null","","","","","","","","","","","","","","","",""
"3131","","test","audio-keyboard-response","75","290963","0.0-8.0-1.23","5fcaa818ae2a8f7198de4e93","condE","","resources/audio/wordStim/S3_AI_22_bxa_Step-8.wav","49","","","","","","resources/audio/wordStim/S3_AI_22_bxa_Step-8.wav","S3","22","bxa","8","MI","BL","S3-BL","1","1","true"
"null","","fixation","html-keyboard-response","76","291995","0.0-8.0-0.24","5fcaa818ae2a8f7198de4e93","condE","","<div class=""vertical-center"" style='width:60%;'><p style='font-weight:bold;'>Does the middle word sound more like the first word (A) or the last word (B)?</p> <br> <div class=""container""> <div id=""a-box""> <p class=""title-text"">A</h3></p> </div> <div id=""x-box""> <p class=""title-text"">X<p> </div> <div id=""b-box""> <p class=""title-text"">B</p></div> <br> <div style='float: left;padding-left:30px;'><p>Press '1' for A</p></div><div style='float: right;padding-right:30px;'><p>Press '0' for B</p> </div> </div></div>","null","","","","","","","","","","","","","","","",""
"2989","","test","audio-keyboard-response","77","294995","0.0-8.0-1.24","5fcaa818ae2a8f7198de4e93","condE","","resources/audio/wordStim/S3_AI_30_bxa_Step-8.wav","49","","","","","","resources/audio/wordStim/S3_AI_30_bxa_Step-8.wav","S3","30","bxa","8","MI","BL","S3-BL","1","1","true"
"null","","fixation","html-keyboard-response","78","296025","0.0-8.0-0.25","5fcaa818ae2a8f7198de4e93","condE","","<div class=""vertical-center"" style='width:60%;'><p style='font-weight:bold;'>Does the middle word sound more like the first word (A) or the last word (B)?</p> <br> <div class=""container""> <div id=""a-box""> <p class=""title-text"">A</h3></p> </div> <div id=""x-box""> <p class=""title-text"">X<p> </div> <div id=""b-box""> <p class=""title-text"">B</p></div> <br> <div style='float: left;padding-left:30px;'><p>Press '1' for A</p></div><div style='float: right;padding-right:30px;'><p>Press '0' for B</p> </div> </div></div>","null","","","","","","","","","","","","","","","",""
"3352","","test","audio-keyboard-response","79","299386","0.0-8.0-1.25","5fcaa818ae2a8f7198de4e93","condE","","resources/audio/wordStim/S3_AI_30_bxa_Step-5.wav","49","","","","","","resources/audio/wordStim/S3_AI_30_bxa_Step-5.wav","S3","30","bxa","5","MI","BL","S3-BL","1","1","true"
"null","","fixation","html-keyboard-response","80","300406","0.0-8.0-0.26","5fcaa818ae2a8f7198de4e93","condE","","<div class=""vertical-center"" style='width:60%;'><p style='font-weight:bold;'>Does the middle word sound more like the first word (A) or the last word (B)?</p> <br> <div class=""container""> <div id=""a-box""> <p class=""title-text"">A</h3></p> </div> <div id=""x-box""> <p class=""title-text"">X<p> </div> <div id=""b-box""> <p class=""title-text"">B</p></div> <br> <div style='float: left;padding-left:30px;'><p>Press '1' for A</p></div><div style='float: right;padding-right:30px;'><p>Press '0' for B</p> </div> </div></div>","null","","","","","","","","","","","","","","","",""
"3149","","test","audio-keyboard-response","81","303561","0.0-8.0-1.26","5fcaa818ae2a8f7198de4e93","condE","","resources/audio/wordStim/S3_AI_30_axb_Step-4.wav","49","","","","","","resources/audio/wordStim/S3_AI_30_axb_Step-4.wav","S3","30","axb","4","MI","BL","S3-BL","0","1","false"
"null","","fixation","html-keyboard-response","82","304577","0.0-8.0-0.27","5fcaa818ae2a8f7198de4e93","condE","","<div class=""vertical-center"" style='width:60%;'><p style='font-weight:bold;'>Does the middle word sound more like the first word (A) or the last word (B)?</p> <br> <div class=""container""> <div id=""a-box""> <p class=""title-text"">A</h3></p> </div> <div id=""x-box""> <p class=""title-text"">X<p> </div> <div id=""b-box""> <p class=""title-text"">B</p></div> <br> <div style='float: left;padding-left:30px;'><p>Press '1' for A</p></div><div style='float: right;padding-right:30px;'><p>Press '0' for B</p> </div> </div></div>","null","","","","","","","","","","","","","","","",""
"3739","","test","audio-keyboard-response","83","308320","0.0-8.0-1.27","5fcaa818ae2a8f7198de4e93","condE","","resources/audio/wordStim/S3_AU_18_axb_Step-4.wav","49","","","","","","resources/audio/wordStim/S3_AU_18_axb_Step-4.wav","S3","18","axb","4","MI","BL","S3-BL","0","1","false"
"null","","fixation","html-keyboard-response","84","309357","0.0-8.0-0.28","5fcaa818ae2a8f7198de4e93","condE","","<div class=""vertical-center"" style='width:60%;'><p style='font-weight:bold;'>Does the middle word sound more like the first word (A) or the last word (B)?</p> <br> <div class=""container""> <div id=""a-box""> <p class=""title-text"">A</h3></p> </div> <div id=""x-box""> <p class=""title-text"">X<p> </div> <div id=""b-box""> <p class=""title-text"">B</p></div> <br> <div style='float: left;padding-left:30px;'><p>Press '1' for A</p></div><div style='float: right;padding-right:30px;'><p>Press '0' for B</p> </div> </div></div>","null","","","","","","","","","","","","","","","",""
"3091","","test","audio-keyboard-response","85","312448","0.0-8.0-1.28","5fcaa818ae2a8f7198de4e93","condE","","resources/audio/wordStim/S3_AU_20_axb_Step-7.wav","48","","","","","","resources/audio/wordStim/S3_AU_20_axb_Step-7.wav","S3","20","axb","7","MI","BL","S3-BL","0","0","true"
"null","","fixation","html-keyboard-response","86","313461","0.0-8.0-0.29","5fcaa818ae2a8f7198de4e93","condE","","<div class=""vertical-center"" style='width:60%;'><p style='font-weight:bold;'>Does the middle word sound more like the first word (A) or the last word (B)?</p> <br> <div class=""container""> <div id=""a-box""> <p class=""title-text"">A</h3></p> </div> <div id=""x-box""> <p class=""title-text"">X<p> </div> <div id=""b-box""> <p class=""title-text"">B</p></div> <br> <div style='float: left;padding-left:30px;'><p>Press '1' for A</p></div><div style='float: right;padding-right:30px;'><p>Press '0' for B</p> </div> </div></div>","null","","","","","","","","","","","","","","","",""
"3389","","test","audio-keyboard-response","87","316856","0.0-8.0-1.29","5fcaa818ae2a8f7198de4e93","condE","","resources/audio/wordStim/S3_AI_30_axb_Step-2.wav","49","","","","","","resources/audio/wordStim/S3_AI_30_axb_Step-2.wav","S3","30","axb","2","MI","BL","S3-BL","0","1","false"
"null","","fixation","html-keyboard-response","88","317876","0.0-8.0-0.30","5fcaa818ae2a8f7198de4e93","condE","","<div class=""vertical-center"" style='width:60%;'><p style='font-weight:bold;'>Does the middle word sound more like the first word (A) or the last word (B)?</p> <br> <div class=""container""> <div id=""a-box""> <p class=""title-text"">A</h3></p> </div> <div id=""x-box""> <p class=""title-text"">X<p> </div> <div id=""b-box""> <p class=""title-text"">B</p></div> <br> <div style='float: left;padding-left:30px;'><p>Press '1' for A</p></div><div style='float: right;padding-right:30px;'><p>Press '0' for B</p> </div> </div></div>","null","","","","","","","","","","","","","","","",""
"3221","","test","audio-keyboard-response","89","321108","0.0-8.0-1.30","5fcaa818ae2a8f7198de4e93","condE","","resources/audio/wordStim/S3_AI_22_axb_Step-8.wav","48","","","","","","resources/audio/wordStim/S3_AI_22_axb_Step-8.wav","S3","22","axb","8","MI","BL","S3-BL","0","0","true"
"null","","fixation","html-keyboard-response","90","322147","0.0-8.0-0.31","5fcaa818ae2a8f7198de4e93","condE","","<div class=""vertical-center"" style='width:60%;'><p style='font-weight:bold;'>Does the middle word sound more like the first word (A) or the last word (B)?</p> <br> <div class=""container""> <div id=""a-box""> <p class=""title-text"">A</h3></p> </div> <div id=""x-box""> <p class=""title-text"">X<p> </div> <div id=""b-box""> <p class=""title-text"">B</p></div> <br> <div style='float: left;padding-left:30px;'><p>Press '1' for A</p></div><div style='float: right;padding-right:30px;'><p>Press '0' for B</p> </div> </div></div>","null","","","","","","","","","","","","","","","",""
"3360","","test","audio-keyboard-response","91","325516","0.0-8.0-1.31","5fcaa818ae2a8f7198de4e93","condE","","resources/audio/wordStim/S3_AI_22_axb_Step-7.wav","49","","","","","","resources/audio/wordStim/S3_AI_22_axb_Step-7.wav","S3","22","axb","7","MI","BL","S3-BL","0","1","false"
"null","","fixation","html-keyboard-response","92","326542","0.0-8.0-0.32","5fcaa818ae2a8f7198de4e93","condE","","<div class=""vertical-center"" style='width:60%;'><p style='font-weight:bold;'>Does the middle word sound more like the first word (A) or the last word (B)?</p> <br> <div class=""container""> <div id=""a-box""> <p class=""title-text"">A</h3></p> </div> <div id=""x-box""> <p class=""title-text"">X<p> </div> <div id=""b-box""> <p class=""title-text"">B</p></div> <br> <div style='float: left;padding-left:30px;'><p>Press '1' for A</p></div><div style='float: right;padding-right:30px;'><p>Press '0' for B</p> </div> </div></div>","null","","","","","","","","","","","","","","","",""
"4499","","test","audio-keyboard-response","93","331042","0.0-8.0-1.32","5fcaa818ae2a8f7198de4e93","condE","","resources/audio/wordStim/S3_AI_22_axb_Step-5.wav","49","","","","","","resources/audio/wordStim/S3_AI_22_axb_Step-5.wav","S3","22","axb","5","MI","BL","S3-BL","0","1","false"
"null","","fixation","html-keyboard-response","94","332062","0.0-8.0-0.33","5fcaa818ae2a8f7198de4e93","condE","","<div class=""vertical-center"" style='width:60%;'><p style='font-weight:bold;'>Does the middle word sound more like the first word (A) or the last word (B)?</p> <br> <div class=""container""> <div id=""a-box""> <p class=""title-text"">A</h3></p> </div> <div id=""x-box""> <p class=""title-text"">X<p> </div> <div id=""b-box""> <p class=""title-text"">B</p></div> <br> <div style='float: left;padding-left:30px;'><p>Press '1' for A</p></div><div style='float: right;padding-right:30px;'><p>Press '0' for B</p> </div> </div></div>","null","","","","","","","","","","","","","","","",""
"2800","","test","audio-keyboard-response","95","334858","0.0-8.0-1.33","5fcaa818ae2a8f7198de4e93","condE","","resources/audio/wordStim/S3_AI_21_bxa_Step-7.wav","49","","","","","","resources/audio/wordStim/S3_AI_21_bxa_Step-7.wav","S3","21","bxa","7","MI","BL","S3-BL","1","1","true"
"null","","fixation","html-keyboard-response","96","335868","0.0-8.0-0.34","5fcaa818ae2a8f7198de4e93","condE","","<div class=""vertical-center"" style='width:60%;'><p style='font-weight:bold;'>Does the middle word sound more like the first word (A) or the last word (B)?</p> <br> <div class=""container""> <div id=""a-box""> <p class=""title-text"">A</h3></p> </div> <div id=""x-box""> <p class=""title-text"">X<p> </div> <div id=""b-box""> <p class=""title-text"">B</p></div> <br> <div style='float: left;padding-left:30px;'><p>Press '1' for A</p></div><div style='float: right;padding-right:30px;'><p>Press '0' for B</p> </div> </div></div>","null","","","","","","","","","","","","","","","",""
"3491","","test","audio-keyboard-response","97","339358","0.0-8.0-1.34","5fcaa818ae2a8f7198de4e93","condE","","resources/audio/wordStim/S3_AU_18_axb_Step-7.wav","48","","","","","","resources/audio/wordStim/S3_AU_18_axb_Step-7.wav","S3","18","axb","7","MI","BL","S3-BL","0","0","true"
"null","","fixation","html-keyboard-response","98","340378","0.0-8.0-0.35","5fcaa818ae2a8f7198de4e93","condE","","<div class=""vertical-center"" style='width:60%;'><p style='font-weight:bold;'>Does the middle word sound more like the first word (A) or the last word (B)?</p> <br> <div class=""container""> <div id=""a-box""> <p class=""title-text"">A</h3></p> </div> <div id=""x-box""> <p class=""title-text"">X<p> </div> <div id=""b-box""> <p class=""title-text"">B</p></div> <br> <div style='float: left;padding-left:30px;'><p>Press '1' for A</p></div><div style='float: right;padding-right:30px;'><p>Press '0' for B</p> </div> </div></div>","null","","","","","","","","","","","","","","","",""
"3139","","test","audio-keyboard-response","99","343522","0.0-8.0-1.35","5fcaa818ae2a8f7198de4e93","condE","","resources/audio/wordStim/S3_AI_22_bxa_Step-6.wav","48","","","","","","resources/audio/wordStim/S3_AI_22_bxa_Step-6.wav","S3","22","bxa","6","MI","BL","S3-BL","1","0","false"
"null","","fixation","html-keyboard-response","100","344556","0.0-8.0-0.36","5fcaa818ae2a8f7198de4e93","condE","","<div class=""vertical-center"" style='width:60%;'><p style='font-weight:bold;'>Does the middle word sound more like the first word (A) or the last word (B)?</p> <br> <div class=""container""> <div id=""a-box""> <p class=""title-text"">A</h3></p> </div> <div id=""x-box""> <p class=""title-text"">X<p> </div> <div id=""b-box""> <p class=""title-text"">B</p></div> <br> <div style='float: left;padding-left:30px;'><p>Press '1' for A</p></div><div style='float: right;padding-right:30px;'><p>Press '0' for B</p> </div> </div></div>","null","","","","","","","","","","","","","","","",""
"3131","","test","audio-keyboard-response","101","347689","0.0-8.0-1.36","5fcaa818ae2a8f7198de4e93","condE","","resources/audio/wordStim/S3_AI_30_axb_Step-3.wav","49","","","","","","resources/audio/wordStim/S3_AI_30_axb_Step-3.wav","S3","30","axb","3","MI","BL","S3-BL","0","1","false"
"null","","fixation","html-keyboard-response","102","348717","0.0-8.0-0.37","5fcaa818ae2a8f7198de4e93","condE","","<div class=""vertical-center"" style='width:60%;'><p style='font-weight:bold;'>Does the middle word sound more like the first word (A) or the last word (B)?</p> <br> <div class=""container""> <div id=""a-box""> <p class=""title-text"">A</h3></p> </div> <div id=""x-box""> <p class=""title-text"">X<p> </div> <div id=""b-box""> <p class=""title-text"">B</p></div> <br> <div style='float: left;padding-left:30px;'><p>Press '1' for A</p></div><div style='float: right;padding-right:30px;'><p>Press '0' for B</p> </div> </div></div>","null","","","","","","","","","","","","","","","",""
"3109","","test","audio-keyboard-response","103","351836","0.0-8.0-1.37","5fcaa818ae2a8f7198de4e93","condE","","resources/audio/wordStim/S3_AI_22_bxa_Step-5.wav","49","","","","","","resources/audio/wordStim/S3_AI_22_bxa_Step-5.wav","S3","22","bxa","5","MI","BL","S3-BL","1","1","true"
"null","","fixation","html-keyboard-response","104","352848","0.0-8.0-0.38","5fcaa818ae2a8f7198de4e93","condE","","<div class=""vertical-center"" style='width:60%;'><p style='font-weight:bold;'>Does the middle word sound more like the first word (A) or the last word (B)?</p> <br> <div class=""container""> <div id=""a-box""> <p class=""title-text"">A</h3></p> </div> <div id=""x-box""> <p class=""title-text"">X<p> </div> <div id=""b-box""> <p class=""title-text"">B</p></div> <br> <div style='float: left;padding-left:30px;'><p>Press '1' for A</p></div><div style='float: right;padding-right:30px;'><p>Press '0' for B</p> </div> </div></div>","null","","","","","","","","","","","","","","","",""
"3600","","test","audio-keyboard-response","105","356450","0.0-8.0-1.38","5fcaa818ae2a8f7198de4e93","condE","","resources/audio/wordStim/S3_AU_18_bxa_Step-3.wav","48","","","","","","resources/audio/wordStim/S3_AU_18_bxa_Step-3.wav","S3","18","bxa","3","MI","BL","S3-BL","1","0","false"
"null","","fixation","html-keyboard-response","106","357461","0.0-8.0-0.39","5fcaa818ae2a8f7198de4e93","condE","","<div class=""vertical-center"" style='width:60%;'><p style='font-weight:bold;'>Does the middle word sound more like the first word (A) or the last word (B)?</p> <br> <div class=""container""> <div id=""a-box""> <p class=""title-text"">A</h3></p> </div> <div id=""x-box""> <p class=""title-text"">X<p> </div> <div id=""b-box""> <p class=""title-text"">B</p></div> <br> <div style='float: left;padding-left:30px;'><p>Press '1' for A</p></div><div style='float: right;padding-right:30px;'><p>Press '0' for B</p> </div> </div></div>","null","","","","","","","","","","","","","","","",""
"3299","","test","audio-keyboard-response","107","360763","0.0-8.0-1.39","5fcaa818ae2a8f7198de4e93","condE","","resources/audio/wordStim/S3_AU_20_bxa_Step-7.wav","49","","","","","","resources/audio/wordStim/S3_AU_20_bxa_Step-7.wav","S3","20","bxa","7","MI","BL","S3-BL","1","1","true"
"null","","fixation","html-keyboard-response","108","361776","0.0-8.0-0.40","5fcaa818ae2a8f7198de4e93","condE","","<div class=""vertical-center"" style='width:60%;'><p style='font-weight:bold;'>Does the middle word sound more like the first word (A) or the last word (B)?</p> <br> <div class=""container""> <div id=""a-box""> <p class=""title-text"">A</h3></p> </div> <div id=""x-box""> <p class=""title-text"">X<p> </div> <div id=""b-box""> <p class=""title-text"">B</p></div> <br> <div style='float: left;padding-left:30px;'><p>Press '1' for A</p></div><div style='float: right;padding-right:30px;'><p>Press '0' for B</p> </div> </div></div>","null","","","","","","","","","","","","","","","",""
"3659","","test","audio-keyboard-response","109","365444","0.0-8.0-1.40","5fcaa818ae2a8f7198de4e93","condE","","resources/audio/wordStim/S3_AU_18_axb_Step-3.wav","49","","","","","","resources/audio/wordStim/S3_AU_18_axb_Step-3.wav","S3","18","axb","3","MI","BL","S3-BL","0","1","false"
"null","","fixation","html-keyboard-response","110","366453","0.0-8.0-0.41","5fcaa818ae2a8f7198de4e93","condE","","<div class=""vertical-center"" style='width:60%;'><p style='font-weight:bold;'>Does the middle word sound more like the first word (A) or the last word (B)?</p> <br> <div class=""container""> <div id=""a-box""> <p class=""title-text"">A</h3></p> </div> <div id=""x-box""> <p class=""title-text"">X<p> </div> <div id=""b-box""> <p class=""title-text"">B</p></div> <br> <div style='float: left;padding-left:30px;'><p>Press '1' for A</p></div><div style='float: right;padding-right:30px;'><p>Press '0' for B</p> </div> </div></div>","null","","","","","","","","","","","","","","","",""
"3589","","test","audio-keyboard-response","111","370041","0.0-8.0-1.41","5fcaa818ae2a8f7198de4e93","condE","","resources/audio/wordStim/S3_AU_18_bxa_Step-4.wav","49","","","","","","resources/audio/wordStim/S3_AU_18_bxa_Step-4.wav","S3","18","bxa","4","MI","BL","S3-BL","1","1","true"
"2514.204999897629","","break","html-keyboard-response","112","373066","0.0-8.0-2.41-0.41","5fcaa818ae2a8f7198de4e93","condE","","<div class=""vertical-center""><p>Feel free to take a break!</p><i>When you're ready to continue, press SPACE to begin the next trial.</i></p></div>","32","","","","","","","","","","","","","","","",""
"null","","fixation","html-keyboard-response","113","373578","0.0-8.0-0.42","5fcaa818ae2a8f7198de4e93","condE","","<div class=""vertical-center"" style='width:60%;'><p style='font-weight:bold;'>Does the middle word sound more like the first word (A) or the last word (B)?</p> <br> <div class=""container""> <div id=""a-box""> <p class=""title-text"">A</h3></p> </div> <div id=""x-box""> <p class=""title-text"">X<p> </div> <div id=""b-box""> <p class=""title-text"">B</p></div> <br> <div style='float: left;padding-left:30px;'><p>Press '1' for A</p></div><div style='float: right;padding-right:30px;'><p>Press '0' for B</p> </div> </div></div>","null","","","","","","","","","","","","","","","",""
"3339","","test","audio-keyboard-response","114","376919","0.0-8.0-1.42","5fcaa818ae2a8f7198de4e93","condE","","resources/audio/wordStim/S3_AI_30_axb_Step-8.wav","49","","","","","","resources/audio/wordStim/S3_AI_30_axb_Step-8.wav","S3","30","axb","8","MI","BL","S3-BL","0","1","false"
"null","","fixation","html-keyboard-response","115","377931","0.0-8.0-0.43","5fcaa818ae2a8f7198de4e93","condE","","<div class=""vertical-center"" style='width:60%;'><p style='font-weight:bold;'>Does the middle word sound more like the first word (A) or the last word (B)?</p> <br> <div class=""container""> <div id=""a-box""> <p class=""title-text"">A</h3></p> </div> <div id=""x-box""> <p class=""title-text"">X<p> </div> <div id=""b-box""> <p class=""title-text"">B</p></div> <br> <div style='float: left;padding-left:30px;'><p>Press '1' for A</p></div><div style='float: right;padding-right:30px;'><p>Press '0' for B</p> </div> </div></div>","null","","","","","","","","","","","","","","","",""
"2520","","test","audio-keyboard-response","116","380448","0.0-8.0-1.43","5fcaa818ae2a8f7198de4e93","condE","","resources/audio/wordStim/S3_AI_21_axb_Step-6.wav","48","","","","","","resources/audio/wordStim/S3_AI_21_axb_Step-6.wav","S3","21","axb","6","MI","BL","S3-BL","0","0","true"
"null","","fixation","html-keyboard-response","117","381474","0.0-8.0-0.44","5fcaa818ae2a8f7198de4e93","condE","","<div class=""vertical-center"" style='width:60%;'><p style='font-weight:bold;'>Does the middle word sound more like the first word (A) or the last word (B)?</p> <br> <div class=""container""> <div id=""a-box""> <p class=""title-text"">A</h3></p> </div> <div id=""x-box""> <p class=""title-text"">X<p> </div> <div id=""b-box""> <p class=""title-text"">B</p></div> <br> <div style='float: left;padding-left:30px;'><p>Press '1' for A</p></div><div style='float: right;padding-right:30px;'><p>Press '0' for B</p> </div> </div></div>","null","","","","","","","","","","","","","","","",""
"2912","","test","audio-keyboard-response","118","384381","0.0-8.0-1.44","5fcaa818ae2a8f7198de4e93","condE","","resources/audio/wordStim/S3_AU_19_bxa_Step-8.wav","49","","","","","","resources/audio/wordStim/S3_AU_19_bxa_Step-8.wav","S3","19","bxa","8","MI","BL","S3-BL","1","1","true"
"null","","fixation","html-keyboard-response","119","385402","0.0-8.0-0.45","5fcaa818ae2a8f7198de4e93","condE","","<div class=""vertical-center"" style='width:60%;'><p style='font-weight:bold;'>Does the middle word sound more like the first word (A) or the last word (B)?</p> <br> <div class=""container""> <div id=""a-box""> <p class=""title-text"">A</h3></p> </div> <div id=""x-box""> <p class=""title-text"">X<p> </div> <div id=""b-box""> <p class=""title-text"">B</p></div> <br> <div style='float: left;padding-left:30px;'><p>Press '1' for A</p></div><div style='float: right;padding-right:30px;'><p>Press '0' for B</p> </div> </div></div>","null","","","","","","","","","","","","","","","",""
"3229","","test","audio-keyboard-response","120","388628","0.0-8.0-1.45","5fcaa818ae2a8f7198de4e93","condE","","resources/audio/wordStim/S3_AI_30_bxa_Step-6.wav","49","","","","","","resources/audio/wordStim/S3_AI_30_bxa_Step-6.wav","S3","30","bxa","6","MI","BL","S3-BL","1","1","true"
"null","","fixation","html-keyboard-response","121","389666","0.0-8.0-0.46","5fcaa818ae2a8f7198de4e93","condE","","<div class=""vertical-center"" style='width:60%;'><p style='font-weight:bold;'>Does the middle word sound more like the first word (A) or the last word (B)?</p> <br> <div class=""container""> <div id=""a-box""> <p class=""title-text"">A</h3></p> </div> <div id=""x-box""> <p class=""title-text"">X<p> </div> <div id=""b-box""> <p class=""title-text"">B</p></div> <br> <div style='float: left;padding-left:30px;'><p>Press '1' for A</p></div><div style='float: right;padding-right:30px;'><p>Press '0' for B</p> </div> </div></div>","null","","","","","","","","","","","","","","","",""
"3080","","test","audio-keyboard-response","122","392750","0.0-8.0-1.46","5fcaa818ae2a8f7198de4e93","condE","","resources/audio/wordStim/S3_AU_20_bxa_Step-6.wav","49","","","","","","resources/audio/wordStim/S3_AU_20_bxa_Step-6.wav","S3","20","bxa","6","MI","BL","S3-BL","1","1","true"
"null","","fixation","html-keyboard-response","123","393757","0.0-8.0-0.47","5fcaa818ae2a8f7198de4e93","condE","","<div class=""vertical-center"" style='width:60%;'><p style='font-weight:bold;'>Does the middle word sound more like the first word (A) or the last word (B)?</p> <br> <div class=""container""> <div id=""a-box""> <p class=""title-text"">A</h3></p> </div> <div id=""x-box""> <p class=""title-text"">X<p> </div> <div id=""b-box""> <p class=""title-text"">B</p></div> <br> <div style='float: left;padding-left:30px;'><p>Press '1' for A</p></div><div style='float: right;padding-right:30px;'><p>Press '0' for B</p> </div> </div></div>","null","","","","","","","","","","","","","","","",""
"3189","","test","audio-keyboard-response","124","396952","0.0-8.0-1.47","5fcaa818ae2a8f7198de4e93","condE","","resources/audio/wordStim/S3_AI_21_bxa_Step-5.wav","49","","","","","","resources/audio/wordStim/S3_AI_21_bxa_Step-5.wav","S3","21","bxa","5","MI","BL","S3-BL","1","1","true"
"null","","fixation","html-keyboard-response","125","397971","0.0-8.0-0.48","5fcaa818ae2a8f7198de4e93","condE","","<div class=""vertical-center"" style='width:60%;'><p style='font-weight:bold;'>Does the middle word sound more like the first word (A) or the last word (B)?</p> <br> <div class=""container""> <div id=""a-box""> <p class=""title-text"">A</h3></p> </div> <div id=""x-box""> <p class=""title-text"">X<p> </div> <div id=""b-box""> <p class=""title-text"">B</p></div> <br> <div style='float: left;padding-left:30px;'><p>Press '1' for A</p></div><div style='float: right;padding-right:30px;'><p>Press '0' for B</p> </div> </div></div>","null","","","","","","","","","","","","","","","",""
"3269","","test","audio-keyboard-response","126","401241","0.0-8.0-1.48","5fcaa818ae2a8f7198de4e93","condE","","resources/audio/wordStim/S3_AI_30_axb_Step-6.wav","49","","","","","","resources/audio/wordStim/S3_AI_30_axb_Step-6.wav","S3","30","axb","6","MI","BL","S3-BL","0","1","false"
"null","","fixation","html-keyboard-response","127","402261","0.0-8.0-0.49","5fcaa818ae2a8f7198de4e93","condE","","<div class=""vertical-center"" style='width:60%;'><p style='font-weight:bold;'>Does the middle word sound more like the first word (A) or the last word (B)?</p> <br> <div class=""container""> <div id=""a-box""> <p class=""title-text"">A</h3></p> </div> <div id=""x-box""> <p class=""title-text"">X<p> </div> <div id=""b-box""> <p class=""title-text"">B</p></div> <br> <div style='float: left;padding-left:30px;'><p>Press '1' for A</p></div><div style='float: right;padding-right:30px;'><p>Press '0' for B</p> </div> </div></div>","null","","","","","","","","","","","","","","","",""
"3019","","test","audio-keyboard-response","128","405281","0.0-8.0-1.49","5fcaa818ae2a8f7198de4e93","condE","","resources/audio/wordStim/S3_AU_19_axb_Step-7.wav","48","","","","","","resources/audio/wordStim/S3_AU_19_axb_Step-7.wav","S3","19","axb","7","MI","BL","S3-BL","0","0","true"
"null","","fixation","html-keyboard-response","129","406297","0.0-8.0-0.50","5fcaa818ae2a8f7198de4e93","condE","","<div class=""vertical-center"" style='width:60%;'><p style='font-weight:bold;'>Does the middle word sound more like the first word (A) or the last word (B)?</p> <br> <div class=""container""> <div id=""a-box""> <p class=""title-text"">A</h3></p> </div> <div id=""x-box""> <p class=""title-text"">X<p> </div> <div id=""b-box""> <p class=""title-text"">B</p></div> <br> <div style='float: left;padding-left:30px;'><p>Press '1' for A</p></div><div style='float: right;padding-right:30px;'><p>Press '0' for B</p> </div> </div></div>","null","","","","","","","","","","","","","","","",""
"3069","","test","audio-keyboard-response","130","409369","0.0-8.0-1.50","5fcaa818ae2a8f7198de4e93","condE","","resources/audio/wordStim/S3_AU_20_axb_Step-3.wav","49","","","","","","resources/audio/wordStim/S3_AU_20_axb_Step-3.wav","S3","20","axb","3","MI","BL","S3-BL","0","1","false"
"null","","fixation","html-keyboard-response","131","410397","0.0-8.0-0.51","5fcaa818ae2a8f7198de4e93","condE","","<div class=""vertical-center"" style='width:60%;'><p style='font-weight:bold;'>Does the middle word sound more like the first word (A) or the last word (B)?</p> <br> <div class=""container""> <div id=""a-box""> <p class=""title-text"">A</h3></p> </div> <div id=""x-box""> <p class=""title-text"">X<p> </div> <div id=""b-box""> <p class=""title-text"">B</p></div> <br> <div style='float: left;padding-left:30px;'><p>Press '1' for A</p></div><div style='float: right;padding-right:30px;'><p>Press '0' for B</p> </div> </div></div>","null","","","","","","","","","","","","","","","",""
"3109","","test","audio-keyboard-response","132","413509","0.0-8.0-1.51","5fcaa818ae2a8f7198de4e93","condE","","resources/audio/wordStim/S3_AU_19_axb_Step-4.wav","49","","","","","","resources/audio/wordStim/S3_AU_19_axb_Step-4.wav","S3","19","axb","4","MI","BL","S3-BL","0","1","false"
"null","","fixation","html-keyboard-response","133","414547","0.0-8.0-0.52","5fcaa818ae2a8f7198de4e93","condE","","<div class=""vertical-center"" style='width:60%;'><p style='font-weight:bold;'>Does the middle word sound more like the first word (A) or the last word (B)?</p> <br> <div class=""container""> <div id=""a-box""> <p class=""title-text"">A</h3></p> </div> <div id=""x-box""> <p class=""title-text"">X<p> </div> <div id=""b-box""> <p class=""title-text"">B</p></div> <br> <div style='float: left;padding-left:30px;'><p>Press '1' for A</p></div><div style='float: right;padding-right:30px;'><p>Press '0' for B</p> </div> </div></div>","null","","","","","","","","","","","","","","","",""
"3200","","test","audio-keyboard-response","134","417750","0.0-8.0-1.52","5fcaa818ae2a8f7198de4e93","condE","","resources/audio/wordStim/S3_AI_30_axb_Step-7.wav","49","","","","","","resources/audio/wordStim/S3_AI_30_axb_Step-7.wav","S3","30","axb","7","MI","BL","S3-BL","0","1","false"
"null","","fixation","html-keyboard-response","135","418769","0.0-8.0-0.53","5fcaa818ae2a8f7198de4e93","condE","","<div class=""vertical-center"" style='width:60%;'><p style='font-weight:bold;'>Does the middle word sound more like the first word (A) or the last word (B)?</p> <br> <div class=""container""> <div id=""a-box""> <p class=""title-text"">A</h3></p> </div> <div id=""x-box""> <p class=""title-text"">X<p> </div> <div id=""b-box""> <p class=""title-text"">B</p></div> <br> <div style='float: left;padding-left:30px;'><p>Press '1' for A</p></div><div style='float: right;padding-right:30px;'><p>Press '0' for B</p> </div> </div></div>","null","","","","","","","","","","","","","","","",""
"3429","","test","audio-keyboard-response","136","422203","0.0-8.0-1.53","5fcaa818ae2a8f7198de4e93","condE","","resources/audio/wordStim/S3_AU_18_bxa_Step-8.wav","49","","","","","","resources/audio/wordStim/S3_AU_18_bxa_Step-8.wav","S3","18","bxa","8","MI","BL","S3-BL","1","1","true"
"null","","fixation","html-keyboard-response","137","423218","0.0-8.0-0.54","5fcaa818ae2a8f7198de4e93","condE","","<div class=""vertical-center"" style='width:60%;'><p style='font-weight:bold;'>Does the middle word sound more like the first word (A) or the last word (B)?</p> <br> <div class=""container""> <div id=""a-box""> <p class=""title-text"">A</h3></p> </div> <div id=""x-box""> <p class=""title-text"">X<p> </div> <div id=""b-box""> <p class=""title-text"">B</p></div> <br> <div style='float: left;padding-left:30px;'><p>Press '1' for A</p></div><div style='float: right;padding-right:30px;'><p>Press '0' for B</p> </div> </div></div>","null","","","","","","","","","","","","","","","",""
"3240","","test","audio-keyboard-response","138","426463","0.0-8.0-1.54","5fcaa818ae2a8f7198de4e93","condE","","resources/audio/wordStim/S3_AI_22_axb_Step-2.wav","49","","","","","","resources/audio/wordStim/S3_AI_22_axb_Step-2.wav","S3","22","axb","2","MI","BL","S3-BL","0","1","false"
"null","","fixation","html-keyboard-response","139","427478","0.0-8.0-0.55","5fcaa818ae2a8f7198de4e93","condE","","<div class=""vertical-center"" style='width:60%;'><p style='font-weight:bold;'>Does the middle word sound more like the first word (A) or the last word (B)?</p> <br> <div class=""container""> <div id=""a-box""> <p class=""title-text"">A</h3></p> </div> <div id=""x-box""> <p class=""title-text"">X<p> </div> <div id=""b-box""> <p class=""title-text"">B</p></div> <br> <div style='float: left;padding-left:30px;'><p>Press '1' for A</p></div><div style='float: right;padding-right:30px;'><p>Press '0' for B</p> </div> </div></div>","null","","","","","","","","","","","","","","","",""
"3560","","test","audio-keyboard-response","140","431038","0.0-8.0-1.55","5fcaa818ae2a8f7198de4e93","condE","","resources/audio/wordStim/S3_AI_30_bxa_Step-3.wav","49","","","","","","resources/audio/wordStim/S3_AI_30_bxa_Step-3.wav","S3","30","bxa","3","MI","BL","S3-BL","1","1","true"
"null","","fixation","html-keyboard-response","141","432056","0.0-8.0-0.56","5fcaa818ae2a8f7198de4e93","condE","","<div class=""vertical-center"" style='width:60%;'><p style='font-weight:bold;'>Does the middle word sound more like the first word (A) or the last word (B)?</p> <br> <div class=""container""> <div id=""a-box""> <p class=""title-text"">A</h3></p> </div> <div id=""x-box""> <p class=""title-text"">X<p> </div> <div id=""b-box""> <p class=""title-text"">B</p></div> <br> <div style='float: left;padding-left:30px;'><p>Press '1' for A</p></div><div style='float: right;padding-right:30px;'><p>Press '0' for B</p> </div> </div></div>","null","","","","","","","","","","","","","","","",""
"2288","","test","audio-keyboard-response","142","434348","0.0-8.0-1.56","5fcaa818ae2a8f7198de4e93","condE","","resources/audio/wordStim/S3_AI_21_axb_Step-7.wav","49","","","","","","resources/audio/wordStim/S3_AI_21_axb_Step-7.wav","S3","21","axb","7","MI","BL","S3-BL","0","1","false"
"null","","fixation","html-keyboard-response","143","435357","0.0-8.0-0.57","5fcaa818ae2a8f7198de4e93","condE","","<div class=""vertical-center"" style='width:60%;'><p style='font-weight:bold;'>Does the middle word sound more like the first word (A) or the last word (B)?</p> <br> <div class=""container""> <div id=""a-box""> <p class=""title-text"">A</h3></p> </div> <div id=""x-box""> <p class=""title-text"">X<p> </div> <div id=""b-box""> <p class=""title-text"">B</p></div> <br> <div style='float: left;padding-left:30px;'><p>Press '1' for A</p></div><div style='float: right;padding-right:30px;'><p>Press '0' for B</p> </div> </div></div>","null","","","","","","","","","","","","","","","",""
"2760","","test","audio-keyboard-response","144","438127","0.0-8.0-1.57","5fcaa818ae2a8f7198de4e93","condE","","resources/audio/wordStim/S3_AI_21_bxa_Step-8.wav","49","","","","","","resources/audio/wordStim/S3_AI_21_bxa_Step-8.wav","S3","21","bxa","8","MI","BL","S3-BL","1","1","true"
"null","","fixation","html-keyboard-response","145","439146","0.0-8.0-0.58","5fcaa818ae2a8f7198de4e93","condE","","<div class=""vertical-center"" style='width:60%;'><p style='font-weight:bold;'>Does the middle word sound more like the first word (A) or the last word (B)?</p> <br> <div class=""container""> <div id=""a-box""> <p class=""title-text"">A</h3></p> </div> <div id=""x-box""> <p class=""title-text"">X<p> </div> <div id=""b-box""> <p class=""title-text"">B</p></div> <br> <div style='float: left;padding-left:30px;'><p>Press '1' for A</p></div><div style='float: right;padding-right:30px;'><p>Press '0' for B</p> </div> </div></div>","null","","","","","","","","","","","","","","","",""
"2680","","test","audio-keyboard-response","146","441834","0.0-8.0-1.58","5fcaa818ae2a8f7198de4e93","condE","","resources/audio/wordStim/S3_AI_21_axb_Step-2.wav","49","","","","","","resources/audio/wordStim/S3_AI_21_axb_Step-2.wav","S3","21","axb","2","MI","BL","S3-BL","0","1","false"
"null","","fixation","html-keyboard-response","147","442856","0.0-8.0-0.59","5fcaa818ae2a8f7198de4e93","condE","","<div class=""vertical-center"" style='width:60%;'><p style='font-weight:bold;'>Does the middle word sound more like the first word (A) or the last word (B)?</p> <br> <div class=""container""> <div id=""a-box""> <p class=""title-text"">A</h3></p> </div> <div id=""x-box""> <p class=""title-text"">X<p> </div> <div id=""b-box""> <p class=""title-text"">B</p></div> <br> <div style='float: left;padding-left:30px;'><p>Press '1' for A</p></div><div style='float: right;padding-right:30px;'><p>Press '0' for B</p> </div> </div></div>","null","","","","","","","","","","","","","","","",""
"3040","","test","audio-keyboard-response","148","445898","0.0-8.0-1.59","5fcaa818ae2a8f7198de4e93","condE","","resources/audio/wordStim/S3_AU_20_bxa_Step-5.wav","48","","","","","","resources/audio/wordStim/S3_AU_20_bxa_Step-5.wav","S3","20","bxa","5","MI","BL","S3-BL","1","0","false"
"null","","fixation","html-keyboard-response","149","446921","0.0-8.0-0.60","5fcaa818ae2a8f7198de4e93","condE","","<div class=""vertical-center"" style='width:60%;'><p style='font-weight:bold;'>Does the middle word sound more like the first word (A) or the last word (B)?</p> <br> <div class=""container""> <div id=""a-box""> <p class=""title-text"">A</h3></p> </div> <div id=""x-box""> <p class=""title-text"">X<p> </div> <div id=""b-box""> <p class=""title-text"">B</p></div> <br> <div style='float: left;padding-left:30px;'><p>Press '1' for A</p></div><div style='float: right;padding-right:30px;'><p>Press '0' for B</p> </div> </div></div>","null","","","","","","","","","","","","","","","",""
"3211","","test","audio-keyboard-response","150","450135","0.0-8.0-1.60","5fcaa818ae2a8f7198de4e93","condE","","resources/audio/wordStim/S3_AI_22_axb_Step-4.wav","49","","","","","","resources/audio/wordStim/S3_AI_22_axb_Step-4.wav","S3","22","axb","4","MI","BL","S3-BL","0","1","false"
"null","","fixation","html-keyboard-response","151","451147","0.0-8.0-0.61","5fcaa818ae2a8f7198de4e93","condE","","<div class=""vertical-center"" style='width:60%;'><p style='font-weight:bold;'>Does the middle word sound more like the first word (A) or the last word (B)?</p> <br> <div class=""container""> <div id=""a-box""> <p class=""title-text"">A</h3></p> </div> <div id=""x-box""> <p class=""title-text"">X<p> </div> <div id=""b-box""> <p class=""title-text"">B</p></div> <br> <div style='float: left;padding-left:30px;'><p>Press '1' for A</p></div><div style='float: right;padding-right:30px;'><p>Press '0' for B</p> </div> </div></div>","null","","","","","","","","","","","","","","","",""
"3011","","test","audio-keyboard-response","152","454166","0.0-8.0-1.61","5fcaa818ae2a8f7198de4e93","condE","","resources/audio/wordStim/S3_AI_21_bxa_Step-4.wav","48","","","","","","resources/audio/wordStim/S3_AI_21_bxa_Step-4.wav","S3","21","bxa","4","MI","BL","S3-BL","1","0","false"
"null","","fixation","html-keyboard-response","153","455196","0.0-8.0-0.62","5fcaa818ae2a8f7198de4e93","condE","","<div class=""vertical-center"" style='width:60%;'><p style='font-weight:bold;'>Does the middle word sound more like the first word (A) or the last word (B)?</p> <br> <div class=""container""> <div id=""a-box""> <p class=""title-text"">A</h3></p> </div> <div id=""x-box""> <p class=""title-text"">X<p> </div> <div id=""b-box""> <p class=""title-text"">B</p></div> <br> <div style='float: left;padding-left:30px;'><p>Press '1' for A</p></div><div style='float: right;padding-right:30px;'><p>Press '0' for B</p> </div> </div></div>","null","","","","","","","","","","","","","","","",""
"3149","","test","audio-keyboard-response","154","458356","0.0-8.0-1.62","5fcaa818ae2a8f7198de4e93","condE","","resources/audio/wordStim/S3_AI_21_axb_Step-5.wav","49","","","","","","resources/audio/wordStim/S3_AI_21_axb_Step-5.wav","S3","21","axb","5","MI","BL","S3-BL","0","1","false"
"1696.1149999406189","","break","html-keyboard-response","155","460573","0.0-8.0-2.62-0.62","5fcaa818ae2a8f7198de4e93","condE","","<div class=""vertical-center""><p>Feel free to take a break!</p><i>When you're ready to continue, press SPACE to begin the next trial.</i></p></div>","32","","","","","","","","","","","","","","","",""
"null","","fixation","html-keyboard-response","156","461086","0.0-8.0-0.63","5fcaa818ae2a8f7198de4e93","condE","","<div class=""vertical-center"" style='width:60%;'><p style='font-weight:bold;'>Does the middle word sound more like the first word (A) or the last word (B)?</p> <br> <div class=""container""> <div id=""a-box""> <p class=""title-text"">A</h3></p> </div> <div id=""x-box""> <p class=""title-text"">X<p> </div> <div id=""b-box""> <p class=""title-text"">B</p></div> <br> <div style='float: left;padding-left:30px;'><p>Press '1' for A</p></div><div style='float: right;padding-right:30px;'><p>Press '0' for B</p> </div> </div></div>","null","","","","","","","","","","","","","","","",""
"2851","","test","audio-keyboard-response","157","463941","0.0-8.0-1.63","5fcaa818ae2a8f7198de4e93","condE","","resources/audio/wordStim/S3_AU_19_axb_Step-3.wav","49","","","","","","resources/audio/wordStim/S3_AU_19_axb_Step-3.wav","S3","19","axb","3","MI","BL","S3-BL","0","1","false"
"null","","fixation","html-keyboard-response","158","464959","0.0-8.0-0.64","5fcaa818ae2a8f7198de4e93","condE","","<div class=""vertical-center"" style='width:60%;'><p style='font-weight:bold;'>Does the middle word sound more like the first word (A) or the last word (B)?</p> <br> <div class=""container""> <div id=""a-box""> <p class=""title-text"">A</h3></p> </div> <div id=""x-box""> <p class=""title-text"">X<p> </div> <div id=""b-box""> <p class=""title-text"">B</p></div> <br> <div style='float: left;padding-left:30px;'><p>Press '1' for A</p></div><div style='float: right;padding-right:30px;'><p>Press '0' for B</p> </div> </div></div>","null","","","","","","","","","","","","","","","",""
"3131","","test","audio-keyboard-response","159","468094","0.0-8.0-1.64","5fcaa818ae2a8f7198de4e93","condE","","resources/audio/wordStim/S3_AU_20_bxa_Step-3.wav","49","","","","","","resources/audio/wordStim/S3_AU_20_bxa_Step-3.wav","S3","20","bxa","3","MI","BL","S3-BL","1","1","true"
"null","","fixation","html-keyboard-response","160","469108","0.0-8.0-0.65","5fcaa818ae2a8f7198de4e93","condE","","<div class=""vertical-center"" style='width:60%;'><p style='font-weight:bold;'>Does the middle word sound more like the first word (A) or the last word (B)?</p> <br> <div class=""container""> <div id=""a-box""> <p class=""title-text"">A</h3></p> </div> <div id=""x-box""> <p class=""title-text"">X<p> </div> <div id=""b-box""> <p class=""title-text"">B</p></div> <br> <div style='float: left;padding-left:30px;'><p>Press '1' for A</p></div><div style='float: right;padding-right:30px;'><p>Press '0' for B</p> </div> </div></div>","null","","","","","","","","","","","","","","","",""
"2651","","test","audio-keyboard-response","161","471760","0.0-8.0-1.65","5fcaa818ae2a8f7198de4e93","condE","","resources/audio/wordStim/S3_AI_21_bxa_Step-3.wav","49","","","","","","resources/audio/wordStim/S3_AI_21_bxa_Step-3.wav","S3","21","bxa","3","MI","BL","S3-BL","1","1","true"
"null","","fixation","html-keyboard-response","162","472772","0.0-8.0-0.66","5fcaa818ae2a8f7198de4e93","condE","","<div class=""vertical-center"" style='width:60%;'><p style='font-weight:bold;'>Does the middle word sound more like the first word (A) or the last word (B)?</p> <br> <div class=""container""> <div id=""a-box""> <p class=""title-text"">A</h3></p> </div> <div id=""x-box""> <p class=""title-text"">X<p> </div> <div id=""b-box""> <p class=""title-text"">B</p></div> <br> <div style='float: left;padding-left:30px;'><p>Press '1' for A</p></div><div style='float: right;padding-right:30px;'><p>Press '0' for B</p> </div> </div></div>","null","","","","","","","","","","","","","","","",""
"2960","","test","audio-keyboard-response","163","475735","0.0-8.0-1.66","5fcaa818ae2a8f7198de4e93","condE","","resources/audio/wordStim/S3_AU_19_bxa_Step-5.wav","49","","","","","","resources/audio/wordStim/S3_AU_19_bxa_Step-5.wav","S3","19","bxa","5","MI","BL","S3-BL","1","1","true"
"null","","fixation","html-keyboard-response","164","476751","0.0-8.0-0.67","5fcaa818ae2a8f7198de4e93","condE","","<div class=""vertical-center"" style='width:60%;'><p style='font-weight:bold;'>Does the middle word sound more like the first word (A) or the last word (B)?</p> <br> <div class=""container""> <div id=""a-box""> <p class=""title-text"">A</h3></p> </div> <div id=""x-box""> <p class=""title-text"">X<p> </div> <div id=""b-box""> <p class=""title-text"">B</p></div> <br> <div style='float: left;padding-left:30px;'><p>Press '1' for A</p></div><div style='float: right;padding-right:30px;'><p>Press '0' for B</p> </div> </div></div>","null","","","","","","","","","","","","","","","",""
"3040","","test","audio-keyboard-response","165","479790","0.0-8.0-1.67","5fcaa818ae2a8f7198de4e93","condE","","resources/audio/wordStim/S3_AU_19_axb_Step-5.wav","48","","","","","","resources/audio/wordStim/S3_AU_19_axb_Step-5.wav","S3","19","axb","5","MI","BL","S3-BL","0","0","true"
"null","","fixation","html-keyboard-response","166","480807","0.0-8.0-0.68","5fcaa818ae2a8f7198de4e93","condE","","<div class=""vertical-center"" style='width:60%;'><p style='font-weight:bold;'>Does the middle word sound more like the first word (A) or the last word (B)?</p> <br> <div class=""container""> <div id=""a-box""> <p class=""title-text"">A</h3></p> </div> <div id=""x-box""> <p class=""title-text"">X<p> </div> <div id=""b-box""> <p class=""title-text"">B</p></div> <br> <div style='float: left;padding-left:30px;'><p>Press '1' for A</p></div><div style='float: right;padding-right:30px;'><p>Press '0' for B</p> </div> </div></div>","null","","","","","","","","","","","","","","","",""
"3179","","test","audio-keyboard-response","167","483995","0.0-8.0-1.68","5fcaa818ae2a8f7198de4e93","condE","","resources/audio/wordStim/S3_AI_22_axb_Step-3.wav","49","","","","","","resources/audio/wordStim/S3_AI_22_axb_Step-3.wav","S3","22","axb","3","MI","BL","S3-BL","0","1","false"
"null","","fixation","html-keyboard-response","168","485022","0.0-8.0-0.69","5fcaa818ae2a8f7198de4e93","condE","","<div class=""vertical-center"" style='width:60%;'><p style='font-weight:bold;'>Does the middle word sound more like the first word (A) or the last word (B)?</p> <br> <div class=""container""> <div id=""a-box""> <p class=""title-text"">A</h3></p> </div> <div id=""x-box""> <p class=""title-text"">X<p> </div> <div id=""b-box""> <p class=""title-text"">B</p></div> <br> <div style='float: left;padding-left:30px;'><p>Press '1' for A</p></div><div style='float: right;padding-right:30px;'><p>Press '0' for B</p> </div> </div></div>","null","","","","","","","","","","","","","","","",""
"3739","","test","audio-keyboard-response","169","488761","0.0-8.0-1.69","5fcaa818ae2a8f7198de4e93","condE","","resources/audio/wordStim/S3_AI_30_bxa_Step-2.wav","48","","","","","","resources/audio/wordStim/S3_AI_30_bxa_Step-2.wav","S3","30","bxa","2","MI","BL","S3-BL","1","0","false"
"null","","fixation","html-keyboard-response","170","489795","0.0-8.0-0.70","5fcaa818ae2a8f7198de4e93","condE","","<div class=""vertical-center"" style='width:60%;'><p style='font-weight:bold;'>Does the middle word sound more like the first word (A) or the last word (B)?</p> <br> <div class=""container""> <div id=""a-box""> <p class=""title-text"">A</h3></p> </div> <div id=""x-box""> <p class=""title-text"">X<p> </div> <div id=""b-box""> <p class=""title-text"">B</p></div> <br> <div style='float: left;padding-left:30px;'><p>Press '1' for A</p></div><div style='float: right;padding-right:30px;'><p>Press '0' for B</p> </div> </div></div>","null","","","","","","","","","","","","","","","",""
"3381","","test","audio-keyboard-response","171","493177","0.0-8.0-1.70","5fcaa818ae2a8f7198de4e93","condE","","resources/audio/wordStim/S3_AI_22_bxa_Step-2.wav","49","","","","","","resources/audio/wordStim/S3_AI_22_bxa_Step-2.wav","S3","22","bxa","2","MI","BL","S3-BL","1","1","true"
"null","","fixation","html-keyboard-response","172","494212","0.0-8.0-0.71","5fcaa818ae2a8f7198de4e93","condE","","<div class=""vertical-center"" style='width:60%;'><p style='font-weight:bold;'>Does the middle word sound more like the first word (A) or the last word (B)?</p> <br> <div class=""container""> <div id=""a-box""> <p class=""title-text"">A</h3></p> </div> <div id=""x-box""> <p class=""title-text"">X<p> </div> <div id=""b-box""> <p class=""title-text"">B</p></div> <br> <div style='float: left;padding-left:30px;'><p>Press '1' for A</p></div><div style='float: right;padding-right:30px;'><p>Press '0' for B</p> </div> </div></div>","null","","","","","","","","","","","","","","","",""
"3149","","test","audio-keyboard-response","173","497367","0.0-8.0-1.71","5fcaa818ae2a8f7198de4e93","condE","","resources/audio/wordStim/S3_AI_22_bxa_Step-7.wav","49","","","","","","resources/audio/wordStim/S3_AI_22_bxa_Step-7.wav","S3","22","bxa","7","MI","BL","S3-BL","1","1","true"
"null","","fixation","html-keyboard-response","174","498377","0.0-8.0-0.72","5fcaa818ae2a8f7198de4e93","condE","","<div class=""vertical-center"" style='width:60%;'><p style='font-weight:bold;'>Does the middle word sound more like the first word (A) or the last word (B)?</p> <br> <div class=""container""> <div id=""a-box""> <p class=""title-text"">A</h3></p> </div> <div id=""x-box""> <p class=""title-text"">X<p> </div> <div id=""b-box""> <p class=""title-text"">B</p></div> <br> <div style='float: left;padding-left:30px;'><p>Press '1' for A</p></div><div style='float: right;padding-right:30px;'><p>Press '0' for B</p> </div> </div></div>","null","","","","","","","","","","","","","","","",""
"2640","","test","audio-keyboard-response","175","501024","0.0-8.0-1.72","5fcaa818ae2a8f7198de4e93","condE","","resources/audio/wordStim/S3_AI_21_bxa_Step-6.wav","49","","","","","","resources/audio/wordStim/S3_AI_21_bxa_Step-6.wav","S3","21","bxa","6","MI","BL","S3-BL","1","1","true"
"null","","fixation","html-keyboard-response","176","502047","0.0-8.0-0.73","5fcaa818ae2a8f7198de4e93","condE","","<div class=""vertical-center"" style='width:60%;'><p style='font-weight:bold;'>Does the middle word sound more like the first word (A) or the last word (B)?</p> <br> <div class=""container""> <div id=""a-box""> <p class=""title-text"">A</h3></p> </div> <div id=""x-box""> <p class=""title-text"">X<p> </div> <div id=""b-box""> <p class=""title-text"">B</p></div> <br> <div style='float: left;padding-left:30px;'><p>Press '1' for A</p></div><div style='float: right;padding-right:30px;'><p>Press '0' for B</p> </div> </div></div>","null","","","","","","","","","","","","","","","",""
"3600","","test","audio-keyboard-response","177","505649","0.0-8.0-1.73","5fcaa818ae2a8f7198de4e93","condE","","resources/audio/wordStim/S3_AU_20_axb_Step-5.wav","48","","","","","","resources/audio/wordStim/S3_AU_20_axb_Step-5.wav","S3","20","axb","5","MI","BL","S3-BL","0","0","true"
"null","","fixation","html-keyboard-response","178","506665","0.0-8.0-0.74","5fcaa818ae2a8f7198de4e93","condE","","<div class=""vertical-center"" style='width:60%;'><p style='font-weight:bold;'>Does the middle word sound more like the first word (A) or the last word (B)?</p> <br> <div class=""container""> <div id=""a-box""> <p class=""title-text"">A</h3></p> </div> <div id=""x-box""> <p class=""title-text"">X<p> </div> <div id=""b-box""> <p class=""title-text"">B</p></div> <br> <div style='float: left;padding-left:30px;'><p>Press '1' for A</p></div><div style='float: right;padding-right:30px;'><p>Press '0' for B</p> </div> </div></div>","null","","","","","","","","","","","","","","","",""
"2859","","test","audio-keyboard-response","179","509523","0.0-8.0-1.74","5fcaa818ae2a8f7198de4e93","condE","","resources/audio/wordStim/S3_AU_19_bxa_Step-6.wav","49","","","","","","resources/audio/wordStim/S3_AU_19_bxa_Step-6.wav","S3","19","bxa","6","MI","BL","S3-BL","1","1","true"
"null","","fixation","html-keyboard-response","180","510546","0.0-8.0-0.75","5fcaa818ae2a8f7198de4e93","condE","","<div class=""vertical-center"" style='width:60%;'><p style='font-weight:bold;'>Does the middle word sound more like the first word (A) or the last word (B)?</p> <br> <div class=""container""> <div id=""a-box""> <p class=""title-text"">A</h3></p> </div> <div id=""x-box""> <p class=""title-text"">X<p> </div> <div id=""b-box""> <p class=""title-text"">B</p></div> <br> <div style='float: left;padding-left:30px;'><p>Press '1' for A</p></div><div style='float: right;padding-right:30px;'><p>Press '0' for B</p> </div> </div></div>","null","","","","","","","","","","","","","","","",""
"2709","","test","audio-keyboard-response","181","513252","0.0-8.0-1.75","5fcaa818ae2a8f7198de4e93","condE","","resources/audio/wordStim/S3_AU_19_bxa_Step-2.wav","49","","","","","","resources/audio/wordStim/S3_AU_19_bxa_Step-2.wav","S3","19","bxa","2","MI","BL","S3-BL","1","1","true"
"null","","fixation","html-keyboard-response","182","514287","0.0-8.0-0.76","5fcaa818ae2a8f7198de4e93","condE","","<div class=""vertical-center"" style='width:60%;'><p style='font-weight:bold;'>Does the middle word sound more like the first word (A) or the last word (B)?</p> <br> <div class=""container""> <div id=""a-box""> <p class=""title-text"">A</h3></p> </div> <div id=""x-box""> <p class=""title-text"">X<p> </div> <div id=""b-box""> <p class=""title-text"">B</p></div> <br> <div style='float: left;padding-left:30px;'><p>Press '1' for A</p></div><div style='float: right;padding-right:30px;'><p>Press '0' for B</p> </div> </div></div>","null","","","","","","","","","","","","","","","",""
"4939","","test","audio-keyboard-response","183","519229","0.0-8.0-1.76","5fcaa818ae2a8f7198de4e93","condE","","resources/audio/wordStim/S3_AU_19_axb_Step-8.wav","49","","","","","","resources/audio/wordStim/S3_AU_19_axb_Step-8.wav","S3","19","axb","8","MI","BL","S3-BL","0","1","false"
"null","","fixation","html-keyboard-response","184","520253","0.0-8.0-0.77","5fcaa818ae2a8f7198de4e93","condE","","<div class=""vertical-center"" style='width:60%;'><p style='font-weight:bold;'>Does the middle word sound more like the first word (A) or the last word (B)?</p> <br> <div class=""container""> <div id=""a-box""> <p class=""title-text"">A</h3></p> </div> <div id=""x-box""> <p class=""title-text"">X<p> </div> <div id=""b-box""> <p class=""title-text"">B</p></div> <br> <div style='float: left;padding-left:30px;'><p>Press '1' for A</p></div><div style='float: right;padding-right:30px;'><p>Press '0' for B</p> </div> </div></div>","null","","","","","","","","","","","","","","","",""
"2459","","test","audio-keyboard-response","185","522714","0.0-8.0-1.77","5fcaa818ae2a8f7198de4e93","condE","","resources/audio/wordStim/S3_AI_21_axb_Step-4.wav","49","","","","","","resources/audio/wordStim/S3_AI_21_axb_Step-4.wav","S3","21","axb","4","MI","BL","S3-BL","0","1","false"
"null","","fixation","html-keyboard-response","186","523747","0.0-8.0-0.78","5fcaa818ae2a8f7198de4e93","condE","","<div class=""vertical-center"" style='width:60%;'><p style='font-weight:bold;'>Does the middle word sound more like the first word (A) or the last word (B)?</p> <br> <div class=""container""> <div id=""a-box""> <p class=""title-text"">A</h3></p> </div> <div id=""x-box""> <p class=""title-text"">X<p> </div> <div id=""b-box""> <p class=""title-text"">B</p></div> <br> <div style='float: left;padding-left:30px;'><p>Press '1' for A</p></div><div style='float: right;padding-right:30px;'><p>Press '0' for B</p> </div> </div></div>","null","","","","","","","","","","","","","","","",""
"3021","","test","audio-keyboard-response","187","526776","0.0-8.0-1.78","5fcaa818ae2a8f7198de4e93","condE","","resources/audio/wordStim/S3_AU_19_axb_Step-2.wav","49","","","","","","resources/audio/wordStim/S3_AU_19_axb_Step-2.wav","S3","19","axb","2","MI","BL","S3-BL","0","1","false"
"null","","fixation","html-keyboard-response","188","527800","0.0-8.0-0.79","5fcaa818ae2a8f7198de4e93","condE","","<div class=""vertical-center"" style='width:60%;'><p style='font-weight:bold;'>Does the middle word sound more like the first word (A) or the last word (B)?</p> <br> <div class=""container""> <div id=""a-box""> <p class=""title-text"">A</h3></p> </div> <div id=""x-box""> <p class=""title-text"">X<p> </div> <div id=""b-box""> <p class=""title-text"">B</p></div> <br> <div style='float: left;padding-left:30px;'><p>Press '1' for A</p></div><div style='float: right;padding-right:30px;'><p>Press '0' for B</p> </div> </div></div>","null","","","","","","","","","","","","","","","",""
"3251","","test","audio-keyboard-response","189","531056","0.0-8.0-1.79","5fcaa818ae2a8f7198de4e93","condE","","resources/audio/wordStim/S3_AU_20_axb_Step-4.wav","49","","","","","","resources/audio/wordStim/S3_AU_20_axb_Step-4.wav","S3","20","axb","4","MI","BL","S3-BL","0","1","false"
"null","","fixation","html-keyboard-response","190","532073","0.0-8.0-0.80","5fcaa818ae2a8f7198de4e93","condE","","<div class=""vertical-center"" style='width:60%;'><p style='font-weight:bold;'>Does the middle word sound more like the first word (A) or the last word (B)?</p> <br> <div class=""container""> <div id=""a-box""> <p class=""title-text"">A</h3></p> </div> <div id=""x-box""> <p class=""title-text"">X<p> </div> <div id=""b-box""> <p class=""title-text"">B</p></div> <br> <div style='float: left;padding-left:30px;'><p>Press '1' for A</p></div><div style='float: right;padding-right:30px;'><p>Press '0' for B</p> </div> </div></div>","null","","","","","","","","","","","","","","","",""
"3011","","test","audio-keyboard-response","191","535085","0.0-8.0-1.80","5fcaa818ae2a8f7198de4e93","condE","","resources/audio/wordStim/S3_AU_20_axb_Step-2.wav","49","","","","","","resources/audio/wordStim/S3_AU_20_axb_Step-2.wav","S3","20","axb","2","MI","BL","S3-BL","0","1","false"
"null","","fixation","html-keyboard-response","192","536109","0.0-8.0-0.81","5fcaa818ae2a8f7198de4e93","condE","","<div class=""vertical-center"" style='width:60%;'><p style='font-weight:bold;'>Does the middle word sound more like the first word (A) or the last word (B)?</p> <br> <div class=""container""> <div id=""a-box""> <p class=""title-text"">A</h3></p> </div> <div id=""x-box""> <p class=""title-text"">X<p> </div> <div id=""b-box""> <p class=""title-text"">B</p></div> <br> <div style='float: left;padding-left:30px;'><p>Press '1' for A</p></div><div style='float: right;padding-right:30px;'><p>Press '0' for B</p> </div> </div></div>","null","","","","","","","","","","","","","","","",""
"4051","","test","audio-keyboard-response","193","540165","0.0-8.0-1.81","5fcaa818ae2a8f7198de4e93","condE","","resources/audio/wordStim/S3_AU_18_bxa_Step-5.wav","48","","","","","","resources/audio/wordStim/S3_AU_18_bxa_Step-5.wav","S3","18","bxa","5","MI","BL","S3-BL","1","0","false"
"null","","fixation","html-keyboard-response","194","541187","0.0-8.0-0.82","5fcaa818ae2a8f7198de4e93","condE","","<div class=""vertical-center"" style='width:60%;'><p style='font-weight:bold;'>Does the middle word sound more like the first word (A) or the last word (B)?</p> <br> <div class=""container""> <div id=""a-box""> <p class=""title-text"">A</h3></p> </div> <div id=""x-box""> <p class=""title-text"">X<p> </div> <div id=""b-box""> <p class=""title-text"">B</p></div> <br> <div style='float: left;padding-left:30px;'><p>Press '1' for A</p></div><div style='float: right;padding-right:30px;'><p>Press '0' for B</p> </div> </div></div>","null","","","","","","","","","","","","","","","",""
"2840","","test","audio-keyboard-response","195","544034","0.0-8.0-1.82","5fcaa818ae2a8f7198de4e93","condE","","resources/audio/wordStim/S3_AU_19_bxa_Step-3.wav","48","","","","","","resources/audio/wordStim/S3_AU_19_bxa_Step-3.wav","S3","19","bxa","3","MI","BL","S3-BL","1","0","false"
"null","","fixation","html-keyboard-response","196","545047","0.0-8.0-0.83","5fcaa818ae2a8f7198de4e93","condE","","<div class=""vertical-center"" style='width:60%;'><p style='font-weight:bold;'>Does the middle word sound more like the first word (A) or the last word (B)?</p> <br> <div class=""container""> <div id=""a-box""> <p class=""title-text"">A</h3></p> </div> <div id=""x-box""> <p class=""title-text"">X<p> </div> <div id=""b-box""> <p class=""title-text"">B</p></div> <br> <div style='float: left;padding-left:30px;'><p>Press '1' for A</p></div><div style='float: right;padding-right:30px;'><p>Press '0' for B</p> </div> </div></div>","null","","","","","","","","","","","","","","","",""
"2560","","test","audio-keyboard-response","197","547612","0.0-8.0-1.83","5fcaa818ae2a8f7198de4e93","condE","","resources/audio/wordStim/S3_AI_21_bxa_Step-2.wav","49","","","","","","resources/audio/wordStim/S3_AI_21_bxa_Step-2.wav","S3","21","bxa","2","MI","BL","S3-BL","1","1","true"
"50493.529999861494","","break","html-keyboard-response","198","598661","0.0-9.0","5fcaa818ae2a8f7198de4e93","condE","","<div class=""vertical-center""><p>You're halfway through the experiment! Feel free to take a break before moving on.</p><i>When you're ready to continue, press SPACE.</i></p></div>","32","","","","","","","","","","","","","","","",""
"null","","fixation","html-keyboard-response","199","599170","0.0-10.0-0.0","5fcaa818ae2a8f7198de4e93","condE","","<div class=""vertical-center"" style='width:60%;'><p style='font-weight:bold;'>Does the middle word sound more like the first word (A) or the last word (B)?</p> <br> <div class=""container""> <div id=""a-box""> <p class=""title-text"">A</h3></p> </div> <div id=""x-box""> <p class=""title-text"">X<p> </div> <div id=""b-box""> <p class=""title-text"">B</p></div> <br> <div style='float: left;padding-left:30px;'><p>Press '1' for A</p></div><div style='float: right;padding-right:30px;'><p>Press '0' for B</p> </div> </div></div>","null","","","","","","","","","","","","","","","",""
"7509","","test","audio-keyboard-response","200","606833","0.0-10.0-1.0","5fcaa818ae2a8f7198de4e93","condE","","resources/audio/wordStim/S3_AU_18_bxa_Step-6.wav","48","","","","","","resources/audio/wordStim/S3_AU_18_bxa_Step-6.wav","S3","18","bxa","6","MI","BL","S3-BL","1","0","false"
"null","","fixation","html-keyboard-response","201","607863","0.0-10.0-0.1","5fcaa818ae2a8f7198de4e93","condE","","<div class=""vertical-center"" style='width:60%;'><p style='font-weight:bold;'>Does the middle word sound more like the first word (A) or the last word (B)?</p> <br> <div class=""container""> <div id=""a-box""> <p class=""title-text"">A</h3></p> </div> <div id=""x-box""> <p class=""title-text"">X<p> </div> <div id=""b-box""> <p class=""title-text"">B</p></div> <br> <div style='float: left;padding-left:30px;'><p>Press '1' for A</p></div><div style='float: right;padding-right:30px;'><p>Press '0' for B</p> </div> </div></div>","null","","","","","","","","","","","","","","","",""
"5680","","test","audio-keyboard-response","202","613552","0.0-10.0-1.1","5fcaa818ae2a8f7198de4e93","condE","","resources/audio/wordStim/S3_AU_20_axb_Step-5.wav","48","","","","","","resources/audio/wordStim/S3_AU_20_axb_Step-5.wav","S3","20","axb","5","MI","BL","S3-BL","0","0","true"
"null","","fixation","html-keyboard-response","203","614565","0.0-10.0-0.2","5fcaa818ae2a8f7198de4e93","condE","","<div class=""vertical-center"" style='width:60%;'><p style='font-weight:bold;'>Does the middle word sound more like the first word (A) or the last word (B)?</p> <br> <div class=""container""> <div id=""a-box""> <p class=""title-text"">A</h3></p> </div> <div id=""x-box""> <p class=""title-text"">X<p> </div> <div id=""b-box""> <p class=""title-text"">B</p></div> <br> <div style='float: left;padding-left:30px;'><p>Press '1' for A</p></div><div style='float: right;padding-right:30px;'><p>Press '0' for B</p> </div> </div></div>","null","","","","","","","","","","","","","","","",""
"2931","","test","audio-keyboard-response","204","617503","0.0-10.0-1.2","5fcaa818ae2a8f7198de4e93","condE","","resources/audio/wordStim/S3_AI_21_bxa_Step-5.wav","49","","","","","","resources/audio/wordStim/S3_AI_21_bxa_Step-5.wav","S3","21","bxa","5","MI","BL","S3-BL","1","1","true"
"null","","fixation","html-keyboard-response","205","618523","0.0-10.0-0.3","5fcaa818ae2a8f7198de4e93","condE","","<div class=""vertical-center"" style='width:60%;'><p style='font-weight:bold;'>Does the middle word sound more like the first word (A) or the last word (B)?</p> <br> <div class=""container""> <div id=""a-box""> <p class=""title-text"">A</h3></p> </div> <div id=""x-box""> <p class=""title-text"">X<p> </div> <div id=""b-box""> <p class=""title-text"">B</p></div> <br> <div style='float: left;padding-left:30px;'><p>Press '1' for A</p></div><div style='float: right;padding-right:30px;'><p>Press '0' for B</p> </div> </div></div>","null","","","","","","","","","","","","","","","",""
"3080","","test","audio-keyboard-response","206","621614","0.0-10.0-1.3","5fcaa818ae2a8f7198de4e93","condE","","resources/audio/wordStim/S3_AU_19_bxa_Step-4.wav","48","","","","","","resources/audio/wordStim/S3_AU_19_bxa_Step-4.wav","S3","19","bxa","4","MI","BL","S3-BL","1","0","false"
"null","","fixation","html-keyboard-response","207","622625","0.0-10.0-0.4","5fcaa818ae2a8f7198de4e93","condE","","<div class=""vertical-center"" style='width:60%;'><p style='font-weight:bold;'>Does the middle word sound more like the first word (A) or the last word (B)?</p> <br> <div class=""container""> <div id=""a-box""> <p class=""title-text"">A</h3></p> </div> <div id=""x-box""> <p class=""title-text"">X<p> </div> <div id=""b-box""> <p class=""title-text"">B</p></div> <br> <div style='float: left;padding-left:30px;'><p>Press '1' for A</p></div><div style='float: right;padding-right:30px;'><p>Press '0' for B</p> </div> </div></div>","null","","","","","","","","","","","","","","","",""
"3800","","test","audio-keyboard-response","208","626433","0.0-10.0-1.4","5fcaa818ae2a8f7198de4e93","condE","","resources/audio/wordStim/S3_AI_22_axb_Step-5.wav","49","","","","","","resources/audio/wordStim/S3_AI_22_axb_Step-5.wav","S3","22","axb","5","MI","BL","S3-BL","0","1","false"
"null","","fixation","html-keyboard-response","209","627454","0.0-10.0-0.5","5fcaa818ae2a8f7198de4e93","condE","","<div class=""vertical-center"" style='width:60%;'><p style='font-weight:bold;'>Does the middle word sound more like the first word (A) or the last word (B)?</p> <br> <div class=""container""> <div id=""a-box""> <p class=""title-text"">A</h3></p> </div> <div id=""x-box""> <p class=""title-text"">X<p> </div> <div id=""b-box""> <p class=""title-text"">B</p></div> <br> <div style='float: left;padding-left:30px;'><p>Press '1' for A</p></div><div style='float: right;padding-right:30px;'><p>Press '0' for B</p> </div> </div></div>","null","","","","","","","","","","","","","","","",""
"3221","","test","audio-keyboard-response","210","630682","0.0-10.0-1.5","5fcaa818ae2a8f7198de4e93","condE","","resources/audio/wordStim/S3_AU_20_bxa_Step-5.wav","49","","","","","","resources/audio/wordStim/S3_AU_20_bxa_Step-5.wav","S3","20","bxa","5","MI","BL","S3-BL","1","1","true"
"null","","fixation","html-keyboard-response","211","631697","0.0-10.0-0.6","5fcaa818ae2a8f7198de4e93","condE","","<div class=""vertical-center"" style='width:60%;'><p style='font-weight:bold;'>Does the middle word sound more like the first word (A) or the last word (B)?</p> <br> <div class=""container""> <div id=""a-box""> <p class=""title-text"">A</h3></p> </div> <div id=""x-box""> <p class=""title-text"">X<p> </div> <div id=""b-box""> <p class=""title-text"">B</p></div> <br> <div style='float: left;padding-left:30px;'><p>Press '1' for A</p></div><div style='float: right;padding-right:30px;'><p>Press '0' for B</p> </div> </div></div>","null","","","","","","","","","","","","","","","",""
