"rt","url","trial_role","trial_type","trial_index","time_elapsed","internal_node_id","participantId","conditionId","view_history","stimulus","key_press","button_pressed","correct_answer","correct_response","success","vowel","wordStim","speaker","sentNum","order","step","speakerIdentity","speakerGuise","guiseName","raised_answer","key_response","raised_response"
"20215.409999946132","micr.axb.consent.html","consent","external-html","0","20250","0.0-0.0","600655801bca779c2a7a7048","condA","","","","","","","","","","","","","","","","","","",""
"53023.555000079796","","instructions","instructions","1","73275","0.0-1.0","600655801bca779c2a7a7048","condA","[{""page_index"":0,""viewing_time"":29112.454999936745},{""page_index"":1,""viewing_time"":8964.245000155643},{""page_index"":2,""viewing_time"":14946.1799999699}]","","","","","","","","","","","","","","","","","",""
"null","","fixation","html-keyboard-response","2","73776","0.0-2.0-0.0-0.0","600655801bca779c2a7a7048","condA","","<div class=""vertical-center"" style=""font-size:60px;"">+</div>","null","","","","","","","","","","","","","","","",""
"4645.724999951199","","tonetest","audio-button-response","3","78424","0.0-2.0-0.0-1.0","600655801bca779c2a7a7048","condA","","../../src/audio/toneTest_2.wav","","1","1","true","","","","","","","","","","","","",""
"null","","fixation","html-keyboard-response","4","78926","0.0-2.0-0.0-0.1","600655801bca779c2a7a7048","condA","","<div class=""vertical-center"" style=""font-size:60px;"">+</div>","null","","","","","","","","","","","","","","","",""
"4416.28500004299","","tonetest","audio-button-response","5","83343","0.0-2.0-0.0-1.1","600655801bca779c2a7a7048","condA","","../../src/audio/toneTest_6.wav","","0","0","true","","","","","","","","","","","","",""
"null","","fixation","html-keyboard-response","6","83844","0.0-2.0-0.0-0.2","600655801bca779c2a7a7048","condA","","<div class=""vertical-center"" style=""font-size:60px;"">+</div>","null","","","","","","","","","","","","","","","",""
"4134.199999971315","","tonetest","audio-button-response","7","87979","0.0-2.0-0.0-1.2","600655801bca779c2a7a7048","condA","","../../src/audio/toneTest_5.wav","","0","0","true","","","","","","","","","","","","",""
"null","","fixation","html-keyboard-response","8","88480","0.0-2.0-0.0-0.3","600655801bca779c2a7a7048","condA","","<div class=""vertical-center"" style=""font-size:60px;"">+</div>","null","","","","","","","","","","","","","","","",""
"4232.915000058711","","tonetest","audio-button-response","9","92714","0.0-2.0-0.0-1.3","600655801bca779c2a7a7048","condA","","../../src/audio/toneTest_6.wav","","0","0","true","","","","","","","","","","","","",""
"null","","fixation","html-keyboard-response","10","93215","0.0-2.0-0.0-0.4","600655801bca779c2a7a7048","condA","","<div class=""vertical-center"" style=""font-size:60px;"">+</div>","null","","","","","","","","","","","","","","","",""
"4096.209999872372","","tonetest","audio-button-response","11","97312","0.0-2.0-0.0-1.4","600655801bca779c2a7a7048","condA","","../../src/audio/toneTest_5.wav","","0","0","true","","","","","","","","","","","","",""
"null","","fixation","html-keyboard-response","12","97813","0.0-2.0-0.0-0.5","600655801bca779c2a7a7048","condA","","<div class=""vertical-center"" style=""font-size:60px;"">+</div>","null","","","","","","","","","","","","","","","",""
"4013.3350000251085","","tonetest","audio-button-response","13","101828","0.0-2.0-0.0-1.5","600655801bca779c2a7a7048","condA","","../../src/audio/toneTest_3.wav","","2","2","true","","","","","","","","","","","","",""
"7041.960000060499","","instructions","html-keyboard-response","14","108871","0.0-2.0-1.0-0.0","600655801bca779c2a7a7048","condA","","<div class=""vertical-center""><p><b>Your score was 6/6.</b></p><p>If you scored below 5, please ensure that you are wearing properly functioning headphones and in a quiet location free of distractions. Then, press SPACE to repeat the audio test. </p><p><i>If you scored 5 or above, press SPACE to continue to the main experiment.</i></p></div>","32","","","","","","","","","","","","","","","",""
"","","","fullscreen","15","112799","0.0-3.0","600655801bca779c2a7a7048","condA","","","","","","","true","","","","","","","","","","","",""
"34390.20000002347","","instructions","instructions","16","147190","0.0-4.0","600655801bca779c2a7a7048","condA","[{""page_index"":0,""viewing_time"":34390.07000019774}]","","","","","","","","","","","","","","","","","",""
"null","","fixation","html-keyboard-response","17","147692","0.0-5.0-0.0","600655801bca779c2a7a7048","condA","","<div class=""vertical-center"" style='width:60%;'><p style='font-weight:bold;'>Does the middle word sound more like the first word (A) or the last word (B)?</p> <br> <div class=""container""> <div id=""a-box""> <p class=""title-text"">A</h3></p> </div> <div id=""x-box""> <p class=""title-text"">X<p> </div> <div id=""b-box""> <p class=""title-text"">B</p></div> <br> <div style='float: left;padding-left:30px;'><p>Press '1' for A</p></div><div style='float: right;padding-right:30px;'><p>Press '0' for B</p> </div> </div></div>","null","","","","","","","","","","","","","","","",""
"5040","","practice","audio-keyboard-response","18","152726","0.0-5.0-1.0","600655801bca779c2a7a7048","condA","","resources/audio/practiceStim/S1_AU_14_bxa_Step-6.wav","49","","","","","","","","","","","","","","","",""
"null","","fixation","html-keyboard-response","19","153743","0.0-5.0-0.1","600655801bca779c2a7a7048","condA","","<div class=""vertical-center"" style='width:60%;'><p style='font-weight:bold;'>Does the middle word sound more like the first word (A) or the last word (B)?</p> <br> <div class=""container""> <div id=""a-box""> <p class=""title-text"">A</h3></p> </div> <div id=""x-box""> <p class=""title-text"">X<p> </div> <div id=""b-box""> <p class=""title-text"">B</p></div> <br> <div style='float: left;padding-left:30px;'><p>Press '1' for A</p></div><div style='float: right;padding-right:30px;'><p>Press '0' for B</p> </div> </div></div>","null","","","","","","","","","","","","","","","",""
"3440","","practice","audio-keyboard-response","20","157189","0.0-5.0-1.1","600655801bca779c2a7a7048","condA","","resources/audio/practiceStim/S1_AI_21_axb_Step-6.wav","49","","","","","","","","","","","","","","","",""
"null","","fixation","html-keyboard-response","21","158201","0.0-5.0-0.2","600655801bca779c2a7a7048","condA","","<div class=""vertical-center"" style='width:60%;'><p style='font-weight:bold;'>Does the middle word sound more like the first word (A) or the last word (B)?</p> <br> <div class=""container""> <div id=""a-box""> <p class=""title-text"">A</h3></p> </div> <div id=""x-box""> <p class=""title-text"">X<p> </div> <div id=""b-box""> <p class=""title-text"">B</p></div> <br> <div style='float: left;padding-left:30px;'><p>Press '1' for A</p></div><div style='float: right;padding-right:30px;'><p>Press '0' for B</p> </div> </div></div>","null","","","","","","","","","","","","","","","",""
"2952","","practice","audio-keyboard-response","22","161149","0.0-5.0-1.2","600655801bca779c2a7a7048","condA","","resources/audio/practiceStim/S1_AI_21_bxa_Step-6.wav","48","","","","","","","","","","","","","","","",""
"null","","fixation","html-keyboard-response","23","162167","0.0-5.0-0.3","600655801bca779c2a7a7048","condA","","<div class=""vertical-center"" style='width:60%;'><p style='font-weight:bold;'>Does the middle word sound more like the first word (A) or the last word (B)?</p> <br> <div class=""container""> <div id=""a-box""> <p class=""title-text"">A</h3></p> </div> <div id=""x-box""> <p class=""title-text"">X<p> </div> <div id=""b-box""> <p class=""title-text"">B</p></div> <br> <div style='float: left;padding-left:30px;'><p>Press '1' for A</p></div><div style='float: right;padding-right:30px;'><p>Press '0' for B</p> </div> </div></div>","null","","","","","","","","","","","","","","","",""
"2891","","practice","audio-keyboard-response","24","165053","0.0-5.0-1.3","600655801bca779c2a7a7048","condA","","resources/audio/practiceStim/S1_AU_14_axb_Step-6.wav","49","","","","","","","","","","","","","","","",""
"1519.1649999469519","","instructions","instructions","25","167085","0.0-6.0","600655801bca779c2a7a7048","condA","[{""page_index"":0,""viewing_time"":1519.0449999645352}]","","","","","","","","","","","","","","","","","",""
"4498.58000013046","","","html-keyboard-response","26","171589","0.0-7.0","600655801bca779c2a7a7048","condA","","<div class=""vertical-center""><img src=""resources/images/US_face_a.png"" style=""width:450px;height:300px;""><p>This is the speaker you're about to hear. She is from Detroit, Michigan.</p><p> <br> <i>Press SPACE to continue.</i></p></div>","32","","","","","","","","","","","","","","","",""
"null","","fixation","html-keyboard-response","27","172095","0.0-8.0-0.0","600655801bca779c2a7a7048","condA","","<div class=""vertical-center"" style='width:60%;'><img src=""resources/images/US_flag_100x52.jpg"" style=""width:100px;height:52px;opacity:0.35;""> <br> <br> <p style='font-weight:bold;'>Does the middle word sound more like the first word (A) or the last word (B)?</p> <br> <div class=""container""> <div id=""a-box""> <p class=""title-text"">A</h3></p> </div> <div id=""x-box""> <p class=""title-text"">X<p> </div> <div id=""b-box""> <p class=""title-text"">B</p></div> <br> <div style='float: left;padding-left:30px;'><p>Press '1' for A</p></div><div style='float: right;padding-right:30px;'><p>Press '0' for B</p> </div> </div></div>","null","","","","","","","","","","","","","","","",""
"3419","","test","audio-keyboard-response","28","175517","0.0-8.0-1.0","600655801bca779c2a7a7048","condA","","resources/audio/wordStim/S3_AI_30_bxa_Step-2.wav","49","","","","","","resources/audio/wordStim/S3_AI_30_bxa_Step-2.wav","S3","30","bxa","2","MI","MI","S3-MI","1","1","true"
"null","","fixation","html-keyboard-response","29","176543","0.0-8.0-0.1","600655801bca779c2a7a7048","condA","","<div class=""vertical-center"" style='width:60%;'><img src=""resources/images/US_flag_100x52.jpg"" style=""width:100px;height:52px;opacity:0.35;""> <br> <br> <p style='font-weight:bold;'>Does the middle word sound more like the first word (A) or the last word (B)?</p> <br> <div class=""container""> <div id=""a-box""> <p class=""title-text"">A</h3></p> </div> <div id=""x-box""> <p class=""title-text"">X<p> </div> <div id=""b-box""> <p class=""title-text"">B</p></div> <br> <div style='float: left;padding-left:30px;'><p>Press '1' for A</p></div><div style='float: right;padding-right:30px;'><p>Press '0' for B</p> </div> </div></div>","null","","","","","","","","","","","","","","","",""
"3949","","test","audio-keyboard-response","30","180494","0.0-8.0-1.1","600655801bca779c2a7a7048","condA","","resources/audio/wordStim/S3_AU_18_bxa_Step-6.wav","49","","","","","","resources/audio/wordStim/S3_AU_18_bxa_Step-6.wav","S3","18","bxa","6","MI","MI","S3-MI","1","1","true"
"null","","fixation","html-keyboard-response","31","181514","0.0-8.0-0.2","600655801bca779c2a7a7048","condA","","<div class=""vertical-center"" style='width:60%;'><img src=""resources/images/US_flag_100x52.jpg"" style=""width:100px;height:52px;opacity:0.35;""> <br> <br> <p style='font-weight:bold;'>Does the middle word sound more like the first word (A) or the last word (B)?</p> <br> <div class=""container""> <div id=""a-box""> <p class=""title-text"">A</h3></p> </div> <div id=""x-box""> <p class=""title-text"">X<p> </div> <div id=""b-box""> <p class=""title-text"">B</p></div> <br> <div style='float: left;padding-left:30px;'><p>Press '1' for A</p></div><div style='float: right;padding-right:30px;'><p>Press '0' for B</p> </div> </div></div>","null","","","","","","","","","","","","","","","",""
"3381","","test","audio-keyboard-response","32","184893","0.0-8.0-1.2","600655801bca779c2a7a7048","condA","","resources/audio/wordStim/S3_AI_22_axb_Step-7.wav","48","","","","","","resources/audio/wordStim/S3_AI_22_axb_Step-7.wav","S3","22","axb","7","MI","MI","S3-MI","0","0","true"
"null","","fixation","html-keyboard-response","33","185910","0.0-8.0-0.3","600655801bca779c2a7a7048","condA","","<div class=""vertical-center"" style='width:60%;'><img src=""resources/images/US_flag_100x52.jpg"" style=""width:100px;height:52px;opacity:0.35;""> <br> <br> <p style='font-weight:bold;'>Does the middle word sound more like the first word (A) or the last word (B)?</p> <br> <div class=""container""> <div id=""a-box""> <p class=""title-text"">A</h3></p> </div> <div id=""x-box""> <p class=""title-text"">X<p> </div> <div id=""b-box""> <p class=""title-text"">B</p></div> <br> <div style='float: left;padding-left:30px;'><p>Press '1' for A</p></div><div style='float: right;padding-right:30px;'><p>Press '0' for B</p> </div> </div></div>","null","","","","","","","","","","","","","","","",""
"3400","","test","audio-keyboard-response","34","189310","0.0-8.0-1.3","600655801bca779c2a7a7048","condA","","resources/audio/wordStim/S3_AU_19_bxa_Step-3.wav","48","","","","","","resources/audio/wordStim/S3_AU_19_bxa_Step-3.wav","S3","19","bxa","3","MI","MI","S3-MI","1","0","false"
"null","","fixation","html-keyboard-response","35","190329","0.0-8.0-0.4","600655801bca779c2a7a7048","condA","","<div class=""vertical-center"" style='width:60%;'><img src=""resources/images/US_flag_100x52.jpg"" style=""width:100px;height:52px;opacity:0.35;""> <br> <br> <p style='font-weight:bold;'>Does the middle word sound more like the first word (A) or the last word (B)?</p> <br> <div class=""container""> <div id=""a-box""> <p class=""title-text"">A</h3></p> </div> <div id=""x-box""> <p class=""title-text"">X<p> </div> <div id=""b-box""> <p class=""title-text"">B</p></div> <br> <div style='float: left;padding-left:30px;'><p>Press '1' for A</p></div><div style='float: right;padding-right:30px;'><p>Press '0' for B</p> </div> </div></div>","null","","","","","","","","","","","","","","","",""
"3029","","test","audio-keyboard-response","36","193357","0.0-8.0-1.4","600655801bca779c2a7a7048","condA","","resources/audio/wordStim/S3_AU_19_axb_Step-4.wav","49","","","","","","resources/audio/wordStim/S3_AU_19_axb_Step-4.wav","S3","19","axb","4","MI","MI","S3-MI","0","1","false"
"null","","fixation","html-keyboard-response","37","194378","0.0-8.0-0.5","600655801bca779c2a7a7048","condA","","<div class=""vertical-center"" style='width:60%;'><img src=""resources/images/US_flag_100x52.jpg"" style=""width:100px;height:52px;opacity:0.35;""> <br> <br> <p style='font-weight:bold;'>Does the middle word sound more like the first word (A) or the last word (B)?</p> <br> <div class=""container""> <div id=""a-box""> <p class=""title-text"">A</h3></p> </div> <div id=""x-box""> <p class=""title-text"">X<p> </div> <div id=""b-box""> <p class=""title-text"">B</p></div> <br> <div style='float: left;padding-left:30px;'><p>Press '1' for A</p></div><div style='float: right;padding-right:30px;'><p>Press '0' for B</p> </div> </div></div>","null","","","","","","","","","","","","","","","",""
"3560","","test","audio-keyboard-response","38","197933","0.0-8.0-1.5","600655801bca779c2a7a7048","condA","","resources/audio/wordStim/S3_AI_30_axb_Step-2.wav","48","","","","","","resources/audio/wordStim/S3_AI_30_axb_Step-2.wav","S3","30","axb","2","MI","MI","S3-MI","0","0","true"
"null","","fixation","html-keyboard-response","39","198950","0.0-8.0-0.6","600655801bca779c2a7a7048","condA","","<div class=""vertical-center"" style='width:60%;'><img src=""resources/images/US_flag_100x52.jpg"" style=""width:100px;height:52px;opacity:0.35;""> <br> <br> <p style='font-weight:bold;'>Does the middle word sound more like the first word (A) or the last word (B)?</p> <br> <div class=""container""> <div id=""a-box""> <p class=""title-text"">A</h3></p> </div> <div id=""x-box""> <p class=""title-text"">X<p> </div> <div id=""b-box""> <p class=""title-text"">B</p></div> <br> <div style='float: left;padding-left:30px;'><p>Press '1' for A</p></div><div style='float: right;padding-right:30px;'><p>Press '0' for B</p> </div> </div></div>","null","","","","","","","","","","","","","","","",""
"3568","","test","audio-keyboard-response","40","202517","0.0-8.0-1.6","600655801bca779c2a7a7048","condA","","resources/audio/wordStim/S3_AI_22_bxa_Step-2.wav","48","","","","","","resources/audio/wordStim/S3_AI_22_bxa_Step-2.wav","S3","22","bxa","2","MI","MI","S3-MI","1","0","false"
"null","","fixation","html-keyboard-response","41","203533","0.0-8.0-0.7","600655801bca779c2a7a7048","condA","","<div class=""vertical-center"" style='width:60%;'><img src=""resources/images/US_flag_100x52.jpg"" style=""width:100px;height:52px;opacity:0.35;""> <br> <br> <p style='font-weight:bold;'>Does the middle word sound more like the first word (A) or the last word (B)?</p> <br> <div class=""container""> <div id=""a-box""> <p class=""title-text"">A</h3></p> </div> <div id=""x-box""> <p class=""title-text"">X<p> </div> <div id=""b-box""> <p class=""title-text"">B</p></div> <br> <div style='float: left;padding-left:30px;'><p>Press '1' for A</p></div><div style='float: right;padding-right:30px;'><p>Press '0' for B</p> </div> </div></div>","null","","","","","","","","","","","","","","","",""
"3320","","test","audio-keyboard-response","42","206853","0.0-8.0-1.7","600655801bca779c2a7a7048","condA","","resources/audio/wordStim/S3_AI_22_bxa_Step-3.wav","49","","","","","","resources/audio/wordStim/S3_AI_22_bxa_Step-3.wav","S3","22","bxa","3","MI","MI","S3-MI","1","1","true"
"null","","fixation","html-keyboard-response","43","207864","0.0-8.0-0.8","600655801bca779c2a7a7048","condA","","<div class=""vertical-center"" style='width:60%;'><img src=""resources/images/US_flag_100x52.jpg"" style=""width:100px;height:52px;opacity:0.35;""> <br> <br> <p style='font-weight:bold;'>Does the middle word sound more like the first word (A) or the last word (B)?</p> <br> <div class=""container""> <div id=""a-box""> <p class=""title-text"">A</h3></p> </div> <div id=""x-box""> <p class=""title-text"">X<p> </div> <div id=""b-box""> <p class=""title-text"">B</p></div> <br> <div style='float: left;padding-left:30px;'><p>Press '1' for A</p></div><div style='float: right;padding-right:30px;'><p>Press '0' for B</p> </div> </div></div>","null","","","","","","","","","","","","","","","",""
"4309","","test","audio-keyboard-response","44","212173","0.0-8.0-1.8","600655801bca779c2a7a7048","condA","","resources/audio/wordStim/S3_AI_30_axb_Step-7.wav","48","","","","","","resources/audio/wordStim/S3_AI_30_axb_Step-7.wav","S3","30","axb","7","MI","MI","S3-MI","0","0","true"
"null","","fixation","html-keyboard-response","45","213194","0.0-8.0-0.9","600655801bca779c2a7a7048","condA","","<div class=""vertical-center"" style='width:60%;'><img src=""resources/images/US_flag_100x52.jpg"" style=""width:100px;height:52px;opacity:0.35;""> <br> <br> <p style='font-weight:bold;'>Does the middle word sound more like the first word (A) or the last word (B)?</p> <br> <div class=""container""> <div id=""a-box""> <p class=""title-text"">A</h3></p> </div> <div id=""x-box""> <p class=""title-text"">X<p> </div> <div id=""b-box""> <p class=""title-text"">B</p></div> <br> <div style='float: left;padding-left:30px;'><p>Press '1' for A</p></div><div style='float: right;padding-right:30px;'><p>Press '0' for B</p> </div> </div></div>","null","","","","","","","","","","","","","","","",""
"3381","","test","audio-keyboard-response","46","216581","0.0-8.0-1.9","600655801bca779c2a7a7048","condA","","resources/audio/wordStim/S3_AI_22_axb_Step-2.wav","49","","","","","","resources/audio/wordStim/S3_AI_22_axb_Step-2.wav","S3","22","axb","2","MI","MI","S3-MI","0","1","false"
"null","","fixation","html-keyboard-response","47","217597","0.0-8.0-0.10","600655801bca779c2a7a7048","condA","","<div class=""vertical-center"" style='width:60%;'><img src=""resources/images/US_flag_100x52.jpg"" style=""width:100px;height:52px;opacity:0.35;""> <br> <br> <p style='font-weight:bold;'>Does the middle word sound more like the first word (A) or the last word (B)?</p> <br> <div class=""container""> <div id=""a-box""> <p class=""title-text"">A</h3></p> </div> <div id=""x-box""> <p class=""title-text"">X<p> </div> <div id=""b-box""> <p class=""title-text"">B</p></div> <br> <div style='float: left;padding-left:30px;'><p>Press '1' for A</p></div><div style='float: right;padding-right:30px;'><p>Press '0' for B</p> </div> </div></div>","null","","","","","","","","","","","","","","","",""
"2901","","test","audio-keyboard-response","48","220501","0.0-8.0-1.10","600655801bca779c2a7a7048","condA","","resources/audio/wordStim/S3_AI_21_axb_Step-7.wav","49","","","","","","resources/audio/wordStim/S3_AI_21_axb_Step-7.wav","S3","21","axb","7","MI","MI","S3-MI","0","1","false"
"null","","fixation","html-keyboard-response","49","221525","0.0-8.0-0.11","600655801bca779c2a7a7048","condA","","<div class=""vertical-center"" style='width:60%;'><img src=""resources/images/US_flag_100x52.jpg"" style=""width:100px;height:52px;opacity:0.35;""> <br> <br> <p style='font-weight:bold;'>Does the middle word sound more like the first word (A) or the last word (B)?</p> <br> <div class=""container""> <div id=""a-box""> <p class=""title-text"">A</h3></p> </div> <div id=""x-box""> <p class=""title-text"">X<p> </div> <div id=""b-box""> <p class=""title-text"">B</p></div> <br> <div style='float: left;padding-left:30px;'><p>Press '1' for A</p></div><div style='float: right;padding-right:30px;'><p>Press '0' for B</p> </div> </div></div>","null","","","","","","","","","","","","","","","",""
"3211","","test","audio-keyboard-response","50","224742","0.0-8.0-1.11","600655801bca779c2a7a7048","condA","","resources/audio/wordStim/S3_AU_20_bxa_Step-7.wav","49","","","","","","resources/audio/wordStim/S3_AU_20_bxa_Step-7.wav","S3","20","bxa","7","MI","MI","S3-MI","1","1","true"
"null","","fixation","html-keyboard-response","51","225756","0.0-8.0-0.12","600655801bca779c2a7a7048","condA","","<div class=""vertical-center"" style='width:60%;'><img src=""resources/images/US_flag_100x52.jpg"" style=""width:100px;height:52px;opacity:0.35;""> <br> <br> <p style='font-weight:bold;'>Does the middle word sound more like the first word (A) or the last word (B)?</p> <br> <div class=""container""> <div id=""a-box""> <p class=""title-text"">A</h3></p> </div> <div id=""x-box""> <p class=""title-text"">X<p> </div> <div id=""b-box""> <p class=""title-text"">B</p></div> <br> <div style='float: left;padding-left:30px;'><p>Press '1' for A</p></div><div style='float: right;padding-right:30px;'><p>Press '0' for B</p> </div> </div></div>","null","","","","","","","","","","","","","","","",""
"3152","","test","audio-keyboard-response","52","228909","0.0-8.0-1.12","600655801bca779c2a7a7048","condA","","resources/audio/wordStim/S3_AU_20_axb_Step-4.wav","49","","","","","","resources/audio/wordStim/S3_AU_20_axb_Step-4.wav","S3","20","axb","4","MI","MI","S3-MI","0","1","false"
"null","","fixation","html-keyboard-response","53","229925","0.0-8.0-0.13","600655801bca779c2a7a7048","condA","","<div class=""vertical-center"" style='width:60%;'><img src=""resources/images/US_flag_100x52.jpg"" style=""width:100px;height:52px;opacity:0.35;""> <br> <br> <p style='font-weight:bold;'>Does the middle word sound more like the first word (A) or the last word (B)?</p> <br> <div class=""container""> <div id=""a-box""> <p class=""title-text"">A</h3></p> </div> <div id=""x-box""> <p class=""title-text"">X<p> </div> <div id=""b-box""> <p class=""title-text"">B</p></div> <br> <div style='float: left;padding-left:30px;'><p>Press '1' for A</p></div><div style='float: right;padding-right:30px;'><p>Press '0' for B</p> </div> </div></div>","null","","","","","","","","","","","","","","","",""
"3469","","test","audio-keyboard-response","54","233397","0.0-8.0-1.13","600655801bca779c2a7a7048","condA","","resources/audio/wordStim/S3_AI_30_axb_Step-5.wav","48","","","","","","resources/audio/wordStim/S3_AI_30_axb_Step-5.wav","S3","30","axb","5","MI","MI","S3-MI","0","0","true"
"null","","fixation","html-keyboard-response","55","234408","0.0-8.0-0.14","600655801bca779c2a7a7048","condA","","<div class=""vertical-center"" style='width:60%;'><img src=""resources/images/US_flag_100x52.jpg"" style=""width:100px;height:52px;opacity:0.35;""> <br> <br> <p style='font-weight:bold;'>Does the middle word sound more like the first word (A) or the last word (B)?</p> <br> <div class=""container""> <div id=""a-box""> <p class=""title-text"">A</h3></p> </div> <div id=""x-box""> <p class=""title-text"">X<p> </div> <div id=""b-box""> <p class=""title-text"">B</p></div> <br> <div style='float: left;padding-left:30px;'><p>Press '1' for A</p></div><div style='float: right;padding-right:30px;'><p>Press '0' for B</p> </div> </div></div>","null","","","","","","","","","","","","","","","",""
"3261","","test","audio-keyboard-response","56","237670","0.0-8.0-1.14","600655801bca779c2a7a7048","condA","","resources/audio/wordStim/S3_AU_20_axb_Step-5.wav","49","","","","","","resources/audio/wordStim/S3_AU_20_axb_Step-5.wav","S3","20","axb","5","MI","MI","S3-MI","0","1","false"
"null","","fixation","html-keyboard-response","57","238690","0.0-8.0-0.15","600655801bca779c2a7a7048","condA","","<div class=""vertical-center"" style='width:60%;'><img src=""resources/images/US_flag_100x52.jpg"" style=""width:100px;height:52px;opacity:0.35;""> <br> <br> <p style='font-weight:bold;'>Does the middle word sound more like the first word (A) or the last word (B)?</p> <br> <div class=""container""> <div id=""a-box""> <p class=""title-text"">A</h3></p> </div> <div id=""x-box""> <p class=""title-text"">X<p> </div> <div id=""b-box""> <p class=""title-text"">B</p></div> <br> <div style='float: left;padding-left:30px;'><p>Press '1' for A</p></div><div style='float: right;padding-right:30px;'><p>Press '0' for B</p> </div> </div></div>","null","","","","","","","","","","","","","","","",""
"3571","","test","audio-keyboard-response","58","242254","0.0-8.0-1.15","600655801bca779c2a7a7048","condA","","resources/audio/wordStim/S3_AI_22_axb_Step-3.wav","49","","","","","","resources/audio/wordStim/S3_AI_22_axb_Step-3.wav","S3","22","axb","3","MI","MI","S3-MI","0","1","false"
"null","","fixation","html-keyboard-response","59","243269","0.0-8.0-0.16","600655801bca779c2a7a7048","condA","","<div class=""vertical-center"" style='width:60%;'><img src=""resources/images/US_flag_100x52.jpg"" style=""width:100px;height:52px;opacity:0.35;""> <br> <br> <p style='font-weight:bold;'>Does the middle word sound more like the first word (A) or the last word (B)?</p> <br> <div class=""container""> <div id=""a-box""> <p class=""title-text"">A</h3></p> </div> <div id=""x-box""> <p class=""title-text"">X<p> </div> <div id=""b-box""> <p class=""title-text"">B</p></div> <br> <div style='float: left;padding-left:30px;'><p>Press '1' for A</p></div><div style='float: right;padding-right:30px;'><p>Press '0' for B</p> </div> </div></div>","null","","","","","","","","","","","","","","","",""
"2819","","test","audio-keyboard-response","60","246086","0.0-8.0-1.16","600655801bca779c2a7a7048","condA","","resources/audio/wordStim/S3_AI_21_axb_Step-4.wav","49","","","","","","resources/audio/wordStim/S3_AI_21_axb_Step-4.wav","S3","21","axb","4","MI","MI","S3-MI","0","1","false"
"null","","fixation","html-keyboard-response","61","247110","0.0-8.0-0.17","600655801bca779c2a7a7048","condA","","<div class=""vertical-center"" style='width:60%;'><img src=""resources/images/US_flag_100x52.jpg"" style=""width:100px;height:52px;opacity:0.35;""> <br> <br> <p style='font-weight:bold;'>Does the middle word sound more like the first word (A) or the last word (B)?</p> <br> <div class=""container""> <div id=""a-box""> <p class=""title-text"">A</h3></p> </div> <div id=""x-box""> <p class=""title-text"">X<p> </div> <div id=""b-box""> <p class=""title-text"">B</p></div> <br> <div style='float: left;padding-left:30px;'><p>Press '1' for A</p></div><div style='float: right;padding-right:30px;'><p>Press '0' for B</p> </div> </div></div>","null","","","","","","","","","","","","","","","",""
"2829","","test","audio-keyboard-response","62","249935","0.0-8.0-1.17","600655801bca779c2a7a7048","condA","","resources/audio/wordStim/S3_AI_21_bxa_Step-5.wav","49","","","","","","resources/audio/wordStim/S3_AI_21_bxa_Step-5.wav","S3","21","bxa","5","MI","MI","S3-MI","1","1","true"
"null","","fixation","html-keyboard-response","63","250959","0.0-8.0-0.18","600655801bca779c2a7a7048","condA","","<div class=""vertical-center"" style='width:60%;'><img src=""resources/images/US_flag_100x52.jpg"" style=""width:100px;height:52px;opacity:0.35;""> <br> <br> <p style='font-weight:bold;'>Does the middle word sound more like the first word (A) or the last word (B)?</p> <br> <div class=""container""> <div id=""a-box""> <p class=""title-text"">A</h3></p> </div> <div id=""x-box""> <p class=""title-text"">X<p> </div> <div id=""b-box""> <p class=""title-text"">B</p></div> <br> <div style='float: left;padding-left:30px;'><p>Press '1' for A</p></div><div style='float: right;padding-right:30px;'><p>Press '0' for B</p> </div> </div></div>","null","","","","","","","","","","","","","","","",""
"3720","","test","audio-keyboard-response","64","254678","0.0-8.0-1.18","600655801bca779c2a7a7048","condA","","resources/audio/wordStim/S3_AU_18_axb_Step-5.wav","49","","","","","","resources/audio/wordStim/S3_AU_18_axb_Step-5.wav","S3","18","axb","5","MI","MI","S3-MI","0","1","false"
"null","","fixation","html-keyboard-response","65","255702","0.0-8.0-0.19","600655801bca779c2a7a7048","condA","","<div class=""vertical-center"" style='width:60%;'><img src=""resources/images/US_flag_100x52.jpg"" style=""width:100px;height:52px;opacity:0.35;""> <br> <br> <p style='font-weight:bold;'>Does the middle word sound more like the first word (A) or the last word (B)?</p> <br> <div class=""container""> <div id=""a-box""> <p class=""title-text"">A</h3></p> </div> <div id=""x-box""> <p class=""title-text"">X<p> </div> <div id=""b-box""> <p class=""title-text"">B</p></div> <br> <div style='float: left;padding-left:30px;'><p>Press '1' for A</p></div><div style='float: right;padding-right:30px;'><p>Press '0' for B</p> </div> </div></div>","null","","","","","","","","","","","","","","","",""
"3680","","test","audio-keyboard-response","66","259374","0.0-8.0-1.19","600655801bca779c2a7a7048","condA","","resources/audio/wordStim/S3_AI_22_axb_Step-6.wav","49","","","","","","resources/audio/wordStim/S3_AI_22_axb_Step-6.wav","S3","22","axb","6","MI","MI","S3-MI","0","1","false"
"null","","fixation","html-keyboard-response","67","260395","0.0-8.0-0.20","600655801bca779c2a7a7048","condA","","<div class=""vertical-center"" style='width:60%;'><img src=""resources/images/US_flag_100x52.jpg"" style=""width:100px;height:52px;opacity:0.35;""> <br> <br> <p style='font-weight:bold;'>Does the middle word sound more like the first word (A) or the last word (B)?</p> <br> <div class=""container""> <div id=""a-box""> <p class=""title-text"">A</h3></p> </div> <div id=""x-box""> <p class=""title-text"">X<p> </div> <div id=""b-box""> <p class=""title-text"">B</p></div> <br> <div style='float: left;padding-left:30px;'><p>Press '1' for A</p></div><div style='float: right;padding-right:30px;'><p>Press '0' for B</p> </div> </div></div>","null","","","","","","","","","","","","","","","",""
"3501","","test","audio-keyboard-response","68","263902","0.0-8.0-1.20","600655801bca779c2a7a7048","condA","","resources/audio/wordStim/S3_AI_22_axb_Step-5.wav","48","","","","","","resources/audio/wordStim/S3_AI_22_axb_Step-5.wav","S3","22","axb","5","MI","MI","S3-MI","0","0","true"
"1814.0449998900294","","break","html-keyboard-response","69","266230","0.0-8.0-2.20-0.20","600655801bca779c2a7a7048","condA","","<div class=""vertical-center""><p>Feel free to take a break!</p><i>When you're ready to continue, press SPACE to begin the next trial.</i></p></div>","32","","","","","","","","","","","","","","","",""
"null","","fixation","html-keyboard-response","70","266733","0.0-8.0-0.21","600655801bca779c2a7a7048","condA","","<div class=""vertical-center"" style='width:60%;'><img src=""resources/images/US_flag_100x52.jpg"" style=""width:100px;height:52px;opacity:0.35;""> <br> <br> <p style='font-weight:bold;'>Does the middle word sound more like the first word (A) or the last word (B)?</p> <br> <div class=""container""> <div id=""a-box""> <p class=""title-text"">A</h3></p> </div> <div id=""x-box""> <p class=""title-text"">X<p> </div> <div id=""b-box""> <p class=""title-text"">B</p></div> <br> <div style='float: left;padding-left:30px;'><p>Press '1' for A</p></div><div style='float: right;padding-right:30px;'><p>Press '0' for B</p> </div> </div></div>","null","","","","","","","","","","","","","","","",""
"3280","","test","audio-keyboard-response","71","270015","0.0-8.0-1.21","600655801bca779c2a7a7048","condA","","resources/audio/wordStim/S3_AU_20_axb_Step-7.wav","49","","","","","","resources/audio/wordStim/S3_AU_20_axb_Step-7.wav","S3","20","axb","7","MI","MI","S3-MI","0","1","false"
"null","","fixation","html-keyboard-response","72","271029","0.0-8.0-0.22","600655801bca779c2a7a7048","condA","","<div class=""vertical-center"" style='width:60%;'><img src=""resources/images/US_flag_100x52.jpg"" style=""width:100px;height:52px;opacity:0.35;""> <br> <br> <p style='font-weight:bold;'>Does the middle word sound more like the first word (A) or the last word (B)?</p> <br> <div class=""container""> <div id=""a-box""> <p class=""title-text"">A</h3></p> </div> <div id=""x-box""> <p class=""title-text"">X<p> </div> <div id=""b-box""> <p class=""title-text"">B</p></div> <br> <div style='float: left;padding-left:30px;'><p>Press '1' for A</p></div><div style='float: right;padding-right:30px;'><p>Press '0' for B</p> </div> </div></div>","null","","","","","","","","","","","","","","","",""
"2669","","test","audio-keyboard-response","73","273694","0.0-8.0-1.22","600655801bca779c2a7a7048","condA","","resources/audio/wordStim/S3_AI_21_bxa_Step-7.wav","49","","","","","","resources/audio/wordStim/S3_AI_21_bxa_Step-7.wav","S3","21","bxa","7","MI","MI","S3-MI","1","1","true"
"null","","fixation","html-keyboard-response","74","274709","0.0-8.0-0.23","600655801bca779c2a7a7048","condA","","<div class=""vertical-center"" style='width:60%;'><img src=""resources/images/US_flag_100x52.jpg"" style=""width:100px;height:52px;opacity:0.35;""> <br> <br> <p style='font-weight:bold;'>Does the middle word sound more like the first word (A) or the last word (B)?</p> <br> <div class=""container""> <div id=""a-box""> <p class=""title-text"">A</h3></p> </div> <div id=""x-box""> <p class=""title-text"">X<p> </div> <div id=""b-box""> <p class=""title-text"">B</p></div> <br> <div style='float: left;padding-left:30px;'><p>Press '1' for A</p></div><div style='float: right;padding-right:30px;'><p>Press '0' for B</p> </div> </div></div>","null","","","","","","","","","","","","","","","",""
"3349","","test","audio-keyboard-response","75","278054","0.0-8.0-1.23","600655801bca779c2a7a7048","condA","","resources/audio/wordStim/S3_AI_22_bxa_Step-7.wav","49","","","","","","resources/audio/wordStim/S3_AI_22_bxa_Step-7.wav","S3","22","bxa","7","MI","MI","S3-MI","1","1","true"
"null","","fixation","html-keyboard-response","76","279066","0.0-8.0-0.24","600655801bca779c2a7a7048","condA","","<div class=""vertical-center"" style='width:60%;'><img src=""resources/images/US_flag_100x52.jpg"" style=""width:100px;height:52px;opacity:0.35;""> <br> <br> <p style='font-weight:bold;'>Does the middle word sound more like the first word (A) or the last word (B)?</p> <br> <div class=""container""> <div id=""a-box""> <p class=""title-text"">A</h3></p> </div> <div id=""x-box""> <p class=""title-text"">X<p> </div> <div id=""b-box""> <p class=""title-text"">B</p></div> <br> <div style='float: left;padding-left:30px;'><p>Press '1' for A</p></div><div style='float: right;padding-right:30px;'><p>Press '0' for B</p> </div> </div></div>","null","","","","","","","","","","","","","","","",""
"3219","","test","audio-keyboard-response","77","282286","0.0-8.0-1.24","600655801bca779c2a7a7048","condA","","resources/audio/wordStim/S3_AI_22_bxa_Step-8.wav","49","","","","","","resources/audio/wordStim/S3_AI_22_bxa_Step-8.wav","S3","22","bxa","8","MI","MI","S3-MI","1","1","true"
"null","","fixation","html-keyboard-response","78","283299","0.0-8.0-0.25","600655801bca779c2a7a7048","condA","","<div class=""vertical-center"" style='width:60%;'><img src=""resources/images/US_flag_100x52.jpg"" style=""width:100px;height:52px;opacity:0.35;""> <br> <br> <p style='font-weight:bold;'>Does the middle word sound more like the first word (A) or the last word (B)?</p> <br> <div class=""container""> <div id=""a-box""> <p class=""title-text"">A</h3></p> </div> <div id=""x-box""> <p class=""title-text"">X<p> </div> <div id=""b-box""> <p class=""title-text"">B</p></div> <br> <div style='float: left;padding-left:30px;'><p>Press '1' for A</p></div><div style='float: right;padding-right:30px;'><p>Press '0' for B</p> </div> </div></div>","null","","","","","","","","","","","","","","","",""
"3240","","test","audio-keyboard-response","79","286542","0.0-8.0-1.25","600655801bca779c2a7a7048","condA","","resources/audio/wordStim/S3_AU_20_axb_Step-2.wav","49","","","","","","resources/audio/wordStim/S3_AU_20_axb_Step-2.wav","S3","20","axb","2","MI","MI","S3-MI","0","1","false"
"null","","fixation","html-keyboard-response","80","287562","0.0-8.0-0.26","600655801bca779c2a7a7048","condA","","<div class=""vertical-center"" style='width:60%;'><img src=""resources/images/US_flag_100x52.jpg"" style=""width:100px;height:52px;opacity:0.35;""> <br> <br> <p style='font-weight:bold;'>Does the middle word sound more like the first word (A) or the last word (B)?</p> <br> <div class=""container""> <div id=""a-box""> <p class=""title-text"">A</h3></p> </div> <div id=""x-box""> <p class=""title-text"">X<p> </div> <div id=""b-box""> <p class=""title-text"">B</p></div> <br> <div style='float: left;padding-left:30px;'><p>Press '1' for A</p></div><div style='float: right;padding-right:30px;'><p>Press '0' for B</p> </div> </div></div>","null","","","","","","","","","","","","","","","",""
"3781","","test","audio-keyboard-response","81","291342","0.0-8.0-1.26","600655801bca779c2a7a7048","condA","","resources/audio/wordStim/S3_AU_20_bxa_Step-8.wav","49","","","","","","resources/audio/wordStim/S3_AU_20_bxa_Step-8.wav","S3","20","bxa","8","MI","MI","S3-MI","1","1","true"
"null","","fixation","html-keyboard-response","82","292365","0.0-8.0-0.27","600655801bca779c2a7a7048","condA","","<div class=""vertical-center"" style='width:60%;'><img src=""resources/images/US_flag_100x52.jpg"" style=""width:100px;height:52px;opacity:0.35;""> <br> <br> <p style='font-weight:bold;'>Does the middle word sound more like the first word (A) or the last word (B)?</p> <br> <div class=""container""> <div id=""a-box""> <p class=""title-text"">A</h3></p> </div> <div id=""x-box""> <p class=""title-text"">X<p> </div> <div id=""b-box""> <p class=""title-text"">B</p></div> <br> <div style='float: left;padding-left:30px;'><p>Press '1' for A</p></div><div style='float: right;padding-right:30px;'><p>Press '0' for B</p> </div> </div></div>","null","","","","","","","","","","","","","","","",""
"3189","","test","audio-keyboard-response","83","295558","0.0-8.0-1.27","600655801bca779c2a7a7048","condA","","resources/audio/wordStim/S3_AU_19_bxa_Step-4.wav","48","","","","","","resources/audio/wordStim/S3_AU_19_bxa_Step-4.wav","S3","19","bxa","4","MI","MI","S3-MI","1","0","false"
"null","","fixation","html-keyboard-response","84","296581","0.0-8.0-0.28","600655801bca779c2a7a7048","condA","","<div class=""vertical-center"" style='width:60%;'><img src=""resources/images/US_flag_100x52.jpg"" style=""width:100px;height:52px;opacity:0.35;""> <br> <br> <p style='font-weight:bold;'>Does the middle word sound more like the first word (A) or the last word (B)?</p> <br> <div class=""container""> <div id=""a-box""> <p class=""title-text"">A</h3></p> </div> <div id=""x-box""> <p class=""title-text"">X<p> </div> <div id=""b-box""> <p class=""title-text"">B</p></div> <br> <div style='float: left;padding-left:30px;'><p>Press '1' for A</p></div><div style='float: right;padding-right:30px;'><p>Press '0' for B</p> </div> </div></div>","null","","","","","","","","","","","","","","","",""
"3600","","test","audio-keyboard-response","85","300183","0.0-8.0-1.28","600655801bca779c2a7a7048","condA","","resources/audio/wordStim/S3_AI_30_bxa_Step-4.wav","48","","","","","","resources/audio/wordStim/S3_AI_30_bxa_Step-4.wav","S3","30","bxa","4","MI","MI","S3-MI","1","0","false"
"null","","fixation","html-keyboard-response","86","301200","0.0-8.0-0.29","600655801bca779c2a7a7048","condA","","<div class=""vertical-center"" style='width:60%;'><img src=""resources/images/US_flag_100x52.jpg"" style=""width:100px;height:52px;opacity:0.35;""> <br> <br> <p style='font-weight:bold;'>Does the middle word sound more like the first word (A) or the last word (B)?</p> <br> <div class=""container""> <div id=""a-box""> <p class=""title-text"">A</h3></p> </div> <div id=""x-box""> <p class=""title-text"">X<p> </div> <div id=""b-box""> <p class=""title-text"">B</p></div> <br> <div style='float: left;padding-left:30px;'><p>Press '1' for A</p></div><div style='float: right;padding-right:30px;'><p>Press '0' for B</p> </div> </div></div>","null","","","","","","","","","","","","","","","",""
"3232","","test","audio-keyboard-response","87","304430","0.0-8.0-1.29","600655801bca779c2a7a7048","condA","","resources/audio/wordStim/S3_AI_30_bxa_Step-8.wav","49","","","","","","resources/audio/wordStim/S3_AI_30_bxa_Step-8.wav","S3","30","bxa","8","MI","MI","S3-MI","1","1","true"
"null","","fixation","html-keyboard-response","88","305445","0.0-8.0-0.30","600655801bca779c2a7a7048","condA","","<div class=""vertical-center"" style='width:60%;'><img src=""resources/images/US_flag_100x52.jpg"" style=""width:100px;height:52px;opacity:0.35;""> <br> <br> <p style='font-weight:bold;'>Does the middle word sound more like the first word (A) or the last word (B)?</p> <br> <div class=""container""> <div id=""a-box""> <p class=""title-text"">A</h3></p> </div> <div id=""x-box""> <p class=""title-text"">X<p> </div> <div id=""b-box""> <p class=""title-text"">B</p></div> <br> <div style='float: left;padding-left:30px;'><p>Press '1' for A</p></div><div style='float: right;padding-right:30px;'><p>Press '0' for B</p> </div> </div></div>","null","","","","","","","","","","","","","","","",""
"3120","","test","audio-keyboard-response","89","308566","0.0-8.0-1.30","600655801bca779c2a7a7048","condA","","resources/audio/wordStim/S3_AU_19_bxa_Step-5.wav","48","","","","","","resources/audio/wordStim/S3_AU_19_bxa_Step-5.wav","S3","19","bxa","5","MI","MI","S3-MI","1","0","false"
"null","","fixation","html-keyboard-response","90","309584","0.0-8.0-0.31","600655801bca779c2a7a7048","condA","","<div class=""vertical-center"" style='width:60%;'><img src=""resources/images/US_flag_100x52.jpg"" style=""width:100px;height:52px;opacity:0.35;""> <br> <br> <p style='font-weight:bold;'>Does the middle word sound more like the first word (A) or the last word (B)?</p> <br> <div class=""container""> <div id=""a-box""> <p class=""title-text"">A</h3></p> </div> <div id=""x-box""> <p class=""title-text"">X<p> </div> <div id=""b-box""> <p class=""title-text"">B</p></div> <br> <div style='float: left;padding-left:30px;'><p>Press '1' for A</p></div><div style='float: right;padding-right:30px;'><p>Press '0' for B</p> </div> </div></div>","null","","","","","","","","","","","","","","","",""
"3589","","test","audio-keyboard-response","91","313182","0.0-8.0-1.31","600655801bca779c2a7a7048","condA","","resources/audio/wordStim/S3_AU_18_axb_Step-2.wav","49","","","","","","resources/audio/wordStim/S3_AU_18_axb_Step-2.wav","S3","18","axb","2","MI","MI","S3-MI","0","1","false"
"null","","fixation","html-keyboard-response","92","314202","0.0-8.0-0.32","600655801bca779c2a7a7048","condA","","<div class=""vertical-center"" style='width:60%;'><img src=""resources/images/US_flag_100x52.jpg"" style=""width:100px;height:52px;opacity:0.35;""> <br> <br> <p style='font-weight:bold;'>Does the middle word sound more like the first word (A) or the last word (B)?</p> <br> <div class=""container""> <div id=""a-box""> <p class=""title-text"">A</h3></p> </div> <div id=""x-box""> <p class=""title-text"">X<p> </div> <div id=""b-box""> <p class=""title-text"">B</p></div> <br> <div style='float: left;padding-left:30px;'><p>Press '1' for A</p></div><div style='float: right;padding-right:30px;'><p>Press '0' for B</p> </div> </div></div>","null","","","","","","","","","","","","","","","",""
"3520","","test","audio-keyboard-response","93","317726","0.0-8.0-1.32","600655801bca779c2a7a7048","condA","","resources/audio/wordStim/S3_AU_18_bxa_Step-5.wav","48","","","","","","resources/audio/wordStim/S3_AU_18_bxa_Step-5.wav","S3","18","bxa","5","MI","MI","S3-MI","1","0","false"
"null","","fixation","html-keyboard-response","94","318750","0.0-8.0-0.33","600655801bca779c2a7a7048","condA","","<div class=""vertical-center"" style='width:60%;'><img src=""resources/images/US_flag_100x52.jpg"" style=""width:100px;height:52px;opacity:0.35;""> <br> <br> <p style='font-weight:bold;'>Does the middle word sound more like the first word (A) or the last word (B)?</p> <br> <div class=""container""> <div id=""a-box""> <p class=""title-text"">A</h3></p> </div> <div id=""x-box""> <p class=""title-text"">X<p> </div> <div id=""b-box""> <p class=""title-text"">B</p></div> <br> <div style='float: left;padding-left:30px;'><p>Press '1' for A</p></div><div style='float: right;padding-right:30px;'><p>Press '0' for B</p> </div> </div></div>","null","","","","","","","","","","","","","","","",""
"3589","","test","audio-keyboard-response","95","322334","0.0-8.0-1.33","600655801bca779c2a7a7048","condA","","resources/audio/wordStim/S3_AI_30_axb_Step-4.wav","49","","","","","","resources/audio/wordStim/S3_AI_30_axb_Step-4.wav","S3","30","axb","4","MI","MI","S3-MI","0","1","false"
"null","","fixation","html-keyboard-response","96","323350","0.0-8.0-0.34","600655801bca779c2a7a7048","condA","","<div class=""vertical-center"" style='width:60%;'><img src=""resources/images/US_flag_100x52.jpg"" style=""width:100px;height:52px;opacity:0.35;""> <br> <br> <p style='font-weight:bold;'>Does the middle word sound more like the first word (A) or the last word (B)?</p> <br> <div class=""container""> <div id=""a-box""> <p class=""title-text"">A</h3></p> </div> <div id=""x-box""> <p class=""title-text"">X<p> </div> <div id=""b-box""> <p class=""title-text"">B</p></div> <br> <div style='float: left;padding-left:30px;'><p>Press '1' for A</p></div><div style='float: right;padding-right:30px;'><p>Press '0' for B</p> </div> </div></div>","null","","","","","","","","","","","","","","","",""
"3360","","test","audio-keyboard-response","97","326709","0.0-8.0-1.34","600655801bca779c2a7a7048","condA","","resources/audio/wordStim/S3_AI_30_bxa_Step-6.wav","48","","","","","","resources/audio/wordStim/S3_AI_30_bxa_Step-6.wav","S3","30","bxa","6","MI","MI","S3-MI","1","0","false"
"null","","fixation","html-keyboard-response","98","327727","0.0-8.0-0.35","600655801bca779c2a7a7048","condA","","<div class=""vertical-center"" style='width:60%;'><img src=""resources/images/US_flag_100x52.jpg"" style=""width:100px;height:52px;opacity:0.35;""> <br> <br> <p style='font-weight:bold;'>Does the middle word sound more like the first word (A) or the last word (B)?</p> <br> <div class=""container""> <div id=""a-box""> <p class=""title-text"">A</h3></p> </div> <div id=""x-box""> <p class=""title-text"">X<p> </div> <div id=""b-box""> <p class=""title-text"">B</p></div> <br> <div style='float: left;padding-left:30px;'><p>Press '1' for A</p></div><div style='float: right;padding-right:30px;'><p>Press '0' for B</p> </div> </div></div>","null","","","","","","","","","","","","","","","",""
"5040","","test","audio-keyboard-response","99","332766","0.0-8.0-1.35","600655801bca779c2a7a7048","condA","","resources/audio/wordStim/S3_AU_19_bxa_Step-8.wav","48","","","","","","resources/audio/wordStim/S3_AU_19_bxa_Step-8.wav","S3","19","bxa","8","MI","MI","S3-MI","1","0","false"
"null","","fixation","html-keyboard-response","100","333788","0.0-8.0-0.36","600655801bca779c2a7a7048","condA","","<div class=""vertical-center"" style='width:60%;'><img src=""resources/images/US_flag_100x52.jpg"" style=""width:100px;height:52px;opacity:0.35;""> <br> <br> <p style='font-weight:bold;'>Does the middle word sound more like the first word (A) or the last word (B)?</p> <br> <div class=""container""> <div id=""a-box""> <p class=""title-text"">A</h3></p> </div> <div id=""x-box""> <p class=""title-text"">X<p> </div> <div id=""b-box""> <p class=""title-text"">B</p></div> <br> <div style='float: left;padding-left:30px;'><p>Press '1' for A</p></div><div style='float: right;padding-right:30px;'><p>Press '0' for B</p> </div> </div></div>","null","","","","","","","","","","","","","","","",""
"3419","","test","audio-keyboard-response","101","337206","0.0-8.0-1.36","600655801bca779c2a7a7048","condA","","resources/audio/wordStim/S3_AI_30_axb_Step-3.wav","49","","","","","","resources/audio/wordStim/S3_AI_30_axb_Step-3.wav","S3","30","axb","3","MI","MI","S3-MI","0","1","false"
"null","","fixation","html-keyboard-response","102","338224","0.0-8.0-0.37","600655801bca779c2a7a7048","condA","","<div class=""vertical-center"" style='width:60%;'><img src=""resources/images/US_flag_100x52.jpg"" style=""width:100px;height:52px;opacity:0.35;""> <br> <br> <p style='font-weight:bold;'>Does the middle word sound more like the first word (A) or the last word (B)?</p> <br> <div class=""container""> <div id=""a-box""> <p class=""title-text"">A</h3></p> </div> <div id=""x-box""> <p class=""title-text"">X<p> </div> <div id=""b-box""> <p class=""title-text"">B</p></div> <br> <div style='float: left;padding-left:30px;'><p>Press '1' for A</p></div><div style='float: right;padding-right:30px;'><p>Press '0' for B</p> </div> </div></div>","null","","","","","","","","","","","","","","","",""
"3560","","test","audio-keyboard-response","103","341790","0.0-8.0-1.37","600655801bca779c2a7a7048","condA","","resources/audio/wordStim/S3_AU_18_axb_Step-3.wav","49","","","","","","resources/audio/wordStim/S3_AU_18_axb_Step-3.wav","S3","18","axb","3","MI","MI","S3-MI","0","1","false"
"null","","fixation","html-keyboard-response","104","342812","0.0-8.0-0.38","600655801bca779c2a7a7048","condA","","<div class=""vertical-center"" style='width:60%;'><img src=""resources/images/US_flag_100x52.jpg"" style=""width:100px;height:52px;opacity:0.35;""> <br> <br> <p style='font-weight:bold;'>Does the middle word sound more like the first word (A) or the last word (B)?</p> <br> <div class=""container""> <div id=""a-box""> <p class=""title-text"">A</h3></p> </div> <div id=""x-box""> <p class=""title-text"">X<p> </div> <div id=""b-box""> <p class=""title-text"">B</p></div> <br> <div style='float: left;padding-left:30px;'><p>Press '1' for A</p></div><div style='float: right;padding-right:30px;'><p>Press '0' for B</p> </div> </div></div>","null","","","","","","","","","","","","","","","",""
"3971","","test","audio-keyboard-response","105","346781","0.0-8.0-1.38","600655801bca779c2a7a7048","condA","","resources/audio/wordStim/S3_AI_21_axb_Step-2.wav","49","","","","","","resources/audio/wordStim/S3_AI_21_axb_Step-2.wav","S3","21","axb","2","MI","MI","S3-MI","0","1","false"
"null","","fixation","html-keyboard-response","106","347798","0.0-8.0-0.39","600655801bca779c2a7a7048","condA","","<div class=""vertical-center"" style='width:60%;'><img src=""resources/images/US_flag_100x52.jpg"" style=""width:100px;height:52px;opacity:0.35;""> <br> <br> <p style='font-weight:bold;'>Does the middle word sound more like the first word (A) or the last word (B)?</p> <br> <div class=""container""> <div id=""a-box""> <p class=""title-text"">A</h3></p> </div> <div id=""x-box""> <p class=""title-text"">X<p> </div> <div id=""b-box""> <p class=""title-text"">B</p></div> <br> <div style='float: left;padding-left:30px;'><p>Press '1' for A</p></div><div style='float: right;padding-right:30px;'><p>Press '0' for B</p> </div> </div></div>","null","","","","","","","","","","","","","","","",""
"3781","","test","audio-keyboard-response","107","351582","0.0-8.0-1.39","600655801bca779c2a7a7048","condA","","resources/audio/wordStim/S3_AU_18_axb_Step-8.wav","48","","","","","","resources/audio/wordStim/S3_AU_18_axb_Step-8.wav","S3","18","axb","8","MI","MI","S3-MI","0","0","true"
"null","","fixation","html-keyboard-response","108","352606","0.0-8.0-0.40","600655801bca779c2a7a7048","condA","","<div class=""vertical-center"" style='width:60%;'><img src=""resources/images/US_flag_100x52.jpg"" style=""width:100px;height:52px;opacity:0.35;""> <br> <br> <p style='font-weight:bold;'>Does the middle word sound more like the first word (A) or the last word (B)?</p> <br> <div class=""container""> <div id=""a-box""> <p class=""title-text"">A</h3></p> </div> <div id=""x-box""> <p class=""title-text"">X<p> </div> <div id=""b-box""> <p class=""title-text"">B</p></div> <br> <div style='float: left;padding-left:30px;'><p>Press '1' for A</p></div><div style='float: right;padding-right:30px;'><p>Press '0' for B</p> </div> </div></div>","null","","","","","","","","","","","","","","","",""
"3171","","test","audio-keyboard-response","109","355781","0.0-8.0-1.40","600655801bca779c2a7a7048","condA","","resources/audio/wordStim/S3_AU_19_bxa_Step-7.wav","49","","","","","","resources/audio/wordStim/S3_AU_19_bxa_Step-7.wav","S3","19","bxa","7","MI","MI","S3-MI","1","1","true"
"null","","fixation","html-keyboard-response","110","356798","0.0-8.0-0.41","600655801bca779c2a7a7048","condA","","<div class=""vertical-center"" style='width:60%;'><img src=""resources/images/US_flag_100x52.jpg"" style=""width:100px;height:52px;opacity:0.35;""> <br> <br> <p style='font-weight:bold;'>Does the middle word sound more like the first word (A) or the last word (B)?</p> <br> <div class=""container""> <div id=""a-box""> <p class=""title-text"">A</h3></p> </div> <div id=""x-box""> <p class=""title-text"">X<p> </div> <div id=""b-box""> <p class=""title-text"">B</p></div> <br> <div style='float: left;padding-left:30px;'><p>Press '1' for A</p></div><div style='float: right;padding-right:30px;'><p>Press '0' for B</p> </div> </div></div>","null","","","","","","","","","","","","","","","",""
"2821","","test","audio-keyboard-response","111","359622","0.0-8.0-1.41","600655801bca779c2a7a7048","condA","","resources/audio/wordStim/S3_AI_21_axb_Step-5.wav","49","","","","","","resources/audio/wordStim/S3_AI_21_axb_Step-5.wav","S3","21","axb","5","MI","MI","S3-MI","0","1","false"
"1304.435000056401","","break","html-keyboard-response","112","361437","0.0-8.0-2.41-0.41","600655801bca779c2a7a7048","condA","","<div class=""vertical-center""><p>Feel free to take a break!</p><i>When you're ready to continue, press SPACE to begin the next trial.</i></p></div>","32","","","","","","","","","","","","","","","",""
"null","","fixation","html-keyboard-response","113","361939","0.0-8.0-0.42","600655801bca779c2a7a7048","condA","","<div class=""vertical-center"" style='width:60%;'><img src=""resources/images/US_flag_100x52.jpg"" style=""width:100px;height:52px;opacity:0.35;""> <br> <br> <p style='font-weight:bold;'>Does the middle word sound more like the first word (A) or the last word (B)?</p> <br> <div class=""container""> <div id=""a-box""> <p class=""title-text"">A</h3></p> </div> <div id=""x-box""> <p class=""title-text"">X<p> </div> <div id=""b-box""> <p class=""title-text"">B</p></div> <br> <div style='float: left;padding-left:30px;'><p>Press '1' for A</p></div><div style='float: right;padding-right:30px;'><p>Press '0' for B</p> </div> </div></div>","null","","","","","","","","","","","","","","","",""
"2720","","test","audio-keyboard-response","114","364662","0.0-8.0-1.42","600655801bca779c2a7a7048","condA","","resources/audio/wordStim/S3_AI_21_bxa_Step-4.wav","49","","","","","","resources/audio/wordStim/S3_AI_21_bxa_Step-4.wav","S3","21","bxa","4","MI","MI","S3-MI","1","1","true"
"null","","fixation","html-keyboard-response","115","365679","0.0-8.0-0.43","600655801bca779c2a7a7048","condA","","<div class=""vertical-center"" style='width:60%;'><img src=""resources/images/US_flag_100x52.jpg"" style=""width:100px;height:52px;opacity:0.35;""> <br> <br> <p style='font-weight:bold;'>Does the middle word sound more like the first word (A) or the last word (B)?</p> <br> <div class=""container""> <div id=""a-box""> <p class=""title-text"">A</h3></p> </div> <div id=""x-box""> <p class=""title-text"">X<p> </div> <div id=""b-box""> <p class=""title-text"">B</p></div> <br> <div style='float: left;padding-left:30px;'><p>Press '1' for A</p></div><div style='float: right;padding-right:30px;'><p>Press '0' for B</p> </div> </div></div>","null","","","","","","","","","","","","","","","",""
"3352","","test","audio-keyboard-response","116","369029","0.0-8.0-1.43","600655801bca779c2a7a7048","condA","","resources/audio/wordStim/S3_AI_30_axb_Step-6.wav","49","","","","","","resources/audio/wordStim/S3_AI_30_axb_Step-6.wav","S3","30","axb","6","MI","MI","S3-MI","0","1","false"
"null","","fixation","html-keyboard-response","117","370055","0.0-8.0-0.44","600655801bca779c2a7a7048","condA","","<div class=""vertical-center"" style='width:60%;'><img src=""resources/images/US_flag_100x52.jpg"" style=""width:100px;height:52px;opacity:0.35;""> <br> <br> <p style='font-weight:bold;'>Does the middle word sound more like the first word (A) or the last word (B)?</p> <br> <div class=""container""> <div id=""a-box""> <p class=""title-text"">A</h3></p> </div> <div id=""x-box""> <p class=""title-text"">X<p> </div> <div id=""b-box""> <p class=""title-text"">B</p></div> <br> <div style='float: left;padding-left:30px;'><p>Press '1' for A</p></div><div style='float: right;padding-right:30px;'><p>Press '0' for B</p> </div> </div></div>","null","","","","","","","","","","","","","","","",""
"3499","","test","audio-keyboard-response","118","373558","0.0-8.0-1.44","600655801bca779c2a7a7048","condA","","resources/audio/wordStim/S3_AU_20_bxa_Step-3.wav","48","","","","","","resources/audio/wordStim/S3_AU_20_bxa_Step-3.wav","S3","20","bxa","3","MI","MI","S3-MI","1","0","false"
"null","","fixation","html-keyboard-response","119","374580","0.0-8.0-0.45","600655801bca779c2a7a7048","condA","","<div class=""vertical-center"" style='width:60%;'><img src=""resources/images/US_flag_100x52.jpg"" style=""width:100px;height:52px;opacity:0.35;""> <br> <br> <p style='font-weight:bold;'>Does the middle word sound more like the first word (A) or the last word (B)?</p> <br> <div class=""container""> <div id=""a-box""> <p class=""title-text"">A</h3></p> </div> <div id=""x-box""> <p class=""title-text"">X<p> </div> <div id=""b-box""> <p class=""title-text"">B</p></div> <br> <div style='float: left;padding-left:30px;'><p>Press '1' for A</p></div><div style='float: right;padding-right:30px;'><p>Press '0' for B</p> </div> </div></div>","null","","","","","","","","","","","","","","","",""
"3109","","test","audio-keyboard-response","120","377685","0.0-8.0-1.45","600655801bca779c2a7a7048","condA","","resources/audio/wordStim/S3_AU_19_axb_Step-8.wav","48","","","","","","resources/audio/wordStim/S3_AU_19_axb_Step-8.wav","S3","19","axb","8","MI","MI","S3-MI","0","0","true"
"null","","fixation","html-keyboard-response","121","378708","0.0-8.0-0.46","600655801bca779c2a7a7048","condA","","<div class=""vertical-center"" style='width:60%;'><img src=""resources/images/US_flag_100x52.jpg"" style=""width:100px;height:52px;opacity:0.35;""> <br> <br> <p style='font-weight:bold;'>Does the middle word sound more like the first word (A) or the last word (B)?</p> <br> <div class=""container""> <div id=""a-box""> <p class=""title-text"">A</h3></p> </div> <div id=""x-box""> <p class=""title-text"">X<p> </div> <div id=""b-box""> <p class=""title-text"">B</p></div> <br> <div style='float: left;padding-left:30px;'><p>Press '1' for A</p></div><div style='float: right;padding-right:30px;'><p>Press '0' for B</p> </div> </div></div>","null","","","","","","","","","","","","","","","",""
"3379","","test","audio-keyboard-response","122","382093","0.0-8.0-1.46","600655801bca779c2a7a7048","condA","","resources/audio/wordStim/S3_AI_22_axb_Step-4.wav","48","","","","","","resources/audio/wordStim/S3_AI_22_axb_Step-4.wav","S3","22","axb","4","MI","MI","S3-MI","0","0","true"
"null","","fixation","html-keyboard-response","123","383106","0.0-8.0-0.47","600655801bca779c2a7a7048","condA","","<div class=""vertical-center"" style='width:60%;'><img src=""resources/images/US_flag_100x52.jpg"" style=""width:100px;height:52px;opacity:0.35;""> <br> <br> <p style='font-weight:bold;'>Does the middle word sound more like the first word (A) or the last word (B)?</p> <br> <div class=""container""> <div id=""a-box""> <p class=""title-text"">A</h3></p> </div> <div id=""x-box""> <p class=""title-text"">X<p> </div> <div id=""b-box""> <p class=""title-text"">B</p></div> <br> <div style='float: left;padding-left:30px;'><p>Press '1' for A</p></div><div style='float: right;padding-right:30px;'><p>Press '0' for B</p> </div> </div></div>","null","","","","","","","","","","","","","","","",""
"2989","","test","audio-keyboard-response","124","386102","0.0-8.0-1.47","600655801bca779c2a7a7048","condA","","resources/audio/wordStim/S3_AI_21_axb_Step-3.wav","49","","","","","","resources/audio/wordStim/S3_AI_21_axb_Step-3.wav","S3","21","axb","3","MI","MI","S3-MI","0","1","false"
"null","","fixation","html-keyboard-response","125","387128","0.0-8.0-0.48","600655801bca779c2a7a7048","condA","","<div class=""vertical-center"" style='width:60%;'><img src=""resources/images/US_flag_100x52.jpg"" style=""width:100px;height:52px;opacity:0.35;""> <br> <br> <p style='font-weight:bold;'>Does the middle word sound more like the first word (A) or the last word (B)?</p> <br> <div class=""container""> <div id=""a-box""> <p class=""title-text"">A</h3></p> </div> <div id=""x-box""> <p class=""title-text"">X<p> </div> <div id=""b-box""> <p class=""title-text"">B</p></div> <br> <div style='float: left;padding-left:30px;'><p>Press '1' for A</p></div><div style='float: right;padding-right:30px;'><p>Press '0' for B</p> </div> </div></div>","null","","","","","","","","","","","","","","","",""
"3600","","test","audio-keyboard-response","126","390725","0.0-8.0-1.48","600655801bca779c2a7a7048","condA","","resources/audio/wordStim/S3_AU_18_bxa_Step-2.wav","48","","","","","","resources/audio/wordStim/S3_AU_18_bxa_Step-2.wav","S3","18","bxa","2","MI","MI","S3-MI","1","0","false"
"null","","fixation","html-keyboard-response","127","391744","0.0-8.0-0.49","600655801bca779c2a7a7048","condA","","<div class=""vertical-center"" style='width:60%;'><img src=""resources/images/US_flag_100x52.jpg"" style=""width:100px;height:52px;opacity:0.35;""> <br> <br> <p style='font-weight:bold;'>Does the middle word sound more like the first word (A) or the last word (B)?</p> <br> <div class=""container""> <div id=""a-box""> <p class=""title-text"">A</h3></p> </div> <div id=""x-box""> <p class=""title-text"">X<p> </div> <div id=""b-box""> <p class=""title-text"">B</p></div> <br> <div style='float: left;padding-left:30px;'><p>Press '1' for A</p></div><div style='float: right;padding-right:30px;'><p>Press '0' for B</p> </div> </div></div>","null","","","","","","","","","","","","","","","",""
"3229","","test","audio-keyboard-response","128","394982","0.0-8.0-1.49","600655801bca779c2a7a7048","condA","","resources/audio/wordStim/S3_AU_19_bxa_Step-6.wav","49","","","","","","resources/audio/wordStim/S3_AU_19_bxa_Step-6.wav","S3","19","bxa","6","MI","MI","S3-MI","1","1","true"
"null","","fixation","html-keyboard-response","129","395995","0.0-8.0-0.50","600655801bca779c2a7a7048","condA","","<div class=""vertical-center"" style='width:60%;'><img src=""resources/images/US_flag_100x52.jpg"" style=""width:100px;height:52px;opacity:0.35;""> <br> <br> <p style='font-weight:bold;'>Does the middle word sound more like the first word (A) or the last word (B)?</p> <br> <div class=""container""> <div id=""a-box""> <p class=""title-text"">A</h3></p> </div> <div id=""x-box""> <p class=""title-text"">X<p> </div> <div id=""b-box""> <p class=""title-text"">B</p></div> <br> <div style='float: left;padding-left:30px;'><p>Press '1' for A</p></div><div style='float: right;padding-right:30px;'><p>Press '0' for B</p> </div> </div></div>","null","","","","","","","","","","","","","","","",""
"3251","","test","audio-keyboard-response","130","399246","0.0-8.0-1.50","600655801bca779c2a7a7048","condA","","resources/audio/wordStim/S3_AU_20_axb_Step-3.wav","49","","","","","","resources/audio/wordStim/S3_AU_20_axb_Step-3.wav","S3","20","axb","3","MI","MI","S3-MI","0","1","false"
"null","","fixation","html-keyboard-response","131","400260","0.0-8.0-0.51","600655801bca779c2a7a7048","condA","","<div class=""vertical-center"" style='width:60%;'><img src=""resources/images/US_flag_100x52.jpg"" style=""width:100px;height:52px;opacity:0.35;""> <br> <br> <p style='font-weight:bold;'>Does the middle word sound more like the first word (A) or the last word (B)?</p> <br> <div class=""container""> <div id=""a-box""> <p class=""title-text"">A</h3></p> </div> <div id=""x-box""> <p class=""title-text"">X<p> </div> <div id=""b-box""> <p class=""title-text"">B</p></div> <br> <div style='float: left;padding-left:30px;'><p>Press '1' for A</p></div><div style='float: right;padding-right:30px;'><p>Press '0' for B</p> </div> </div></div>","null","","","","","","","","","","","","","","","",""
"2800","","test","audio-keyboard-response","132","403061","0.0-8.0-1.51","600655801bca779c2a7a7048","condA","","resources/audio/wordStim/S3_AI_21_axb_Step-6.wav","48","","","","","","resources/audio/wordStim/S3_AI_21_axb_Step-6.wav","S3","21","axb","6","MI","MI","S3-MI","0","0","true"
"null","","fixation","html-keyboard-response","133","404076","0.0-8.0-0.52","600655801bca779c2a7a7048","condA","","<div class=""vertical-center"" style='width:60%;'><img src=""resources/images/US_flag_100x52.jpg"" style=""width:100px;height:52px;opacity:0.35;""> <br> <br> <p style='font-weight:bold;'>Does the middle word sound more like the first word (A) or the last word (B)?</p> <br> <div class=""container""> <div id=""a-box""> <p class=""title-text"">A</h3></p> </div> <div id=""x-box""> <p class=""title-text"">X<p> </div> <div id=""b-box""> <p class=""title-text"">B</p></div> <br> <div style='float: left;padding-left:30px;'><p>Press '1' for A</p></div><div style='float: right;padding-right:30px;'><p>Press '0' for B</p> </div> </div></div>","null","","","","","","","","","","","","","","","",""
"2941","","test","audio-keyboard-response","134","407022","0.0-8.0-1.52","600655801bca779c2a7a7048","condA","","resources/audio/wordStim/S3_AU_19_axb_Step-5.wav","49","","","","","","resources/audio/wordStim/S3_AU_19_axb_Step-5.wav","S3","19","axb","5","MI","MI","S3-MI","0","1","false"
"null","","fixation","html-keyboard-response","135","408048","0.0-8.0-0.53","600655801bca779c2a7a7048","condA","","<div class=""vertical-center"" style='width:60%;'><img src=""resources/images/US_flag_100x52.jpg"" style=""width:100px;height:52px;opacity:0.35;""> <br> <br> <p style='font-weight:bold;'>Does the middle word sound more like the first word (A) or the last word (B)?</p> <br> <div class=""container""> <div id=""a-box""> <p class=""title-text"">A</h3></p> </div> <div id=""x-box""> <p class=""title-text"">X<p> </div> <div id=""b-box""> <p class=""title-text"">B</p></div> <br> <div style='float: left;padding-left:30px;'><p>Press '1' for A</p></div><div style='float: right;padding-right:30px;'><p>Press '0' for B</p> </div> </div></div>","null","","","","","","","","","","","","","","","",""
"3549","","test","audio-keyboard-response","136","411598","0.0-8.0-1.53","600655801bca779c2a7a7048","condA","","resources/audio/wordStim/S3_AU_18_bxa_Step-3.wav","48","","","","","","resources/audio/wordStim/S3_AU_18_bxa_Step-3.wav","S3","18","bxa","3","MI","MI","S3-MI","1","0","false"
"null","","fixation","html-keyboard-response","137","412616","0.0-8.0-0.54","600655801bca779c2a7a7048","condA","","<div class=""vertical-center"" style='width:60%;'><img src=""resources/images/US_flag_100x52.jpg"" style=""width:100px;height:52px;opacity:0.35;""> <br> <br> <p style='font-weight:bold;'>Does the middle word sound more like the first word (A) or the last word (B)?</p> <br> <div class=""container""> <div id=""a-box""> <p class=""title-text"">A</h3></p> </div> <div id=""x-box""> <p class=""title-text"">X<p> </div> <div id=""b-box""> <p class=""title-text"">B</p></div> <br> <div style='float: left;padding-left:30px;'><p>Press '1' for A</p></div><div style='float: right;padding-right:30px;'><p>Press '0' for B</p> </div> </div></div>","null","","","","","","","","","","","","","","","",""
"2960","","test","audio-keyboard-response","138","415582","0.0-8.0-1.54","600655801bca779c2a7a7048","condA","","resources/audio/wordStim/S3_AI_21_axb_Step-8.wav","48","","","","","","resources/audio/wordStim/S3_AI_21_axb_Step-8.wav","S3","21","axb","8","MI","MI","S3-MI","0","0","true"
"null","","fixation","html-keyboard-response","139","416603","0.0-8.0-0.55","600655801bca779c2a7a7048","condA","","<div class=""vertical-center"" style='width:60%;'><img src=""resources/images/US_flag_100x52.jpg"" style=""width:100px;height:52px;opacity:0.35;""> <br> <br> <p style='font-weight:bold;'>Does the middle word sound more like the first word (A) or the last word (B)?</p> <br> <div class=""container""> <div id=""a-box""> <p class=""title-text"">A</h3></p> </div> <div id=""x-box""> <p class=""title-text"">X<p> </div> <div id=""b-box""> <p class=""title-text"">B</p></div> <br> <div style='float: left;padding-left:30px;'><p>Press '1' for A</p></div><div style='float: right;padding-right:30px;'><p>Press '0' for B</p> </div> </div></div>","null","","","","","","","","","","","","","","","",""
"3091","","test","audio-keyboard-response","140","419701","0.0-8.0-1.55","600655801bca779c2a7a7048","condA","","resources/audio/wordStim/S3_AI_30_axb_Step-8.wav","48","","","","","","resources/audio/wordStim/S3_AI_30_axb_Step-8.wav","S3","30","axb","8","MI","MI","S3-MI","0","0","true"
"null","","fixation","html-keyboard-response","141","420724","0.0-8.0-0.56","600655801bca779c2a7a7048","condA","","<div class=""vertical-center"" style='width:60%;'><img src=""resources/images/US_flag_100x52.jpg"" style=""width:100px;height:52px;opacity:0.35;""> <br> <br> <p style='font-weight:bold;'>Does the middle word sound more like the first word (A) or the last word (B)?</p> <br> <div class=""container""> <div id=""a-box""> <p class=""title-text"">A</h3></p> </div> <div id=""x-box""> <p class=""title-text"">X<p> </div> <div id=""b-box""> <p class=""title-text"">B</p></div> <br> <div style='float: left;padding-left:30px;'><p>Press '1' for A</p></div><div style='float: right;padding-right:30px;'><p>Press '0' for B</p> </div> </div></div>","null","","","","","","","","","","","","","","","",""
"3611","","test","audio-keyboard-response","142","424334","0.0-8.0-1.56","600655801bca779c2a7a7048","condA","","resources/audio/wordStim/S3_AU_18_bxa_Step-7.wav","49","","","","","","resources/audio/wordStim/S3_AU_18_bxa_Step-7.wav","S3","18","bxa","7","MI","MI","S3-MI","1","1","true"
"null","","fixation","html-keyboard-response","143","425353","0.0-8.0-0.57","600655801bca779c2a7a7048","condA","","<div class=""vertical-center"" style='width:60%;'><img src=""resources/images/US_flag_100x52.jpg"" style=""width:100px;height:52px;opacity:0.35;""> <br> <br> <p style='font-weight:bold;'>Does the middle word sound more like the first word (A) or the last word (B)?</p> <br> <div class=""container""> <div id=""a-box""> <p class=""title-text"">A</h3></p> </div> <div id=""x-box""> <p class=""title-text"">X<p> </div> <div id=""b-box""> <p class=""title-text"">B</p></div> <br> <div style='float: left;padding-left:30px;'><p>Press '1' for A</p></div><div style='float: right;padding-right:30px;'><p>Press '0' for B</p> </div> </div></div>","null","","","","","","","","","","","","","","","",""
"3512","","test","audio-keyboard-response","144","428870","0.0-8.0-1.57","600655801bca779c2a7a7048","condA","","resources/audio/wordStim/S3_AI_22_bxa_Step-4.wav","49","","","","","","resources/audio/wordStim/S3_AI_22_bxa_Step-4.wav","S3","22","bxa","4","MI","MI","S3-MI","1","1","true"
"null","","fixation","html-keyboard-response","145","429893","0.0-8.0-0.58","600655801bca779c2a7a7048","condA","","<div class=""vertical-center"" style='width:60%;'><img src=""resources/images/US_flag_100x52.jpg"" style=""width:100px;height:52px;opacity:0.35;""> <br> <br> <p style='font-weight:bold;'>Does the middle word sound more like the first word (A) or the last word (B)?</p> <br> <div class=""container""> <div id=""a-box""> <p class=""title-text"">A</h3></p> </div> <div id=""x-box""> <p class=""title-text"">X<p> </div> <div id=""b-box""> <p class=""title-text"">B</p></div> <br> <div style='float: left;padding-left:30px;'><p>Press '1' for A</p></div><div style='float: right;padding-right:30px;'><p>Press '0' for B</p> </div> </div></div>","null","","","","","","","","","","","","","","","",""
"2629","","test","audio-keyboard-response","146","432526","0.0-8.0-1.58","600655801bca779c2a7a7048","condA","","resources/audio/wordStim/S3_AI_21_bxa_Step-8.wav","49","","","","","","resources/audio/wordStim/S3_AI_21_bxa_Step-8.wav","S3","21","bxa","8","MI","MI","S3-MI","1","1","true"
"null","","fixation","html-keyboard-response","147","433549","0.0-8.0-0.59","600655801bca779c2a7a7048","condA","","<div class=""vertical-center"" style='width:60%;'><img src=""resources/images/US_flag_100x52.jpg"" style=""width:100px;height:52px;opacity:0.35;""> <br> <br> <p style='font-weight:bold;'>Does the middle word sound more like the first word (A) or the last word (B)?</p> <br> <div class=""container""> <div id=""a-box""> <p class=""title-text"">A</h3></p> </div> <div id=""x-box""> <p class=""title-text"">X<p> </div> <div id=""b-box""> <p class=""title-text"">B</p></div> <br> <div style='float: left;padding-left:30px;'><p>Press '1' for A</p></div><div style='float: right;padding-right:30px;'><p>Press '0' for B</p> </div> </div></div>","null","","","","","","","","","","","","","","","",""
"2840","","test","audio-keyboard-response","148","436389","0.0-8.0-1.59","600655801bca779c2a7a7048","condA","","resources/audio/wordStim/S3_AI_21_bxa_Step-3.wav","49","","","","","","resources/audio/wordStim/S3_AI_21_bxa_Step-3.wav","S3","21","bxa","3","MI","MI","S3-MI","1","1","true"
"null","","fixation","html-keyboard-response","149","437410","0.0-8.0-0.60","600655801bca779c2a7a7048","condA","","<div class=""vertical-center"" style='width:60%;'><img src=""resources/images/US_flag_100x52.jpg"" style=""width:100px;height:52px;opacity:0.35;""> <br> <br> <p style='font-weight:bold;'>Does the middle word sound more like the first word (A) or the last word (B)?</p> <br> <div class=""container""> <div id=""a-box""> <p class=""title-text"">A</h3></p> </div> <div id=""x-box""> <p class=""title-text"">X<p> </div> <div id=""b-box""> <p class=""title-text"">B</p></div> <br> <div style='float: left;padding-left:30px;'><p>Press '1' for A</p></div><div style='float: right;padding-right:30px;'><p>Press '0' for B</p> </div> </div></div>","null","","","","","","","","","","","","","","","",""
"2949","","test","audio-keyboard-response","150","440357","0.0-8.0-1.60","600655801bca779c2a7a7048","condA","","resources/audio/wordStim/S3_AU_20_bxa_Step-4.wav","48","","","","","","resources/audio/wordStim/S3_AU_20_bxa_Step-4.wav","S3","20","bxa","4","MI","MI","S3-MI","1","0","false"
"null","","fixation","html-keyboard-response","151","441371","0.0-8.0-0.61","600655801bca779c2a7a7048","condA","","<div class=""vertical-center"" style='width:60%;'><img src=""resources/images/US_flag_100x52.jpg"" style=""width:100px;height:52px;opacity:0.35;""> <br> <br> <p style='font-weight:bold;'>Does the middle word sound more like the first word (A) or the last word (B)?</p> <br> <div class=""container""> <div id=""a-box""> <p class=""title-text"">A</h3></p> </div> <div id=""x-box""> <p class=""title-text"">X<p> </div> <div id=""b-box""> <p class=""title-text"">B</p></div> <br> <div style='float: left;padding-left:30px;'><p>Press '1' for A</p></div><div style='float: right;padding-right:30px;'><p>Press '0' for B</p> </div> </div></div>","null","","","","","","","","","","","","","","","",""
"3811","","test","audio-keyboard-response","152","445182","0.0-8.0-1.61","600655801bca779c2a7a7048","condA","","resources/audio/wordStim/S3_AI_30_bxa_Step-3.wav","48","","","","","","resources/audio/wordStim/S3_AI_30_bxa_Step-3.wav","S3","30","bxa","3","MI","MI","S3-MI","1","0","false"
"null","","fixation","html-keyboard-response","153","446206","0.0-8.0-0.62","600655801bca779c2a7a7048","condA","","<div class=""vertical-center"" style='width:60%;'><img src=""resources/images/US_flag_100x52.jpg"" style=""width:100px;height:52px;opacity:0.35;""> <br> <br> <p style='font-weight:bold;'>Does the middle word sound more like the first word (A) or the last word (B)?</p> <br> <div class=""container""> <div id=""a-box""> <p class=""title-text"">A</h3></p> </div> <div id=""x-box""> <p class=""title-text"">X<p> </div> <div id=""b-box""> <p class=""title-text"">B</p></div> <br> <div style='float: left;padding-left:30px;'><p>Press '1' for A</p></div><div style='float: right;padding-right:30px;'><p>Press '0' for B</p> </div> </div></div>","null","","","","","","","","","","","","","","","",""
"3211","","test","audio-keyboard-response","154","449414","0.0-8.0-1.62","600655801bca779c2a7a7048","condA","","resources/audio/wordStim/S3_AI_21_bxa_Step-6.wav","49","","","","","","resources/audio/wordStim/S3_AI_21_bxa_Step-6.wav","S3","21","bxa","6","MI","MI","S3-MI","1","1","true"
"1166.6500000283122","","break","html-keyboard-response","155","451093","0.0-8.0-2.62-0.62","600655801bca779c2a7a7048","condA","","<div class=""vertical-center""><p>Feel free to take a break!</p><i>When you're ready to continue, press SPACE to begin the next trial.</i></p></div>","32","","","","","","","","","","","","","","","",""
"null","","fixation","html-keyboard-response","156","451595","0.0-8.0-0.63","600655801bca779c2a7a7048","condA","","<div class=""vertical-center"" style='width:60%;'><img src=""resources/images/US_flag_100x52.jpg"" style=""width:100px;height:52px;opacity:0.35;""> <br> <br> <p style='font-weight:bold;'>Does the middle word sound more like the first word (A) or the last word (B)?</p> <br> <div class=""container""> <div id=""a-box""> <p class=""title-text"">A</h3></p> </div> <div id=""x-box""> <p class=""title-text"">X<p> </div> <div id=""b-box""> <p class=""title-text"">B</p></div> <br> <div style='float: left;padding-left:30px;'><p>Press '1' for A</p></div><div style='float: right;padding-right:30px;'><p>Press '0' for B</p> </div> </div></div>","null","","","","","","","","","","","","","","","",""
"3832","","test","audio-keyboard-response","157","455430","0.0-8.0-1.63","600655801bca779c2a7a7048","condA","","resources/audio/wordStim/S3_AU_18_bxa_Step-8.wav","49","","","","","","resources/audio/wordStim/S3_AU_18_bxa_Step-8.wav","S3","18","bxa","8","MI","MI","S3-MI","1","1","true"
"null","","fixation","html-keyboard-response","158","456442","0.0-8.0-0.64","600655801bca779c2a7a7048","condA","","<div class=""vertical-center"" style='width:60%;'><img src=""resources/images/US_flag_100x52.jpg"" style=""width:100px;height:52px;opacity:0.35;""> <br> <br> <p style='font-weight:bold;'>Does the middle word sound more like the first word (A) or the last word (B)?</p> <br> <div class=""container""> <div id=""a-box""> <p class=""title-text"">A</h3></p> </div> <div id=""x-box""> <p class=""title-text"">X<p> </div> <div id=""b-box""> <p class=""title-text"">B</p></div> <br> <div style='float: left;padding-left:30px;'><p>Press '1' for A</p></div><div style='float: right;padding-right:30px;'><p>Press '0' for B</p> </div> </div></div>","null","","","","","","","","","","","","","","","",""
"3392","","test","audio-keyboard-response","159","459830","0.0-8.0-1.64","600655801bca779c2a7a7048","condA","","resources/audio/wordStim/S3_AU_19_axb_Step-7.wav","48","","","","","","resources/audio/wordStim/S3_AU_19_axb_Step-7.wav","S3","19","axb","7","MI","MI","S3-MI","0","0","true"
"null","","fixation","html-keyboard-response","160","460850","0.0-8.0-0.65","600655801bca779c2a7a7048","condA","","<div class=""vertical-center"" style='width:60%;'><img src=""resources/images/US_flag_100x52.jpg"" style=""width:100px;height:52px;opacity:0.35;""> <br> <br> <p style='font-weight:bold;'>Does the middle word sound more like the first word (A) or the last word (B)?</p> <br> <div class=""container""> <div id=""a-box""> <p class=""title-text"">A</h3></p> </div> <div id=""x-box""> <p class=""title-text"">X<p> </div> <div id=""b-box""> <p class=""title-text"">B</p></div> <br> <div style='float: left;padding-left:30px;'><p>Press '1' for A</p></div><div style='float: right;padding-right:30px;'><p>Press '0' for B</p> </div> </div></div>","null","","","","","","","","","","","","","","","",""
"2989","","test","audio-keyboard-response","161","463838","0.0-8.0-1.65","600655801bca779c2a7a7048","condA","","resources/audio/wordStim/S3_AU_20_bxa_Step-2.wav","48","","","","","","resources/audio/wordStim/S3_AU_20_bxa_Step-2.wav","S3","20","bxa","2","MI","MI","S3-MI","1","0","false"
"null","","fixation","html-keyboard-response","162","464849","0.0-8.0-0.66","600655801bca779c2a7a7048","condA","","<div class=""vertical-center"" style='width:60%;'><img src=""resources/images/US_flag_100x52.jpg"" style=""width:100px;height:52px;opacity:0.35;""> <br> <br> <p style='font-weight:bold;'>Does the middle word sound more like the first word (A) or the last word (B)?</p> <br> <div class=""container""> <div id=""a-box""> <p class=""title-text"">A</h3></p> </div> <div id=""x-box""> <p class=""title-text"">X<p> </div> <div id=""b-box""> <p class=""title-text"">B</p></div> <br> <div style='float: left;padding-left:30px;'><p>Press '1' for A</p></div><div style='float: right;padding-right:30px;'><p>Press '0' for B</p> </div> </div></div>","null","","","","","","","","","","","","","","","",""
"3731","","test","audio-keyboard-response","163","468574","0.0-8.0-1.66","600655801bca779c2a7a7048","condA","","resources/audio/wordStim/S3_AI_21_bxa_Step-2.wav","49","","","","","","resources/audio/wordStim/S3_AI_21_bxa_Step-2.wav","S3","21","bxa","2","MI","MI","S3-MI","1","1","true"
"null","","fixation","html-keyboard-response","164","469594","0.0-8.0-0.67","600655801bca779c2a7a7048","condA","","<div class=""vertical-center"" style='width:60%;'><img src=""resources/images/US_flag_100x52.jpg"" style=""width:100px;height:52px;opacity:0.35;""> <br> <br> <p style='font-weight:bold;'>Does the middle word sound more like the first word (A) or the last word (B)?</p> <br> <div class=""container""> <div id=""a-box""> <p class=""title-text"">A</h3></p> </div> <div id=""x-box""> <p class=""title-text"">X<p> </div> <div id=""b-box""> <p class=""title-text"">B</p></div> <br> <div style='float: left;padding-left:30px;'><p>Press '1' for A</p></div><div style='float: right;padding-right:30px;'><p>Press '0' for B</p> </div> </div></div>","null","","","","","","","","","","","","","","","",""
"3781","","test","audio-keyboard-response","165","473382","0.0-8.0-1.67","600655801bca779c2a7a7048","condA","","resources/audio/wordStim/S3_AU_18_axb_Step-6.wav","48","","","","","","resources/audio/wordStim/S3_AU_18_axb_Step-6.wav","S3","18","axb","6","MI","MI","S3-MI","0","0","true"
"null","","fixation","html-keyboard-response","166","474408","0.0-8.0-0.68","600655801bca779c2a7a7048","condA","","<div class=""vertical-center"" style='width:60%;'><img src=""resources/images/US_flag_100x52.jpg"" style=""width:100px;height:52px;opacity:0.35;""> <br> <br> <p style='font-weight:bold;'>Does the middle word sound more like the first word (A) or the last word (B)?</p> <br> <div class=""container""> <div id=""a-box""> <p class=""title-text"">A</h3></p> </div> <div id=""x-box""> <p class=""title-text"">X<p> </div> <div id=""b-box""> <p class=""title-text"">B</p></div> <br> <div style='float: left;padding-left:30px;'><p>Press '1' for A</p></div><div style='float: right;padding-right:30px;'><p>Press '0' for B</p> </div> </div></div>","null","","","","","","","","","","","","","","","",""
"3621","","test","audio-keyboard-response","167","478029","0.0-8.0-1.68","600655801bca779c2a7a7048","condA","","resources/audio/wordStim/S3_AU_20_axb_Step-6.wav","48","","","","","","resources/audio/wordStim/S3_AU_20_axb_Step-6.wav","S3","20","axb","6","MI","MI","S3-MI","0","0","true"
"null","","fixation","html-keyboard-response","168","479042","0.0-8.0-0.69","600655801bca779c2a7a7048","condA","","<div class=""vertical-center"" style='width:60%;'><img src=""resources/images/US_flag_100x52.jpg"" style=""width:100px;height:52px;opacity:0.35;""> <br> <br> <p style='font-weight:bold;'>Does the middle word sound more like the first word (A) or the last word (B)?</p> <br> <div class=""container""> <div id=""a-box""> <p class=""title-text"">A</h3></p> </div> <div id=""x-box""> <p class=""title-text"">X<p> </div> <div id=""b-box""> <p class=""title-text"">B</p></div> <br> <div style='float: left;padding-left:30px;'><p>Press '1' for A</p></div><div style='float: right;padding-right:30px;'><p>Press '0' for B</p> </div> </div></div>","null","","","","","","","","","","","","","","","",""
"3211","","test","audio-keyboard-response","169","482262","0.0-8.0-1.69","600655801bca779c2a7a7048","condA","","resources/audio/wordStim/S3_AU_20_bxa_Step-6.wav","49","","","","","","resources/audio/wordStim/S3_AU_20_bxa_Step-6.wav","S3","20","bxa","6","MI","MI","S3-MI","1","1","true"
"null","","fixation","html-keyboard-response","170","483275","0.0-8.0-0.70","600655801bca779c2a7a7048","condA","","<div class=""vertical-center"" style='width:60%;'><img src=""resources/images/US_flag_100x52.jpg"" style=""width:100px;height:52px;opacity:0.35;""> <br> <br> <p style='font-weight:bold;'>Does the middle word sound more like the first word (A) or the last word (B)?</p> <br> <div class=""container""> <div id=""a-box""> <p class=""title-text"">A</h3></p> </div> <div id=""x-box""> <p class=""title-text"">X<p> </div> <div id=""b-box""> <p class=""title-text"">B</p></div> <br> <div style='float: left;padding-left:30px;'><p>Press '1' for A</p></div><div style='float: right;padding-right:30px;'><p>Press '0' for B</p> </div> </div></div>","null","","","","","","","","","","","","","","","",""
"3701","","test","audio-keyboard-response","171","486982","0.0-8.0-1.70","600655801bca779c2a7a7048","condA","","resources/audio/wordStim/S3_AU_18_bxa_Step-4.wav","48","","","","","","resources/audio/wordStim/S3_AU_18_bxa_Step-4.wav","S3","18","bxa","4","MI","MI","S3-MI","1","0","false"
"null","","fixation","html-keyboard-response","172","488001","0.0-8.0-0.71","600655801bca779c2a7a7048","condA","","<div class=""vertical-center"" style='width:60%;'><img src=""resources/images/US_flag_100x52.jpg"" style=""width:100px;height:52px;opacity:0.35;""> <br> <br> <p style='font-weight:bold;'>Does the middle word sound more like the first word (A) or the last word (B)?</p> <br> <div class=""container""> <div id=""a-box""> <p class=""title-text"">A</h3></p> </div> <div id=""x-box""> <p class=""title-text"">X<p> </div> <div id=""b-box""> <p class=""title-text"">B</p></div> <br> <div style='float: left;padding-left:30px;'><p>Press '1' for A</p></div><div style='float: right;padding-right:30px;'><p>Press '0' for B</p> </div> </div></div>","null","","","","","","","","","","","","","","","",""
"3432","","test","audio-keyboard-response","173","491430","0.0-8.0-1.71","600655801bca779c2a7a7048","condA","","resources/audio/wordStim/S3_AU_19_axb_Step-3.wav","49","","","","","","resources/audio/wordStim/S3_AU_19_axb_Step-3.wav","S3","19","axb","3","MI","MI","S3-MI","0","1","false"
"null","","fixation","html-keyboard-response","174","492451","0.0-8.0-0.72","600655801bca779c2a7a7048","condA","","<div class=""vertical-center"" style='width:60%;'><img src=""resources/images/US_flag_100x52.jpg"" style=""width:100px;height:52px;opacity:0.35;""> <br> <br> <p style='font-weight:bold;'>Does the middle word sound more like the first word (A) or the last word (B)?</p> <br> <div class=""container""> <div id=""a-box""> <p class=""title-text"">A</h3></p> </div> <div id=""x-box""> <p class=""title-text"">X<p> </div> <div id=""b-box""> <p class=""title-text"">B</p></div> <br> <div style='float: left;padding-left:30px;'><p>Press '1' for A</p></div><div style='float: right;padding-right:30px;'><p>Press '0' for B</p> </div> </div></div>","null","","","","","","","","","","","","","","","",""
"3011","","test","audio-keyboard-response","175","495462","0.0-8.0-1.72","600655801bca779c2a7a7048","condA","","resources/audio/wordStim/S3_AU_20_axb_Step-8.wav","48","","","","","","resources/audio/wordStim/S3_AU_20_axb_Step-8.wav","S3","20","axb","8","MI","MI","S3-MI","0","0","true"
"null","","fixation","html-keyboard-response","176","496488","0.0-8.0-0.73","600655801bca779c2a7a7048","condA","","<div class=""vertical-center"" style='width:60%;'><img src=""resources/images/US_flag_100x52.jpg"" style=""width:100px;height:52px;opacity:0.35;""> <br> <br> <p style='font-weight:bold;'>Does the middle word sound more like the first word (A) or the last word (B)?</p> <br> <div class=""container""> <div id=""a-box""> <p class=""title-text"">A</h3></p> </div> <div id=""x-box""> <p class=""title-text"">X<p> </div> <div id=""b-box""> <p class=""title-text"">B</p></div> <br> <div style='float: left;padding-left:30px;'><p>Press '1' for A</p></div><div style='float: right;padding-right:30px;'><p>Press '0' for B</p> </div> </div></div>","null","","","","","","","","","","","","","","","",""
"3971","","test","audio-keyboard-response","177","500453","0.0-8.0-1.73","600655801bca779c2a7a7048","condA","","resources/audio/wordStim/S3_AU_18_axb_Step-7.wav","49","","","","","","resources/audio/wordStim/S3_AU_18_axb_Step-7.wav","S3","18","axb","7","MI","MI","S3-MI","0","1","false"
"null","","fixation","html-keyboard-response","178","501476","0.0-8.0-0.74","600655801bca779c2a7a7048","condA","","<div class=""vertical-center"" style='width:60%;'><img src=""resources/images/US_flag_100x52.jpg"" style=""width:100px;height:52px;opacity:0.35;""> <br> <br> <p style='font-weight:bold;'>Does the middle word sound more like the first word (A) or the last word (B)?</p> <br> <div class=""container""> <div id=""a-box""> <p class=""title-text"">A</h3></p> </div> <div id=""x-box""> <p class=""title-text"">X<p> </div> <div id=""b-box""> <p class=""title-text"">B</p></div> <br> <div style='float: left;padding-left:30px;'><p>Press '1' for A</p></div><div style='float: right;padding-right:30px;'><p>Press '0' for B</p> </div> </div></div>","null","","","","","","","","","","","","","","","",""
"3320","","test","audio-keyboard-response","179","504797","0.0-8.0-1.74","600655801bca779c2a7a7048","condA","","resources/audio/wordStim/S3_AU_19_axb_Step-6.wav","49","","","","","","resources/audio/wordStim/S3_AU_19_axb_Step-6.wav","S3","19","axb","6","MI","MI","S3-MI","0","1","false"
"null","","fixation","html-keyboard-response","180","505813","0.0-8.0-0.75","600655801bca779c2a7a7048","condA","","<div class=""vertical-center"" style='width:60%;'><img src=""resources/images/US_flag_100x52.jpg"" style=""width:100px;height:52px;opacity:0.35;""> <br> <br> <p style='font-weight:bold;'>Does the middle word sound more like the first word (A) or the last word (B)?</p> <br> <div class=""container""> <div id=""a-box""> <p class=""title-text"">A</h3></p> </div> <div id=""x-box""> <p class=""title-text"">X<p> </div> <div id=""b-box""> <p class=""title-text"">B</p></div> <br> <div style='float: left;padding-left:30px;'><p>Press '1' for A</p></div><div style='float: right;padding-right:30px;'><p>Press '0' for B</p> </div> </div></div>","null","","","","","","","","","","","","","","","",""
"3160","","test","audio-keyboard-response","181","508982","0.0-8.0-1.75","600655801bca779c2a7a7048","condA","","resources/audio/wordStim/S3_AI_22_axb_Step-8.wav","48","","","","","","resources/audio/wordStim/S3_AI_22_axb_Step-8.wav","S3","22","axb","8","MI","MI","S3-MI","0","0","true"
"null","","fixation","html-keyboard-response","182","510001","0.0-8.0-0.76","600655801bca779c2a7a7048","condA","","<div class=""vertical-center"" style='width:60%;'><img src=""resources/images/US_flag_100x52.jpg"" style=""width:100px;height:52px;opacity:0.35;""> <br> <br> <p style='font-weight:bold;'>Does the middle word sound more like the first word (A) or the last word (B)?</p> <br> <div class=""container""> <div id=""a-box""> <p class=""title-text"">A</h3></p> </div> <div id=""x-box""> <p class=""title-text"">X<p> </div> <div id=""b-box""> <p class=""title-text"">B</p></div> <br> <div style='float: left;padding-left:30px;'><p>Press '1' for A</p></div><div style='float: right;padding-right:30px;'><p>Press '0' for B</p> </div> </div></div>","null","","","","","","","","","","","","","","","",""
"3501","","test","audio-keyboard-response","183","513494","0.0-8.0-1.76","600655801bca779c2a7a7048","condA","","resources/audio/wordStim/S3_AI_22_bxa_Step-6.wav","49","","","","","","resources/audio/wordStim/S3_AI_22_bxa_Step-6.wav","S3","22","bxa","6","MI","MI","S3-MI","1","1","true"
"null","","fixation","html-keyboard-response","184","514511","0.0-8.0-0.77","600655801bca779c2a7a7048","condA","","<div class=""vertical-center"" style='width:60%;'><img src=""resources/images/US_flag_100x52.jpg"" style=""width:100px;height:52px;opacity:0.35;""> <br> <br> <p style='font-weight:bold;'>Does the middle word sound more like the first word (A) or the last word (B)?</p> <br> <div class=""container""> <div id=""a-box""> <p class=""title-text"">A</h3></p> </div> <div id=""x-box""> <p class=""title-text"">X<p> </div> <div id=""b-box""> <p class=""title-text"">B</p></div> <br> <div style='float: left;padding-left:30px;'><p>Press '1' for A</p></div><div style='float: right;padding-right:30px;'><p>Press '0' for B</p> </div> </div></div>","null","","","","","","","","","","","","","","","",""
"3509","","test","audio-keyboard-response","185","518021","0.0-8.0-1.77","600655801bca779c2a7a7048","condA","","resources/audio/wordStim/S3_AI_30_bxa_Step-7.wav","49","","","","","","resources/audio/wordStim/S3_AI_30_bxa_Step-7.wav","S3","30","bxa","7","MI","MI","S3-MI","1","1","true"
"null","","fixation","html-keyboard-response","186","519040","0.0-8.0-0.78","600655801bca779c2a7a7048","condA","","<div class=""vertical-center"" style='width:60%;'><img src=""resources/images/US_flag_100x52.jpg"" style=""width:100px;height:52px;opacity:0.35;""> <br> <br> <p style='font-weight:bold;'>Does the middle word sound more like the first word (A) or the last word (B)?</p> <br> <div class=""container""> <div id=""a-box""> <p class=""title-text"">A</h3></p> </div> <div id=""x-box""> <p class=""title-text"">X<p> </div> <div id=""b-box""> <p class=""title-text"">B</p></div> <br> <div style='float: left;padding-left:30px;'><p>Press '1' for A</p></div><div style='float: right;padding-right:30px;'><p>Press '0' for B</p> </div> </div></div>","null","","","","","","","","","","","","","","","",""
"4720","","test","audio-keyboard-response","187","523758","0.0-8.0-1.78","600655801bca779c2a7a7048","condA","","resources/audio/wordStim/S3_AU_18_axb_Step-4.wav","49","","","","","","resources/audio/wordStim/S3_AU_18_axb_Step-4.wav","S3","18","axb","4","MI","MI","S3-MI","0","1","false"
"null","","fixation","html-keyboard-response","188","524776","0.0-8.0-0.79","600655801bca779c2a7a7048","condA","","<div class=""vertical-center"" style='width:60%;'><img src=""resources/images/US_flag_100x52.jpg"" style=""width:100px;height:52px;opacity:0.35;""> <br> <br> <p style='font-weight:bold;'>Does the middle word sound more like the first word (A) or the last word (B)?</p> <br> <div class=""container""> <div id=""a-box""> <p class=""title-text"">A</h3></p> </div> <div id=""x-box""> <p class=""title-text"">X<p> </div> <div id=""b-box""> <p class=""title-text"">B</p></div> <br> <div style='float: left;padding-left:30px;'><p>Press '1' for A</p></div><div style='float: right;padding-right:30px;'><p>Press '0' for B</p> </div> </div></div>","null","","","","","","","","","","","","","","","",""
"3240","","test","audio-keyboard-response","189","528013","0.0-8.0-1.79","600655801bca779c2a7a7048","condA","","resources/audio/wordStim/S3_AI_30_bxa_Step-5.wav","49","","","","","","resources/audio/wordStim/S3_AI_30_bxa_Step-5.wav","S3","30","bxa","5","MI","MI","S3-MI","1","1","true"
"null","","fixation","html-keyboard-response","190","529033","0.0-8.0-0.80","600655801bca779c2a7a7048","condA","","<div class=""vertical-center"" style='width:60%;'><img src=""resources/images/US_flag_100x52.jpg"" style=""width:100px;height:52px;opacity:0.35;""> <br> <br> <p style='font-weight:bold;'>Does the middle word sound more like the first word (A) or the last word (B)?</p> <br> <div class=""container""> <div id=""a-box""> <p class=""title-text"">A</h3></p> </div> <div id=""x-box""> <p class=""title-text"">X<p> </div> <div id=""b-box""> <p class=""title-text"">B</p></div> <br> <div style='float: left;padding-left:30px;'><p>Press '1' for A</p></div><div style='float: right;padding-right:30px;'><p>Press '0' for B</p> </div> </div></div>","null","","","","","","","","","","","","","","","",""
"3421","","test","audio-keyboard-response","191","532461","0.0-8.0-1.80","600655801bca779c2a7a7048","condA","","resources/audio/wordStim/S3_AU_20_bxa_Step-5.wav","48","","","","","","resources/audio/wordStim/S3_AU_20_bxa_Step-5.wav","S3","20","bxa","5","MI","MI","S3-MI","1","0","false"
"null","","fixation","html-keyboard-response","192","533481","0.0-8.0-0.81","600655801bca779c2a7a7048","condA","","<div class=""vertical-center"" style='width:60%;'><img src=""resources/images/US_flag_100x52.jpg"" style=""width:100px;height:52px;opacity:0.35;""> <br> <br> <p style='font-weight:bold;'>Does the middle word sound more like the first word (A) or the last word (B)?</p> <br> <div class=""container""> <div id=""a-box""> <p class=""title-text"">A</h3></p> </div> <div id=""x-box""> <p class=""title-text"">X<p> </div> <div id=""b-box""> <p class=""title-text"">B</p></div> <br> <div style='float: left;padding-left:30px;'><p>Press '1' for A</p></div><div style='float: right;padding-right:30px;'><p>Press '0' for B</p> </div> </div></div>","null","","","","","","","","","","","","","","","",""
"2952","","test","audio-keyboard-response","193","536429","0.0-8.0-1.81","600655801bca779c2a7a7048","condA","","resources/audio/wordStim/S3_AU_19_axb_Step-2.wav","49","","","","","","resources/audio/wordStim/S3_AU_19_axb_Step-2.wav","S3","19","axb","2","MI","MI","S3-MI","0","1","false"
