"rt","url","trial_role","trial_type","trial_index","time_elapsed","internal_node_id","participantId","conditionId","view_history","stimulus","key_press","button_pressed","correct_answer","correct_response","success","vowel","wordStim","speaker","sentNum","order","step","speakerIdentity","speakerGuise","guiseName","raised_answer","key_response","raised_response"
"52895.35999999498","micr.axb.consent.html","consent","external-html","0","53375","0.0-0.0","600d3f429cf6444b766cde70","condE","","","","","","","","","","","","","","","","","","",""
"79589.2800000147","","instructions","instructions","1","132967","0.0-1.0","600d3f429cf6444b766cde70","condE","[{""page_index"":0,""viewing_time"":52028.885000006994},{""page_index"":1,""viewing_time"":12463.499999983469},{""page_index"":2,""viewing_time"":15096.355000016047}]","","","","","","","","","","","","","","","","","",""
"null","","fixation","html-keyboard-response","2","133468","0.0-2.0-0.0-0.0","600d3f429cf6444b766cde70","condE","","<div class=""vertical-center"" style=""font-size:60px;"">+</div>","null","","","","","","","","","","","","","","","",""
"12313.485000020592","","tonetest","audio-button-response","3","145783","0.0-2.0-0.0-1.0","600d3f429cf6444b766cde70","condE","","../../src/audio/toneTest_1.wav","","2","2","true","","","","","","","","","","","","",""
"null","","fixation","html-keyboard-response","4","146284","0.0-2.0-0.0-0.1","600d3f429cf6444b766cde70","condE","","<div class=""vertical-center"" style=""font-size:60px;"">+</div>","null","","","","","","","","","","","","","","","",""
"19417.41500000353","","tonetest","audio-button-response","5","165702","0.0-2.0-0.0-1.1","600d3f429cf6444b766cde70","condE","","../../src/audio/toneTest_1.wav","","1","2","false","","","","","","","","","","","","",""
"null","","fixation","html-keyboard-response","6","166203","0.0-2.0-0.0-0.2","600d3f429cf6444b766cde70","condE","","<div class=""vertical-center"" style=""font-size:60px;"">+</div>","null","","","","","","","","","","","","","","","",""
"5122.694999998203","","tonetest","audio-button-response","7","171326","0.0-2.0-0.0-1.2","600d3f429cf6444b766cde70","condE","","../../src/audio/toneTest_2.wav","","2","1","false","","","","","","","","","","","","",""
"null","","fixation","html-keyboard-response","8","171828","0.0-2.0-0.0-0.3","600d3f429cf6444b766cde70","condE","","<div class=""vertical-center"" style=""font-size:60px;"">+</div>","null","","","","","","","","","","","","","","","",""
"4306.005000020377","","tonetest","audio-button-response","9","176135","0.0-2.0-0.0-1.3","600d3f429cf6444b766cde70","condE","","../../src/audio/toneTest_1.wav","","1","2","false","","","","","","","","","","","","",""
"null","","fixation","html-keyboard-response","10","176636","0.0-2.0-0.0-0.4","600d3f429cf6444b766cde70","condE","","<div class=""vertical-center"" style=""font-size:60px;"">+</div>","null","","","","","","","","","","","","","","","",""
"79929.08999999054","","tonetest","audio-button-response","11","256567","0.0-2.0-0.0-1.4","600d3f429cf6444b766cde70","condE","","../../src/audio/toneTest_1.wav","","1","2","false","","","","","","","","","","","","",""
"null","","fixation","html-keyboard-response","12","257069","0.0-2.0-0.0-0.5","600d3f429cf6444b766cde70","condE","","<div class=""vertical-center"" style=""font-size:60px;"">+</div>","null","","","","","","","","","","","","","","","",""
"4320.305000001099","","tonetest","audio-button-response","13","261390","0.0-2.0-0.0-1.5","600d3f429cf6444b766cde70","condE","","../../src/audio/toneTest_5.wav","","2","0","false","","","","","","","","","","","","",""
"166781.84000001056","","instructions","html-keyboard-response","14","428173","0.0-2.0-1.0-0.0","600d3f429cf6444b766cde70","condE","","<div class=""vertical-center""><p><b>Your score was 1/6.</b></p><p>If you scored below 5, please ensure that you are wearing properly functioning headphones and in a quiet location free of distractions. Then, press SPACE to repeat the audio test. </p><p><i>If you scored 5 or above, press SPACE to continue to the main experiment.</i></p></div>","32","","","","","","","","","","","","","","","",""
"null","","fixation","html-keyboard-response","15","428675","0.0-2.1-0.1-0.6","600d3f429cf6444b766cde70","condE","","<div class=""vertical-center"" style=""font-size:60px;"">+</div>","null","","","","","","","","","","","","","","","",""
"4506.215000001248","","tonetest","audio-button-response","16","433182","0.0-2.1-0.1-1.6","600d3f429cf6444b766cde70","condE","","../../src/audio/toneTest_2.wav","","1","1","true","","","","","","","","","","","","",""
"null","","fixation","html-keyboard-response","17","433684","0.0-2.1-0.1-0.7","600d3f429cf6444b766cde70","condE","","<div class=""vertical-center"" style=""font-size:60px;"">+</div>","null","","","","","","","","","","","","","","","",""
"4577.535000018543","","tonetest","audio-button-response","18","438262","0.0-2.1-0.1-1.7","600d3f429cf6444b766cde70","condE","","../../src/audio/toneTest_3.wav","","2","2","true","","","","","","","","","","","","",""
"null","","fixation","html-keyboard-response","19","438764","0.0-2.1-0.1-0.8","600d3f429cf6444b766cde70","condE","","<div class=""vertical-center"" style=""font-size:60px;"">+</div>","null","","","","","","","","","","","","","","","",""
"4466.200000024401","","tonetest","audio-button-response","20","443231","0.0-2.1-0.1-1.8","600d3f429cf6444b766cde70","condE","","../../src/audio/toneTest_4.wav","","1","1","true","","","","","","","","","","","","",""
"null","","fixation","html-keyboard-response","21","443733","0.0-2.1-0.1-0.9","600d3f429cf6444b766cde70","condE","","<div class=""vertical-center"" style=""font-size:60px;"">+</div>","null","","","","","","","","","","","","","","","",""
"3904.594999999972","","tonetest","audio-button-response","22","447638","0.0-2.1-0.1-1.9","600d3f429cf6444b766cde70","condE","","../../src/audio/toneTest_1.wav","","2","2","true","","","","","","","","","","","","",""
"null","","fixation","html-keyboard-response","23","448140","0.0-2.1-0.1-0.10","600d3f429cf6444b766cde70","condE","","<div class=""vertical-center"" style=""font-size:60px;"">+</div>","null","","","","","","","","","","","","","","","",""
"4402.045000024373","","tonetest","audio-button-response","24","452542","0.0-2.1-0.1-1.10","600d3f429cf6444b766cde70","condE","","../../src/audio/toneTest_6.wav","","0","0","true","","","","","","","","","","","","",""
"null","","fixation","html-keyboard-response","25","453044","0.0-2.1-0.1-0.11","600d3f429cf6444b766cde70","condE","","<div class=""vertical-center"" style=""font-size:60px;"">+</div>","null","","","","","","","","","","","","","","","",""
"4496.920000005048","","tonetest","audio-button-response","26","457542","0.0-2.1-0.1-1.11","600d3f429cf6444b766cde70","condE","","../../src/audio/toneTest_2.wav","","1","1","true","","","","","","","","","","","","",""
"2184.8600000084843","","instructions","html-keyboard-response","27","459728","0.0-2.1-1.1-0.1","600d3f429cf6444b766cde70","condE","","<div class=""vertical-center""><p><b>Your score was 6/6.</b></p><p>If you scored below 5, please ensure that you are wearing properly functioning headphones and in a quiet location free of distractions. Then, press SPACE to repeat the audio test. </p><p><i>If you scored 5 or above, press SPACE to continue to the main experiment.</i></p></div>","32","","","","","","","","","","","","","","","",""
"","","","fullscreen","28","464599","0.0-3.0","600d3f429cf6444b766cde70","condE","","","","","","","true","","","","","","","","","","","",""
"69890.21500002127","","instructions","instructions","29","534490","0.0-4.0","600d3f429cf6444b766cde70","condE","[{""page_index"":0,""viewing_time"":69890.08500002092}]","","","","","","","","","","","","","","","","","",""
"null","","fixation","html-keyboard-response","30","534991","0.0-5.0-0.0","600d3f429cf6444b766cde70","condE","","<div class=""vertical-center"" style='width:60%;'><p style='font-weight:bold;'>Does the middle word sound more like the first word (A) or the last word (B)?</p> <br> <div class=""container""> <div id=""a-box""> <p class=""title-text"">A</h3></p> </div> <div id=""x-box""> <p class=""title-text"">X<p> </div> <div id=""b-box""> <p class=""title-text"">B</p></div> <br> <div style='float: left;padding-left:30px;'><p>Press '1' for A</p></div><div style='float: right;padding-right:30px;'><p>Press '0' for B</p> </div> </div></div>","null","","","","","","","","","","","","","","","",""
"8019","","practice","audio-keyboard-response","31","543009","0.0-5.0-1.0","600d3f429cf6444b766cde70","condE","","resources/audio/practiceStim/S1_AU_14_bxa_Step-6.wav","49","","","","","","","","","","","","","","","",""
"null","","fixation","html-keyboard-response","32","544012","0.0-5.0-0.1","600d3f429cf6444b766cde70","condE","","<div class=""vertical-center"" style='width:60%;'><p style='font-weight:bold;'>Does the middle word sound more like the first word (A) or the last word (B)?</p> <br> <div class=""container""> <div id=""a-box""> <p class=""title-text"">A</h3></p> </div> <div id=""x-box""> <p class=""title-text"">X<p> </div> <div id=""b-box""> <p class=""title-text"">B</p></div> <br> <div style='float: left;padding-left:30px;'><p>Press '1' for A</p></div><div style='float: right;padding-right:30px;'><p>Press '0' for B</p> </div> </div></div>","null","","","","","","","","","","","","","","","",""
"7261","","practice","audio-keyboard-response","33","551280","0.0-5.0-1.1","600d3f429cf6444b766cde70","condE","","resources/audio/practiceStim/S1_AI_21_bxa_Step-6.wav","48","","","","","","","","","","","","","","","",""
"null","","fixation","html-keyboard-response","34","552281","0.0-5.0-0.2","600d3f429cf6444b766cde70","condE","","<div class=""vertical-center"" style='width:60%;'><p style='font-weight:bold;'>Does the middle word sound more like the first word (A) or the last word (B)?</p> <br> <div class=""container""> <div id=""a-box""> <p class=""title-text"">A</h3></p> </div> <div id=""x-box""> <p class=""title-text"">X<p> </div> <div id=""b-box""> <p class=""title-text"">B</p></div> <br> <div style='float: left;padding-left:30px;'><p>Press '1' for A</p></div><div style='float: right;padding-right:30px;'><p>Press '0' for B</p> </div> </div></div>","null","","","","","","","","","","","","","","","",""
"5648","","practice","audio-keyboard-response","35","557931","0.0-5.0-1.2","600d3f429cf6444b766cde70","condE","","resources/audio/practiceStim/S1_AU_14_axb_Step-6.wav","49","","","","","","","","","","","","","","","",""
"null","","fixation","html-keyboard-response","36","558933","0.0-5.0-0.3","600d3f429cf6444b766cde70","condE","","<div class=""vertical-center"" style='width:60%;'><p style='font-weight:bold;'>Does the middle word sound more like the first word (A) or the last word (B)?</p> <br> <div class=""container""> <div id=""a-box""> <p class=""title-text"">A</h3></p> </div> <div id=""x-box""> <p class=""title-text"">X<p> </div> <div id=""b-box""> <p class=""title-text"">B</p></div> <br> <div style='float: left;padding-left:30px;'><p>Press '1' for A</p></div><div style='float: right;padding-right:30px;'><p>Press '0' for B</p> </div> </div></div>","null","","","","","","","","","","","","","","","",""
"8709","","practice","audio-keyboard-response","37","567647","0.0-5.0-1.3","600d3f429cf6444b766cde70","condE","","resources/audio/practiceStim/S1_AI_21_axb_Step-6.wav","48","","","","","","","","","","","","","","","",""
"4070.5049999814946","","instructions","instructions","38","572219","0.0-6.0","600d3f429cf6444b766cde70","condE","[{""page_index"":0,""viewing_time"":4070.3949999879114}]","","","","","","","","","","","","","","","","","",""
"3196.4500000176486","","","html-keyboard-response","39","575418","0.0-7.0","600d3f429cf6444b766cde70","condE","","<div class=""vertical-center""><img src=""resources/images/BL_face_a.png"" style=""width:450px;height:300px;""><p>This is the speaker you're about to hear.</p><p> <br> <i>Press SPACE to continue.</i></p></div>","32","","","","","","","","","","","","","","","",""
"null","","fixation","html-keyboard-response","40","575919","0.0-8.0-0.0","600d3f429cf6444b766cde70","condE","","<div class=""vertical-center"" style='width:60%;'><p style='font-weight:bold;'>Does the middle word sound more like the first word (A) or the last word (B)?</p> <br> <div class=""container""> <div id=""a-box""> <p class=""title-text"">A</h3></p> </div> <div id=""x-box""> <p class=""title-text"">X<p> </div> <div id=""b-box""> <p class=""title-text"">B</p></div> <br> <div style='float: left;padding-left:30px;'><p>Press '1' for A</p></div><div style='float: right;padding-right:30px;'><p>Press '0' for B</p> </div> </div></div>","null","","","","","","","","","","","","","","","",""
"5789","","test","audio-keyboard-response","41","581710","0.0-8.0-1.0","600d3f429cf6444b766cde70","condE","","resources/audio/wordStim/S3_AI_21_axb_Step-5.wav","49","","","","","","resources/audio/wordStim/S3_AI_21_axb_Step-5.wav","S3","21","axb","5","MI","BL","S3-BL","0","1","false"
"null","","fixation","html-keyboard-response","42","582712","0.0-8.0-0.1","600d3f429cf6444b766cde70","condE","","<div class=""vertical-center"" style='width:60%;'><p style='font-weight:bold;'>Does the middle word sound more like the first word (A) or the last word (B)?</p> <br> <div class=""container""> <div id=""a-box""> <p class=""title-text"">A</h3></p> </div> <div id=""x-box""> <p class=""title-text"">X<p> </div> <div id=""b-box""> <p class=""title-text"">B</p></div> <br> <div style='float: left;padding-left:30px;'><p>Press '1' for A</p></div><div style='float: right;padding-right:30px;'><p>Press '0' for B</p> </div> </div></div>","null","","","","","","","","","","","","","","","",""
"3749","","test","audio-keyboard-response","43","586471","0.0-8.0-1.1","600d3f429cf6444b766cde70","condE","","resources/audio/wordStim/S3_AU_19_bxa_Step-5.wav","49","","","","","","resources/audio/wordStim/S3_AU_19_bxa_Step-5.wav","S3","19","bxa","5","MI","BL","S3-BL","1","1","true"
"null","","fixation","html-keyboard-response","44","587474","0.0-8.0-0.2","600d3f429cf6444b766cde70","condE","","<div class=""vertical-center"" style='width:60%;'><p style='font-weight:bold;'>Does the middle word sound more like the first word (A) or the last word (B)?</p> <br> <div class=""container""> <div id=""a-box""> <p class=""title-text"">A</h3></p> </div> <div id=""x-box""> <p class=""title-text"">X<p> </div> <div id=""b-box""> <p class=""title-text"">B</p></div> <br> <div style='float: left;padding-left:30px;'><p>Press '1' for A</p></div><div style='float: right;padding-right:30px;'><p>Press '0' for B</p> </div> </div></div>","null","","","","","","","","","","","","","","","",""
"6939","","test","audio-keyboard-response","45","594419","0.0-8.0-1.2","600d3f429cf6444b766cde70","condE","","resources/audio/wordStim/S3_AI_30_axb_Step-2.wav","48","","","","","","resources/audio/wordStim/S3_AI_30_axb_Step-2.wav","S3","30","axb","2","MI","BL","S3-BL","0","0","true"
"null","","fixation","html-keyboard-response","46","595422","0.0-8.0-0.3","600d3f429cf6444b766cde70","condE","","<div class=""vertical-center"" style='width:60%;'><p style='font-weight:bold;'>Does the middle word sound more like the first word (A) or the last word (B)?</p> <br> <div class=""container""> <div id=""a-box""> <p class=""title-text"">A</h3></p> </div> <div id=""x-box""> <p class=""title-text"">X<p> </div> <div id=""b-box""> <p class=""title-text"">B</p></div> <br> <div style='float: left;padding-left:30px;'><p>Press '1' for A</p></div><div style='float: right;padding-right:30px;'><p>Press '0' for B</p> </div> </div></div>","null","","","","","","","","","","","","","","","",""
"5739","","test","audio-keyboard-response","47","601164","0.0-8.0-1.3","600d3f429cf6444b766cde70","condE","","resources/audio/wordStim/S3_AU_18_bxa_Step-6.wav","49","","","","","","resources/audio/wordStim/S3_AU_18_bxa_Step-6.wav","S3","18","bxa","6","MI","BL","S3-BL","1","1","true"
"null","","fixation","html-keyboard-response","48","602165","0.0-8.0-0.4","600d3f429cf6444b766cde70","condE","","<div class=""vertical-center"" style='width:60%;'><p style='font-weight:bold;'>Does the middle word sound more like the first word (A) or the last word (B)?</p> <br> <div class=""container""> <div id=""a-box""> <p class=""title-text"">A</h3></p> </div> <div id=""x-box""> <p class=""title-text"">X<p> </div> <div id=""b-box""> <p class=""title-text"">B</p></div> <br> <div style='float: left;padding-left:30px;'><p>Press '1' for A</p></div><div style='float: right;padding-right:30px;'><p>Press '0' for B</p> </div> </div></div>","null","","","","","","","","","","","","","","","",""
"3960","","test","audio-keyboard-response","49","606128","0.0-8.0-1.4","600d3f429cf6444b766cde70","condE","","resources/audio/wordStim/S3_AU_18_bxa_Step-7.wav","49","","","","","","resources/audio/wordStim/S3_AU_18_bxa_Step-7.wav","S3","18","bxa","7","MI","BL","S3-BL","1","1","true"
"null","","fixation","html-keyboard-response","50","607133","0.0-8.0-0.5","600d3f429cf6444b766cde70","condE","","<div class=""vertical-center"" style='width:60%;'><p style='font-weight:bold;'>Does the middle word sound more like the first word (A) or the last word (B)?</p> <br> <div class=""container""> <div id=""a-box""> <p class=""title-text"">A</h3></p> </div> <div id=""x-box""> <p class=""title-text"">X<p> </div> <div id=""b-box""> <p class=""title-text"">B</p></div> <br> <div style='float: left;padding-left:30px;'><p>Press '1' for A</p></div><div style='float: right;padding-right:30px;'><p>Press '0' for B</p> </div> </div></div>","null","","","","","","","","","","","","","","","",""
"3869","","test","audio-keyboard-response","51","611005","0.0-8.0-1.5","600d3f429cf6444b766cde70","condE","","resources/audio/wordStim/S3_AU_20_axb_Step-6.wav","49","","","","","","resources/audio/wordStim/S3_AU_20_axb_Step-6.wav","S3","20","axb","6","MI","BL","S3-BL","0","1","false"
"null","","fixation","html-keyboard-response","52","612006","0.0-8.0-0.6","600d3f429cf6444b766cde70","condE","","<div class=""vertical-center"" style='width:60%;'><p style='font-weight:bold;'>Does the middle word sound more like the first word (A) or the last word (B)?</p> <br> <div class=""container""> <div id=""a-box""> <p class=""title-text"">A</h3></p> </div> <div id=""x-box""> <p class=""title-text"">X<p> </div> <div id=""b-box""> <p class=""title-text"">B</p></div> <br> <div style='float: left;padding-left:30px;'><p>Press '1' for A</p></div><div style='float: right;padding-right:30px;'><p>Press '0' for B</p> </div> </div></div>","null","","","","","","","","","","","","","","","",""
"4552","","test","audio-keyboard-response","53","616555","0.0-8.0-1.6","600d3f429cf6444b766cde70","condE","","resources/audio/wordStim/S3_AU_18_bxa_Step-8.wav","49","","","","","","resources/audio/wordStim/S3_AU_18_bxa_Step-8.wav","S3","18","bxa","8","MI","BL","S3-BL","1","1","true"
"null","","fixation","html-keyboard-response","54","617559","0.0-8.0-0.7","600d3f429cf6444b766cde70","condE","","<div class=""vertical-center"" style='width:60%;'><p style='font-weight:bold;'>Does the middle word sound more like the first word (A) or the last word (B)?</p> <br> <div class=""container""> <div id=""a-box""> <p class=""title-text"">A</h3></p> </div> <div id=""x-box""> <p class=""title-text"">X<p> </div> <div id=""b-box""> <p class=""title-text"">B</p></div> <br> <div style='float: left;padding-left:30px;'><p>Press '1' for A</p></div><div style='float: right;padding-right:30px;'><p>Press '0' for B</p> </div> </div></div>","null","","","","","","","","","","","","","","","",""
"5440","","test","audio-keyboard-response","55","622996","0.0-8.0-1.7","600d3f429cf6444b766cde70","condE","","resources/audio/wordStim/S3_AU_18_axb_Step-3.wav","49","","","","","","resources/audio/wordStim/S3_AU_18_axb_Step-3.wav","S3","18","axb","3","MI","BL","S3-BL","0","1","false"
"null","","fixation","html-keyboard-response","56","623998","0.0-8.0-0.8","600d3f429cf6444b766cde70","condE","","<div class=""vertical-center"" style='width:60%;'><p style='font-weight:bold;'>Does the middle word sound more like the first word (A) or the last word (B)?</p> <br> <div class=""container""> <div id=""a-box""> <p class=""title-text"">A</h3></p> </div> <div id=""x-box""> <p class=""title-text"">X<p> </div> <div id=""b-box""> <p class=""title-text"">B</p></div> <br> <div style='float: left;padding-left:30px;'><p>Press '1' for A</p></div><div style='float: right;padding-right:30px;'><p>Press '0' for B</p> </div> </div></div>","null","","","","","","","","","","","","","","","",""
"3269","","test","audio-keyboard-response","57","627267","0.0-8.0-1.8","600d3f429cf6444b766cde70","condE","","resources/audio/wordStim/S3_AU_19_axb_Step-5.wav","49","","","","","","resources/audio/wordStim/S3_AU_19_axb_Step-5.wav","S3","19","axb","5","MI","BL","S3-BL","0","1","false"
"null","","fixation","html-keyboard-response","58","628270","0.0-8.0-0.9","600d3f429cf6444b766cde70","condE","","<div class=""vertical-center"" style='width:60%;'><p style='font-weight:bold;'>Does the middle word sound more like the first word (A) or the last word (B)?</p> <br> <div class=""container""> <div id=""a-box""> <p class=""title-text"">A</h3></p> </div> <div id=""x-box""> <p class=""title-text"">X<p> </div> <div id=""b-box""> <p class=""title-text"">B</p></div> <br> <div style='float: left;padding-left:30px;'><p>Press '1' for A</p></div><div style='float: right;padding-right:30px;'><p>Press '0' for B</p> </div> </div></div>","null","","","","","","","","","","","","","","","",""
"4189","","test","audio-keyboard-response","59","632453","0.0-8.0-1.9","600d3f429cf6444b766cde70","condE","","resources/audio/wordStim/S3_AU_20_bxa_Step-2.wav","48","","","","","","resources/audio/wordStim/S3_AU_20_bxa_Step-2.wav","S3","20","bxa","2","MI","BL","S3-BL","1","0","false"
"null","","fixation","html-keyboard-response","60","633456","0.0-8.0-0.10","600d3f429cf6444b766cde70","condE","","<div class=""vertical-center"" style='width:60%;'><p style='font-weight:bold;'>Does the middle word sound more like the first word (A) or the last word (B)?</p> <br> <div class=""container""> <div id=""a-box""> <p class=""title-text"">A</h3></p> </div> <div id=""x-box""> <p class=""title-text"">X<p> </div> <div id=""b-box""> <p class=""title-text"">B</p></div> <br> <div style='float: left;padding-left:30px;'><p>Press '1' for A</p></div><div style='float: right;padding-right:30px;'><p>Press '0' for B</p> </div> </div></div>","null","","","","","","","","","","","","","","","",""
"3680","","test","audio-keyboard-response","61","637139","0.0-8.0-1.10","600d3f429cf6444b766cde70","condE","","resources/audio/wordStim/S3_AI_21_bxa_Step-5.wav","49","","","","","","resources/audio/wordStim/S3_AI_21_bxa_Step-5.wav","S3","21","bxa","5","MI","BL","S3-BL","1","1","true"
"null","","fixation","html-keyboard-response","62","638140","0.0-8.0-0.11","600d3f429cf6444b766cde70","condE","","<div class=""vertical-center"" style='width:60%;'><p style='font-weight:bold;'>Does the middle word sound more like the first word (A) or the last word (B)?</p> <br> <div class=""container""> <div id=""a-box""> <p class=""title-text"">A</h3></p> </div> <div id=""x-box""> <p class=""title-text"">X<p> </div> <div id=""b-box""> <p class=""title-text"">B</p></div> <br> <div style='float: left;padding-left:30px;'><p>Press '1' for A</p></div><div style='float: right;padding-right:30px;'><p>Press '0' for B</p> </div> </div></div>","null","","","","","","","","","","","","","","","",""
"5211","","test","audio-keyboard-response","63","643350","0.0-8.0-1.11","600d3f429cf6444b766cde70","condE","","resources/audio/wordStim/S3_AU_18_axb_Step-8.wav","49","","","","","","resources/audio/wordStim/S3_AU_18_axb_Step-8.wav","S3","18","axb","8","MI","BL","S3-BL","0","1","false"
"null","","fixation","html-keyboard-response","64","644351","0.0-8.0-0.12","600d3f429cf6444b766cde70","condE","","<div class=""vertical-center"" style='width:60%;'><p style='font-weight:bold;'>Does the middle word sound more like the first word (A) or the last word (B)?</p> <br> <div class=""container""> <div id=""a-box""> <p class=""title-text"">A</h3></p> </div> <div id=""x-box""> <p class=""title-text"">X<p> </div> <div id=""b-box""> <p class=""title-text"">B</p></div> <br> <div style='float: left;padding-left:30px;'><p>Press '1' for A</p></div><div style='float: right;padding-right:30px;'><p>Press '0' for B</p> </div> </div></div>","null","","","","","","","","","","","","","","","",""
"6659","","test","audio-keyboard-response","65","651011","0.0-8.0-1.12","600d3f429cf6444b766cde70","condE","","resources/audio/wordStim/S3_AU_20_bxa_Step-3.wav","49","","","","","","resources/audio/wordStim/S3_AU_20_bxa_Step-3.wav","S3","20","bxa","3","MI","BL","S3-BL","1","1","true"
"null","","fixation","html-keyboard-response","66","652014","0.0-8.0-0.13","600d3f429cf6444b766cde70","condE","","<div class=""vertical-center"" style='width:60%;'><p style='font-weight:bold;'>Does the middle word sound more like the first word (A) or the last word (B)?</p> <br> <div class=""container""> <div id=""a-box""> <p class=""title-text"">A</h3></p> </div> <div id=""x-box""> <p class=""title-text"">X<p> </div> <div id=""b-box""> <p class=""title-text"">B</p></div> <br> <div style='float: left;padding-left:30px;'><p>Press '1' for A</p></div><div style='float: right;padding-right:30px;'><p>Press '0' for B</p> </div> </div></div>","null","","","","","","","","","","","","","","","",""
"4160","","test","audio-keyboard-response","67","656176","0.0-8.0-1.13","600d3f429cf6444b766cde70","condE","","resources/audio/wordStim/S3_AI_21_axb_Step-8.wav","49","","","","","","resources/audio/wordStim/S3_AI_21_axb_Step-8.wav","S3","21","axb","8","MI","BL","S3-BL","0","1","false"
"null","","fixation","html-keyboard-response","68","657179","0.0-8.0-0.14","600d3f429cf6444b766cde70","condE","","<div class=""vertical-center"" style='width:60%;'><p style='font-weight:bold;'>Does the middle word sound more like the first word (A) or the last word (B)?</p> <br> <div class=""container""> <div id=""a-box""> <p class=""title-text"">A</h3></p> </div> <div id=""x-box""> <p class=""title-text"">X<p> </div> <div id=""b-box""> <p class=""title-text"">B</p></div> <br> <div style='float: left;padding-left:30px;'><p>Press '1' for A</p></div><div style='float: right;padding-right:30px;'><p>Press '0' for B</p> </div> </div></div>","null","","","","","","","","","","","","","","","",""
"3400","","test","audio-keyboard-response","69","660582","0.0-8.0-1.14","600d3f429cf6444b766cde70","condE","","resources/audio/wordStim/S3_AU_19_bxa_Step-8.wav","49","","","","","","resources/audio/wordStim/S3_AU_19_bxa_Step-8.wav","S3","19","bxa","8","MI","BL","S3-BL","1","1","true"
"null","","fixation","html-keyboard-response","70","661586","0.0-8.0-0.15","600d3f429cf6444b766cde70","condE","","<div class=""vertical-center"" style='width:60%;'><p style='font-weight:bold;'>Does the middle word sound more like the first word (A) or the last word (B)?</p> <br> <div class=""container""> <div id=""a-box""> <p class=""title-text"">A</h3></p> </div> <div id=""x-box""> <p class=""title-text"">X<p> </div> <div id=""b-box""> <p class=""title-text"">B</p></div> <br> <div style='float: left;padding-left:30px;'><p>Press '1' for A</p></div><div style='float: right;padding-right:30px;'><p>Press '0' for B</p> </div> </div></div>","null","","","","","","","","","","","","","","","",""
"4989","","test","audio-keyboard-response","71","666578","0.0-8.0-1.15","600d3f429cf6444b766cde70","condE","","resources/audio/wordStim/S3_AU_19_bxa_Step-6.wav","49","","","","","","resources/audio/wordStim/S3_AU_19_bxa_Step-6.wav","S3","19","bxa","6","MI","BL","S3-BL","1","1","true"
"null","","fixation","html-keyboard-response","72","667580","0.0-8.0-0.16","600d3f429cf6444b766cde70","condE","","<div class=""vertical-center"" style='width:60%;'><p style='font-weight:bold;'>Does the middle word sound more like the first word (A) or the last word (B)?</p> <br> <div class=""container""> <div id=""a-box""> <p class=""title-text"">A</h3></p> </div> <div id=""x-box""> <p class=""title-text"">X<p> </div> <div id=""b-box""> <p class=""title-text"">B</p></div> <br> <div style='float: left;padding-left:30px;'><p>Press '1' for A</p></div><div style='float: right;padding-right:30px;'><p>Press '0' for B</p> </div> </div></div>","null","","","","","","","","","","","","","","","",""
"3560","","test","audio-keyboard-response","73","671140","0.0-8.0-1.16","600d3f429cf6444b766cde70","condE","","resources/audio/wordStim/S3_AU_20_bxa_Step-5.wav","49","","","","","","resources/audio/wordStim/S3_AU_20_bxa_Step-5.wav","S3","20","bxa","5","MI","BL","S3-BL","1","1","true"
"null","","fixation","html-keyboard-response","74","672143","0.0-8.0-0.17","600d3f429cf6444b766cde70","condE","","<div class=""vertical-center"" style='width:60%;'><p style='font-weight:bold;'>Does the middle word sound more like the first word (A) or the last word (B)?</p> <br> <div class=""container""> <div id=""a-box""> <p class=""title-text"">A</h3></p> </div> <div id=""x-box""> <p class=""title-text"">X<p> </div> <div id=""b-box""> <p class=""title-text"">B</p></div> <br> <div style='float: left;padding-left:30px;'><p>Press '1' for A</p></div><div style='float: right;padding-right:30px;'><p>Press '0' for B</p> </div> </div></div>","null","","","","","","","","","","","","","","","",""
"5720","","test","audio-keyboard-response","75","677870","0.0-8.0-1.17","600d3f429cf6444b766cde70","condE","","resources/audio/wordStim/S3_AI_22_bxa_Step-7.wav","49","","","","","","resources/audio/wordStim/S3_AI_22_bxa_Step-7.wav","S3","22","bxa","7","MI","BL","S3-BL","1","1","true"
"null","","fixation","html-keyboard-response","76","678872","0.0-8.0-0.18","600d3f429cf6444b766cde70","condE","","<div class=""vertical-center"" style='width:60%;'><p style='font-weight:bold;'>Does the middle word sound more like the first word (A) or the last word (B)?</p> <br> <div class=""container""> <div id=""a-box""> <p class=""title-text"">A</h3></p> </div> <div id=""x-box""> <p class=""title-text"">X<p> </div> <div id=""b-box""> <p class=""title-text"">B</p></div> <br> <div style='float: left;padding-left:30px;'><p>Press '1' for A</p></div><div style='float: right;padding-right:30px;'><p>Press '0' for B</p> </div> </div></div>","null","","","","","","","","","","","","","","","",""
"3288","","test","audio-keyboard-response","77","682168","0.0-8.0-1.18","600d3f429cf6444b766cde70","condE","","resources/audio/wordStim/S3_AU_19_bxa_Step-2.wav","49","","","","","","resources/audio/wordStim/S3_AU_19_bxa_Step-2.wav","S3","19","bxa","2","MI","BL","S3-BL","1","1","true"
"null","","fixation","html-keyboard-response","78","683170","0.0-8.0-0.19","600d3f429cf6444b766cde70","condE","","<div class=""vertical-center"" style='width:60%;'><p style='font-weight:bold;'>Does the middle word sound more like the first word (A) or the last word (B)?</p> <br> <div class=""container""> <div id=""a-box""> <p class=""title-text"">A</h3></p> </div> <div id=""x-box""> <p class=""title-text"">X<p> </div> <div id=""b-box""> <p class=""title-text"">B</p></div> <br> <div style='float: left;padding-left:30px;'><p>Press '1' for A</p></div><div style='float: right;padding-right:30px;'><p>Press '0' for B</p> </div> </div></div>","null","","","","","","","","","","","","","","","",""
"4832","","test","audio-keyboard-response","79","687998","0.0-8.0-1.19","600d3f429cf6444b766cde70","condE","","resources/audio/wordStim/S3_AI_30_bxa_Step-7.wav","48","","","","","","resources/audio/wordStim/S3_AI_30_bxa_Step-7.wav","S3","30","bxa","7","MI","BL","S3-BL","1","0","false"
"null","","fixation","html-keyboard-response","80","689002","0.0-8.0-0.20","600d3f429cf6444b766cde70","condE","","<div class=""vertical-center"" style='width:60%;'><p style='font-weight:bold;'>Does the middle word sound more like the first word (A) or the last word (B)?</p> <br> <div class=""container""> <div id=""a-box""> <p class=""title-text"">A</h3></p> </div> <div id=""x-box""> <p class=""title-text"">X<p> </div> <div id=""b-box""> <p class=""title-text"">B</p></div> <br> <div style='float: left;padding-left:30px;'><p>Press '1' for A</p></div><div style='float: right;padding-right:30px;'><p>Press '0' for B</p> </div> </div></div>","null","","","","","","","","","","","","","","","",""
"3840","","test","audio-keyboard-response","81","692843","0.0-8.0-1.20","600d3f429cf6444b766cde70","condE","","resources/audio/wordStim/S3_AU_18_axb_Step-7.wav","49","","","","","","resources/audio/wordStim/S3_AU_18_axb_Step-7.wav","S3","18","axb","7","MI","BL","S3-BL","0","1","false"
"2955.8649999962654","","break","html-keyboard-response","82","696300","0.0-8.0-2.20-0.20","600d3f429cf6444b766cde70","condE","","<div class=""vertical-center""><p>Feel free to take a break!</p><i>When you're ready to continue, press SPACE to begin the next trial.</i></p></div>","32","","","","","","","","","","","","","","","",""
"null","","fixation","html-keyboard-response","83","696802","0.0-8.0-0.21","600d3f429cf6444b766cde70","condE","","<div class=""vertical-center"" style='width:60%;'><p style='font-weight:bold;'>Does the middle word sound more like the first word (A) or the last word (B)?</p> <br> <div class=""container""> <div id=""a-box""> <p class=""title-text"">A</h3></p> </div> <div id=""x-box""> <p class=""title-text"">X<p> </div> <div id=""b-box""> <p class=""title-text"">B</p></div> <br> <div style='float: left;padding-left:30px;'><p>Press '1' for A</p></div><div style='float: right;padding-right:30px;'><p>Press '0' for B</p> </div> </div></div>","null","","","","","","","","","","","","","","","",""
"4840","","test","audio-keyboard-response","84","701646","0.0-8.0-1.21","600d3f429cf6444b766cde70","condE","","resources/audio/wordStim/S3_AI_22_bxa_Step-6.wav","49","","","","","","resources/audio/wordStim/S3_AI_22_bxa_Step-6.wav","S3","22","bxa","6","MI","BL","S3-BL","1","1","true"
"null","","fixation","html-keyboard-response","85","702648","0.0-8.0-0.22","600d3f429cf6444b766cde70","condE","","<div class=""vertical-center"" style='width:60%;'><p style='font-weight:bold;'>Does the middle word sound more like the first word (A) or the last word (B)?</p> <br> <div class=""container""> <div id=""a-box""> <p class=""title-text"">A</h3></p> </div> <div id=""x-box""> <p class=""title-text"">X<p> </div> <div id=""b-box""> <p class=""title-text"">B</p></div> <br> <div style='float: left;padding-left:30px;'><p>Press '1' for A</p></div><div style='float: right;padding-right:30px;'><p>Press '0' for B</p> </div> </div></div>","null","","","","","","","","","","","","","","","",""
"3011","","test","audio-keyboard-response","86","705657","0.0-8.0-1.22","600d3f429cf6444b766cde70","condE","","resources/audio/wordStim/S3_AI_21_bxa_Step-8.wav","49","","","","","","resources/audio/wordStim/S3_AI_21_bxa_Step-8.wav","S3","21","bxa","8","MI","BL","S3-BL","1","1","true"
"null","","fixation","html-keyboard-response","87","706659","0.0-8.0-0.23","600d3f429cf6444b766cde70","condE","","<div class=""vertical-center"" style='width:60%;'><p style='font-weight:bold;'>Does the middle word sound more like the first word (A) or the last word (B)?</p> <br> <div class=""container""> <div id=""a-box""> <p class=""title-text"">A</h3></p> </div> <div id=""x-box""> <p class=""title-text"">X<p> </div> <div id=""b-box""> <p class=""title-text"">B</p></div> <br> <div style='float: left;padding-left:30px;'><p>Press '1' for A</p></div><div style='float: right;padding-right:30px;'><p>Press '0' for B</p> </div> </div></div>","null","","","","","","","","","","","","","","","",""
"4469","","test","audio-keyboard-response","88","711124","0.0-8.0-1.23","600d3f429cf6444b766cde70","condE","","resources/audio/wordStim/S3_AU_18_axb_Step-5.wav","49","","","","","","resources/audio/wordStim/S3_AU_18_axb_Step-5.wav","S3","18","axb","5","MI","BL","S3-BL","0","1","false"
"null","","fixation","html-keyboard-response","89","712126","0.0-8.0-0.24","600d3f429cf6444b766cde70","condE","","<div class=""vertical-center"" style='width:60%;'><p style='font-weight:bold;'>Does the middle word sound more like the first word (A) or the last word (B)?</p> <br> <div class=""container""> <div id=""a-box""> <p class=""title-text"">A</h3></p> </div> <div id=""x-box""> <p class=""title-text"">X<p> </div> <div id=""b-box""> <p class=""title-text"">B</p></div> <br> <div style='float: left;padding-left:30px;'><p>Press '1' for A</p></div><div style='float: right;padding-right:30px;'><p>Press '0' for B</p> </div> </div></div>","null","","","","","","","","","","","","","","","",""
"4941","","test","audio-keyboard-response","90","717064","0.0-8.0-1.24","600d3f429cf6444b766cde70","condE","","resources/audio/wordStim/S3_AI_30_axb_Step-8.wav","48","","","","","","resources/audio/wordStim/S3_AI_30_axb_Step-8.wav","S3","30","axb","8","MI","BL","S3-BL","0","0","true"
"null","","fixation","html-keyboard-response","91","718067","0.0-8.0-0.25","600d3f429cf6444b766cde70","condE","","<div class=""vertical-center"" style='width:60%;'><p style='font-weight:bold;'>Does the middle word sound more like the first word (A) or the last word (B)?</p> <br> <div class=""container""> <div id=""a-box""> <p class=""title-text"">A</h3></p> </div> <div id=""x-box""> <p class=""title-text"">X<p> </div> <div id=""b-box""> <p class=""title-text"">B</p></div> <br> <div style='float: left;padding-left:30px;'><p>Press '1' for A</p></div><div style='float: right;padding-right:30px;'><p>Press '0' for B</p> </div> </div></div>","null","","","","","","","","","","","","","","","",""
"3040","","test","audio-keyboard-response","92","721112","0.0-8.0-1.25","600d3f429cf6444b766cde70","condE","","resources/audio/wordStim/S3_AI_21_axb_Step-4.wav","49","","","","","","resources/audio/wordStim/S3_AI_21_axb_Step-4.wav","S3","21","axb","4","MI","BL","S3-BL","0","1","false"
"null","","fixation","html-keyboard-response","93","722113","0.0-8.0-0.26","600d3f429cf6444b766cde70","condE","","<div class=""vertical-center"" style='width:60%;'><p style='font-weight:bold;'>Does the middle word sound more like the first word (A) or the last word (B)?</p> <br> <div class=""container""> <div id=""a-box""> <p class=""title-text"">A</h3></p> </div> <div id=""x-box""> <p class=""title-text"">X<p> </div> <div id=""b-box""> <p class=""title-text"">B</p></div> <br> <div style='float: left;padding-left:30px;'><p>Press '1' for A</p></div><div style='float: right;padding-right:30px;'><p>Press '0' for B</p> </div> </div></div>","null","","","","","","","","","","","","","","","",""
"3739","","test","audio-keyboard-response","94","725853","0.0-8.0-1.26","600d3f429cf6444b766cde70","condE","","resources/audio/wordStim/S3_AU_19_axb_Step-4.wav","48","","","","","","resources/audio/wordStim/S3_AU_19_axb_Step-4.wav","S3","19","axb","4","MI","BL","S3-BL","0","0","true"
"null","","fixation","html-keyboard-response","95","726855","0.0-8.0-0.27","600d3f429cf6444b766cde70","condE","","<div class=""vertical-center"" style='width:60%;'><p style='font-weight:bold;'>Does the middle word sound more like the first word (A) or the last word (B)?</p> <br> <div class=""container""> <div id=""a-box""> <p class=""title-text"">A</h3></p> </div> <div id=""x-box""> <p class=""title-text"">X<p> </div> <div id=""b-box""> <p class=""title-text"">B</p></div> <br> <div style='float: left;padding-left:30px;'><p>Press '1' for A</p></div><div style='float: right;padding-right:30px;'><p>Press '0' for B</p> </div> </div></div>","null","","","","","","","","","","","","","","","",""
"3280","","test","audio-keyboard-response","96","730140","0.0-8.0-1.27","600d3f429cf6444b766cde70","condE","","resources/audio/wordStim/S3_AU_19_bxa_Step-7.wav","49","","","","","","resources/audio/wordStim/S3_AU_19_bxa_Step-7.wav","S3","19","bxa","7","MI","BL","S3-BL","1","1","true"
"null","","fixation","html-keyboard-response","97","731143","0.0-8.0-0.28","600d3f429cf6444b766cde70","condE","","<div class=""vertical-center"" style='width:60%;'><p style='font-weight:bold;'>Does the middle word sound more like the first word (A) or the last word (B)?</p> <br> <div class=""container""> <div id=""a-box""> <p class=""title-text"">A</h3></p> </div> <div id=""x-box""> <p class=""title-text"">X<p> </div> <div id=""b-box""> <p class=""title-text"">B</p></div> <br> <div style='float: left;padding-left:30px;'><p>Press '1' for A</p></div><div style='float: right;padding-right:30px;'><p>Press '0' for B</p> </div> </div></div>","null","","","","","","","","","","","","","","","",""
"3659","","test","audio-keyboard-response","98","734812","0.0-8.0-1.28","600d3f429cf6444b766cde70","condE","","resources/audio/wordStim/S3_AI_22_axb_Step-3.wav","49","","","","","","resources/audio/wordStim/S3_AI_22_axb_Step-3.wav","S3","22","axb","3","MI","BL","S3-BL","0","1","false"
"null","","fixation","html-keyboard-response","99","735815","0.0-8.0-0.29","600d3f429cf6444b766cde70","condE","","<div class=""vertical-center"" style='width:60%;'><p style='font-weight:bold;'>Does the middle word sound more like the first word (A) or the last word (B)?</p> <br> <div class=""container""> <div id=""a-box""> <p class=""title-text"">A</h3></p> </div> <div id=""x-box""> <p class=""title-text"">X<p> </div> <div id=""b-box""> <p class=""title-text"">B</p></div> <br> <div style='float: left;padding-left:30px;'><p>Press '1' for A</p></div><div style='float: right;padding-right:30px;'><p>Press '0' for B</p> </div> </div></div>","null","","","","","","","","","","","","","","","",""
"3971","","test","audio-keyboard-response","100","739784","0.0-8.0-1.29","600d3f429cf6444b766cde70","condE","","resources/audio/wordStim/S3_AI_30_bxa_Step-6.wav","49","","","","","","resources/audio/wordStim/S3_AI_30_bxa_Step-6.wav","S3","30","bxa","6","MI","BL","S3-BL","1","1","true"
"null","","fixation","html-keyboard-response","101","740785","0.0-8.0-0.30","600d3f429cf6444b766cde70","condE","","<div class=""vertical-center"" style='width:60%;'><p style='font-weight:bold;'>Does the middle word sound more like the first word (A) or the last word (B)?</p> <br> <div class=""container""> <div id=""a-box""> <p class=""title-text"">A</h3></p> </div> <div id=""x-box""> <p class=""title-text"">X<p> </div> <div id=""b-box""> <p class=""title-text"">B</p></div> <br> <div style='float: left;padding-left:30px;'><p>Press '1' for A</p></div><div style='float: right;padding-right:30px;'><p>Press '0' for B</p> </div> </div></div>","null","","","","","","","","","","","","","","","",""
"3611","","test","audio-keyboard-response","102","744396","0.0-8.0-1.30","600d3f429cf6444b766cde70","condE","","resources/audio/wordStim/S3_AI_22_bxa_Step-2.wav","49","","","","","","resources/audio/wordStim/S3_AI_22_bxa_Step-2.wav","S3","22","bxa","2","MI","BL","S3-BL","1","1","true"
"null","","fixation","html-keyboard-response","103","745398","0.0-8.0-0.31","600d3f429cf6444b766cde70","condE","","<div class=""vertical-center"" style='width:60%;'><p style='font-weight:bold;'>Does the middle word sound more like the first word (A) or the last word (B)?</p> <br> <div class=""container""> <div id=""a-box""> <p class=""title-text"">A</h3></p> </div> <div id=""x-box""> <p class=""title-text"">X<p> </div> <div id=""b-box""> <p class=""title-text"">B</p></div> <br> <div style='float: left;padding-left:30px;'><p>Press '1' for A</p></div><div style='float: right;padding-right:30px;'><p>Press '0' for B</p> </div> </div></div>","null","","","","","","","","","","","","","","","",""
"3339","","test","audio-keyboard-response","104","748733","0.0-8.0-1.31","600d3f429cf6444b766cde70","condE","","resources/audio/wordStim/S3_AU_20_bxa_Step-8.wav","49","","","","","","resources/audio/wordStim/S3_AU_20_bxa_Step-8.wav","S3","20","bxa","8","MI","BL","S3-BL","1","1","true"
"null","","fixation","html-keyboard-response","105","749736","0.0-8.0-0.32","600d3f429cf6444b766cde70","condE","","<div class=""vertical-center"" style='width:60%;'><p style='font-weight:bold;'>Does the middle word sound more like the first word (A) or the last word (B)?</p> <br> <div class=""container""> <div id=""a-box""> <p class=""title-text"">A</h3></p> </div> <div id=""x-box""> <p class=""title-text"">X<p> </div> <div id=""b-box""> <p class=""title-text"">B</p></div> <br> <div style='float: left;padding-left:30px;'><p>Press '1' for A</p></div><div style='float: right;padding-right:30px;'><p>Press '0' for B</p> </div> </div></div>","null","","","","","","","","","","","","","","","",""
"3421","","test","audio-keyboard-response","106","753160","0.0-8.0-1.32","600d3f429cf6444b766cde70","condE","","resources/audio/wordStim/S3_AI_21_axb_Step-2.wav","49","","","","","","resources/audio/wordStim/S3_AI_21_axb_Step-2.wav","S3","21","axb","2","MI","BL","S3-BL","0","1","false"
"null","","fixation","html-keyboard-response","107","754161","0.0-8.0-0.33","600d3f429cf6444b766cde70","condE","","<div class=""vertical-center"" style='width:60%;'><p style='font-weight:bold;'>Does the middle word sound more like the first word (A) or the last word (B)?</p> <br> <div class=""container""> <div id=""a-box""> <p class=""title-text"">A</h3></p> </div> <div id=""x-box""> <p class=""title-text"">X<p> </div> <div id=""b-box""> <p class=""title-text"">B</p></div> <br> <div style='float: left;padding-left:30px;'><p>Press '1' for A</p></div><div style='float: right;padding-right:30px;'><p>Press '0' for B</p> </div> </div></div>","null","","","","","","","","","","","","","","","",""
"3381","","test","audio-keyboard-response","108","757547","0.0-8.0-1.33","600d3f429cf6444b766cde70","condE","","resources/audio/wordStim/S3_AU_20_axb_Step-2.wav","49","","","","","","resources/audio/wordStim/S3_AU_20_axb_Step-2.wav","S3","20","axb","2","MI","BL","S3-BL","0","1","false"
"null","","fixation","html-keyboard-response","109","758550","0.0-8.0-0.34","600d3f429cf6444b766cde70","condE","","<div class=""vertical-center"" style='width:60%;'><p style='font-weight:bold;'>Does the middle word sound more like the first word (A) or the last word (B)?</p> <br> <div class=""container""> <div id=""a-box""> <p class=""title-text"">A</h3></p> </div> <div id=""x-box""> <p class=""title-text"">X<p> </div> <div id=""b-box""> <p class=""title-text"">B</p></div> <br> <div style='float: left;padding-left:30px;'><p>Press '1' for A</p></div><div style='float: right;padding-right:30px;'><p>Press '0' for B</p> </div> </div></div>","null","","","","","","","","","","","","","","","",""
"3571","","test","audio-keyboard-response","110","762121","0.0-8.0-1.34","600d3f429cf6444b766cde70","condE","","resources/audio/wordStim/S3_AI_30_bxa_Step-2.wav","48","","","","","","resources/audio/wordStim/S3_AI_30_bxa_Step-2.wav","S3","30","bxa","2","MI","BL","S3-BL","1","0","false"
"null","","fixation","html-keyboard-response","111","763123","0.0-8.0-0.35","600d3f429cf6444b766cde70","condE","","<div class=""vertical-center"" style='width:60%;'><p style='font-weight:bold;'>Does the middle word sound more like the first word (A) or the last word (B)?</p> <br> <div class=""container""> <div id=""a-box""> <p class=""title-text"">A</h3></p> </div> <div id=""x-box""> <p class=""title-text"">X<p> </div> <div id=""b-box""> <p class=""title-text"">B</p></div> <br> <div style='float: left;padding-left:30px;'><p>Press '1' for A</p></div><div style='float: right;padding-right:30px;'><p>Press '0' for B</p> </div> </div></div>","null","","","","","","","","","","","","","","","",""
"3632","","test","audio-keyboard-response","112","766752","0.0-8.0-1.35","600d3f429cf6444b766cde70","condE","","resources/audio/wordStim/S3_AU_20_bxa_Step-4.wav","49","","","","","","resources/audio/wordStim/S3_AU_20_bxa_Step-4.wav","S3","20","bxa","4","MI","BL","S3-BL","1","1","true"
"null","","fixation","html-keyboard-response","113","767754","0.0-8.0-0.36","600d3f429cf6444b766cde70","condE","","<div class=""vertical-center"" style='width:60%;'><p style='font-weight:bold;'>Does the middle word sound more like the first word (A) or the last word (B)?</p> <br> <div class=""container""> <div id=""a-box""> <p class=""title-text"">A</h3></p> </div> <div id=""x-box""> <p class=""title-text"">X<p> </div> <div id=""b-box""> <p class=""title-text"">B</p></div> <br> <div style='float: left;padding-left:30px;'><p>Press '1' for A</p></div><div style='float: right;padding-right:30px;'><p>Press '0' for B</p> </div> </div></div>","null","","","","","","","","","","","","","","","",""
"4011","","test","audio-keyboard-response","114","771771","0.0-8.0-1.36","600d3f429cf6444b766cde70","condE","","resources/audio/wordStim/S3_AU_20_axb_Step-7.wav","48","","","","","","resources/audio/wordStim/S3_AU_20_axb_Step-7.wav","S3","20","axb","7","MI","BL","S3-BL","0","0","true"
"null","","fixation","html-keyboard-response","115","772774","0.0-8.0-0.37","600d3f429cf6444b766cde70","condE","","<div class=""vertical-center"" style='width:60%;'><p style='font-weight:bold;'>Does the middle word sound more like the first word (A) or the last word (B)?</p> <br> <div class=""container""> <div id=""a-box""> <p class=""title-text"">A</h3></p> </div> <div id=""x-box""> <p class=""title-text"">X<p> </div> <div id=""b-box""> <p class=""title-text"">B</p></div> <br> <div style='float: left;padding-left:30px;'><p>Press '1' for A</p></div><div style='float: right;padding-right:30px;'><p>Press '0' for B</p> </div> </div></div>","null","","","","","","","","","","","","","","","",""
"4720","","test","audio-keyboard-response","116","777496","0.0-8.0-1.37","600d3f429cf6444b766cde70","condE","","resources/audio/wordStim/S3_AU_20_axb_Step-5.wav","48","","","","","","resources/audio/wordStim/S3_AU_20_axb_Step-5.wav","S3","20","axb","5","MI","BL","S3-BL","0","0","true"
"null","","fixation","html-keyboard-response","117","778499","0.0-8.0-0.38","600d3f429cf6444b766cde70","condE","","<div class=""vertical-center"" style='width:60%;'><p style='font-weight:bold;'>Does the middle word sound more like the first word (A) or the last word (B)?</p> <br> <div class=""container""> <div id=""a-box""> <p class=""title-text"">A</h3></p> </div> <div id=""x-box""> <p class=""title-text"">X<p> </div> <div id=""b-box""> <p class=""title-text"">B</p></div> <br> <div style='float: left;padding-left:30px;'><p>Press '1' for A</p></div><div style='float: right;padding-right:30px;'><p>Press '0' for B</p> </div> </div></div>","null","","","","","","","","","","","","","","","",""
"3589","","test","audio-keyboard-response","118","782083","0.0-8.0-1.38","600d3f429cf6444b766cde70","condE","","resources/audio/wordStim/S3_AU_20_bxa_Step-6.wav","49","","","","","","resources/audio/wordStim/S3_AU_20_bxa_Step-6.wav","S3","20","bxa","6","MI","BL","S3-BL","1","1","true"
"null","","fixation","html-keyboard-response","119","783086","0.0-8.0-0.39","600d3f429cf6444b766cde70","condE","","<div class=""vertical-center"" style='width:60%;'><p style='font-weight:bold;'>Does the middle word sound more like the first word (A) or the last word (B)?</p> <br> <div class=""container""> <div id=""a-box""> <p class=""title-text"">A</h3></p> </div> <div id=""x-box""> <p class=""title-text"">X<p> </div> <div id=""b-box""> <p class=""title-text"">B</p></div> <br> <div style='float: left;padding-left:30px;'><p>Press '1' for A</p></div><div style='float: right;padding-right:30px;'><p>Press '0' for B</p> </div> </div></div>","null","","","","","","","","","","","","","","","",""
"4211","","test","audio-keyboard-response","120","787300","0.0-8.0-1.39","600d3f429cf6444b766cde70","condE","","resources/audio/wordStim/S3_AU_20_bxa_Step-7.wav","49","","","","","","resources/audio/wordStim/S3_AU_20_bxa_Step-7.wav","S3","20","bxa","7","MI","BL","S3-BL","1","1","true"
"null","","fixation","html-keyboard-response","121","788303","0.0-8.0-0.40","600d3f429cf6444b766cde70","condE","","<div class=""vertical-center"" style='width:60%;'><p style='font-weight:bold;'>Does the middle word sound more like the first word (A) or the last word (B)?</p> <br> <div class=""container""> <div id=""a-box""> <p class=""title-text"">A</h3></p> </div> <div id=""x-box""> <p class=""title-text"">X<p> </div> <div id=""b-box""> <p class=""title-text"">B</p></div> <br> <div style='float: left;padding-left:30px;'><p>Press '1' for A</p></div><div style='float: right;padding-right:30px;'><p>Press '0' for B</p> </div> </div></div>","null","","","","","","","","","","","","","","","",""
"3360","","test","audio-keyboard-response","122","791667","0.0-8.0-1.40","600d3f429cf6444b766cde70","condE","","resources/audio/wordStim/S3_AI_21_bxa_Step-4.wav","49","","","","","","resources/audio/wordStim/S3_AI_21_bxa_Step-4.wav","S3","21","bxa","4","MI","BL","S3-BL","1","1","true"
"null","","fixation","html-keyboard-response","123","792669","0.0-8.0-0.41","600d3f429cf6444b766cde70","condE","","<div class=""vertical-center"" style='width:60%;'><p style='font-weight:bold;'>Does the middle word sound more like the first word (A) or the last word (B)?</p> <br> <div class=""container""> <div id=""a-box""> <p class=""title-text"">A</h3></p> </div> <div id=""x-box""> <p class=""title-text"">X<p> </div> <div id=""b-box""> <p class=""title-text"">B</p></div> <br> <div style='float: left;padding-left:30px;'><p>Press '1' for A</p></div><div style='float: right;padding-right:30px;'><p>Press '0' for B</p> </div> </div></div>","null","","","","","","","","","","","","","","","",""
"4379","","test","audio-keyboard-response","124","797050","0.0-8.0-1.41","600d3f429cf6444b766cde70","condE","","resources/audio/wordStim/S3_AI_22_axb_Step-4.wav","49","","","","","","resources/audio/wordStim/S3_AI_22_axb_Step-4.wav","S3","22","axb","4","MI","BL","S3-BL","0","1","false"
"9230.515000002924","","break","html-keyboard-response","125","806782","0.0-8.0-2.41-0.41","600d3f429cf6444b766cde70","condE","","<div class=""vertical-center""><p>Feel free to take a break!</p><i>When you're ready to continue, press SPACE to begin the next trial.</i></p></div>","32","","","","","","","","","","","","","","","",""
"null","","fixation","html-keyboard-response","126","807283","0.0-8.0-0.42","600d3f429cf6444b766cde70","condE","","<div class=""vertical-center"" style='width:60%;'><p style='font-weight:bold;'>Does the middle word sound more like the first word (A) or the last word (B)?</p> <br> <div class=""container""> <div id=""a-box""> <p class=""title-text"">A</h3></p> </div> <div id=""x-box""> <p class=""title-text"">X<p> </div> <div id=""b-box""> <p class=""title-text"">B</p></div> <br> <div style='float: left;padding-left:30px;'><p>Press '1' for A</p></div><div style='float: right;padding-right:30px;'><p>Press '0' for B</p> </div> </div></div>","null","","","","","","","","","","","","","","","",""
"3731","","test","audio-keyboard-response","127","811015","0.0-8.0-1.42","600d3f429cf6444b766cde70","condE","","resources/audio/wordStim/S3_AI_22_bxa_Step-3.wav","48","","","","","","resources/audio/wordStim/S3_AI_22_bxa_Step-3.wav","S3","22","bxa","3","MI","BL","S3-BL","1","0","false"
"null","","fixation","html-keyboard-response","128","812019","0.0-8.0-0.43","600d3f429cf6444b766cde70","condE","","<div class=""vertical-center"" style='width:60%;'><p style='font-weight:bold;'>Does the middle word sound more like the first word (A) or the last word (B)?</p> <br> <div class=""container""> <div id=""a-box""> <p class=""title-text"">A</h3></p> </div> <div id=""x-box""> <p class=""title-text"">X<p> </div> <div id=""b-box""> <p class=""title-text"">B</p></div> <br> <div style='float: left;padding-left:30px;'><p>Press '1' for A</p></div><div style='float: right;padding-right:30px;'><p>Press '0' for B</p> </div> </div></div>","null","","","","","","","","","","","","","","","",""
"3181","","test","audio-keyboard-response","129","815196","0.0-8.0-1.43","600d3f429cf6444b766cde70","condE","","resources/audio/wordStim/S3_AI_21_axb_Step-3.wav","49","","","","","","resources/audio/wordStim/S3_AI_21_axb_Step-3.wav","S3","21","axb","3","MI","BL","S3-BL","0","1","false"
"null","","fixation","html-keyboard-response","130","816200","0.0-8.0-0.44","600d3f429cf6444b766cde70","condE","","<div class=""vertical-center"" style='width:60%;'><p style='font-weight:bold;'>Does the middle word sound more like the first word (A) or the last word (B)?</p> <br> <div class=""container""> <div id=""a-box""> <p class=""title-text"">A</h3></p> </div> <div id=""x-box""> <p class=""title-text"">X<p> </div> <div id=""b-box""> <p class=""title-text"">B</p></div> <br> <div style='float: left;padding-left:30px;'><p>Press '1' for A</p></div><div style='float: right;padding-right:30px;'><p>Press '0' for B</p> </div> </div></div>","null","","","","","","","","","","","","","","","",""
"4288","","test","audio-keyboard-response","131","820487","0.0-8.0-1.44","600d3f429cf6444b766cde70","condE","","resources/audio/wordStim/S3_AI_30_axb_Step-3.wav","48","","","","","","resources/audio/wordStim/S3_AI_30_axb_Step-3.wav","S3","30","axb","3","MI","BL","S3-BL","0","0","true"
"null","","fixation","html-keyboard-response","132","821489","0.0-8.0-0.45","600d3f429cf6444b766cde70","condE","","<div class=""vertical-center"" style='width:60%;'><p style='font-weight:bold;'>Does the middle word sound more like the first word (A) or the last word (B)?</p> <br> <div class=""container""> <div id=""a-box""> <p class=""title-text"">A</h3></p> </div> <div id=""x-box""> <p class=""title-text"">X<p> </div> <div id=""b-box""> <p class=""title-text"">B</p></div> <br> <div style='float: left;padding-left:30px;'><p>Press '1' for A</p></div><div style='float: right;padding-right:30px;'><p>Press '0' for B</p> </div> </div></div>","null","","","","","","","","","","","","","","","",""
"3941","","test","audio-keyboard-response","133","825424","0.0-8.0-1.45","600d3f429cf6444b766cde70","condE","","resources/audio/wordStim/S3_AU_18_bxa_Step-3.wav","48","","","","","","resources/audio/wordStim/S3_AU_18_bxa_Step-3.wav","S3","18","bxa","3","MI","BL","S3-BL","1","0","false"
"null","","fixation","html-keyboard-response","134","826427","0.0-8.0-0.46","600d3f429cf6444b766cde70","condE","","<div class=""vertical-center"" style='width:60%;'><p style='font-weight:bold;'>Does the middle word sound more like the first word (A) or the last word (B)?</p> <br> <div class=""container""> <div id=""a-box""> <p class=""title-text"">A</h3></p> </div> <div id=""x-box""> <p class=""title-text"">X<p> </div> <div id=""b-box""> <p class=""title-text"">B</p></div> <br> <div style='float: left;padding-left:30px;'><p>Press '1' for A</p></div><div style='float: right;padding-right:30px;'><p>Press '0' for B</p> </div> </div></div>","null","","","","","","","","","","","","","","","",""
"3851","","test","audio-keyboard-response","135","830273","0.0-8.0-1.46","600d3f429cf6444b766cde70","condE","","resources/audio/wordStim/S3_AI_30_bxa_Step-5.wav","48","","","","","","resources/audio/wordStim/S3_AI_30_bxa_Step-5.wav","S3","30","bxa","5","MI","BL","S3-BL","1","0","false"
"null","","fixation","html-keyboard-response","136","831276","0.0-8.0-0.47","600d3f429cf6444b766cde70","condE","","<div class=""vertical-center"" style='width:60%;'><p style='font-weight:bold;'>Does the middle word sound more like the first word (A) or the last word (B)?</p> <br> <div class=""container""> <div id=""a-box""> <p class=""title-text"">A</h3></p> </div> <div id=""x-box""> <p class=""title-text"">X<p> </div> <div id=""b-box""> <p class=""title-text"">B</p></div> <br> <div style='float: left;padding-left:30px;'><p>Press '1' for A</p></div><div style='float: right;padding-right:30px;'><p>Press '0' for B</p> </div> </div></div>","null","","","","","","","","","","","","","","","",""
"3480","","test","audio-keyboard-response","137","834754","0.0-8.0-1.47","600d3f429cf6444b766cde70","condE","","resources/audio/wordStim/S3_AU_19_axb_Step-7.wav","48","","","","","","resources/audio/wordStim/S3_AU_19_axb_Step-7.wav","S3","19","axb","7","MI","BL","S3-BL","0","0","true"
"null","","fixation","html-keyboard-response","138","835755","0.0-8.0-0.48","600d3f429cf6444b766cde70","condE","","<div class=""vertical-center"" style='width:60%;'><p style='font-weight:bold;'>Does the middle word sound more like the first word (A) or the last word (B)?</p> <br> <div class=""container""> <div id=""a-box""> <p class=""title-text"">A</h3></p> </div> <div id=""x-box""> <p class=""title-text"">X<p> </div> <div id=""b-box""> <p class=""title-text"">B</p></div> <br> <div style='float: left;padding-left:30px;'><p>Press '1' for A</p></div><div style='float: right;padding-right:30px;'><p>Press '0' for B</p> </div> </div></div>","null","","","","","","","","","","","","","","","",""
"3459","","test","audio-keyboard-response","139","839213","0.0-8.0-1.48","600d3f429cf6444b766cde70","condE","","resources/audio/wordStim/S3_AI_30_bxa_Step-3.wav","49","","","","","","resources/audio/wordStim/S3_AI_30_bxa_Step-3.wav","S3","30","bxa","3","MI","BL","S3-BL","1","1","true"
"null","","fixation","html-keyboard-response","140","840218","0.0-8.0-0.49","600d3f429cf6444b766cde70","condE","","<div class=""vertical-center"" style='width:60%;'><p style='font-weight:bold;'>Does the middle word sound more like the first word (A) or the last word (B)?</p> <br> <div class=""container""> <div id=""a-box""> <p class=""title-text"">A</h3></p> </div> <div id=""x-box""> <p class=""title-text"">X<p> </div> <div id=""b-box""> <p class=""title-text"">B</p></div> <br> <div style='float: left;padding-left:30px;'><p>Press '1' for A</p></div><div style='float: right;padding-right:30px;'><p>Press '0' for B</p> </div> </div></div>","null","","","","","","","","","","","","","","","",""
"3829","","test","audio-keyboard-response","141","844044","0.0-8.0-1.49","600d3f429cf6444b766cde70","condE","","resources/audio/wordStim/S3_AI_22_axb_Step-8.wav","49","","","","","","resources/audio/wordStim/S3_AI_22_axb_Step-8.wav","S3","22","axb","8","MI","BL","S3-BL","0","1","false"
"null","","fixation","html-keyboard-response","142","845047","0.0-8.0-0.50","600d3f429cf6444b766cde70","condE","","<div class=""vertical-center"" style='width:60%;'><p style='font-weight:bold;'>Does the middle word sound more like the first word (A) or the last word (B)?</p> <br> <div class=""container""> <div id=""a-box""> <p class=""title-text"">A</h3></p> </div> <div id=""x-box""> <p class=""title-text"">X<p> </div> <div id=""b-box""> <p class=""title-text"">B</p></div> <br> <div style='float: left;padding-left:30px;'><p>Press '1' for A</p></div><div style='float: right;padding-right:30px;'><p>Press '0' for B</p> </div> </div></div>","null","","","","","","","","","","","","","","","",""
"3200","","test","audio-keyboard-response","143","848244","0.0-8.0-1.50","600d3f429cf6444b766cde70","condE","","resources/audio/wordStim/S3_AU_19_axb_Step-8.wav","48","","","","","","resources/audio/wordStim/S3_AU_19_axb_Step-8.wav","S3","19","axb","8","MI","BL","S3-BL","0","0","true"
"null","","fixation","html-keyboard-response","144","849246","0.0-8.0-0.51","600d3f429cf6444b766cde70","condE","","<div class=""vertical-center"" style='width:60%;'><p style='font-weight:bold;'>Does the middle word sound more like the first word (A) or the last word (B)?</p> <br> <div class=""container""> <div id=""a-box""> <p class=""title-text"">A</h3></p> </div> <div id=""x-box""> <p class=""title-text"">X<p> </div> <div id=""b-box""> <p class=""title-text"">B</p></div> <br> <div style='float: left;padding-left:30px;'><p>Press '1' for A</p></div><div style='float: right;padding-right:30px;'><p>Press '0' for B</p> </div> </div></div>","null","","","","","","","","","","","","","","","",""
"3931","","test","audio-keyboard-response","145","853179","0.0-8.0-1.51","600d3f429cf6444b766cde70","condE","","resources/audio/wordStim/S3_AU_20_axb_Step-3.wav","49","","","","","","resources/audio/wordStim/S3_AU_20_axb_Step-3.wav","S3","20","axb","3","MI","BL","S3-BL","0","1","false"
"null","","fixation","html-keyboard-response","146","854181","0.0-8.0-0.52","600d3f429cf6444b766cde70","condE","","<div class=""vertical-center"" style='width:60%;'><p style='font-weight:bold;'>Does the middle word sound more like the first word (A) or the last word (B)?</p> <br> <div class=""container""> <div id=""a-box""> <p class=""title-text"">A</h3></p> </div> <div id=""x-box""> <p class=""title-text"">X<p> </div> <div id=""b-box""> <p class=""title-text"">B</p></div> <br> <div style='float: left;padding-left:30px;'><p>Press '1' for A</p></div><div style='float: right;padding-right:30px;'><p>Press '0' for B</p> </div> </div></div>","null","","","","","","","","","","","","","","","",""
"3451","","test","audio-keyboard-response","147","857627","0.0-8.0-1.52","600d3f429cf6444b766cde70","condE","","resources/audio/wordStim/S3_AI_30_axb_Step-7.wav","49","","","","","","resources/audio/wordStim/S3_AI_30_axb_Step-7.wav","S3","30","axb","7","MI","BL","S3-BL","0","1","false"
"null","","fixation","html-keyboard-response","148","858629","0.0-8.0-0.53","600d3f429cf6444b766cde70","condE","","<div class=""vertical-center"" style='width:60%;'><p style='font-weight:bold;'>Does the middle word sound more like the first word (A) or the last word (B)?</p> <br> <div class=""container""> <div id=""a-box""> <p class=""title-text"">A</h3></p> </div> <div id=""x-box""> <p class=""title-text"">X<p> </div> <div id=""b-box""> <p class=""title-text"">B</p></div> <br> <div style='float: left;padding-left:30px;'><p>Press '1' for A</p></div><div style='float: right;padding-right:30px;'><p>Press '0' for B</p> </div> </div></div>","null","","","","","","","","","","","","","","","",""
"4640","","test","audio-keyboard-response","149","863268","0.0-8.0-1.53","600d3f429cf6444b766cde70","condE","","resources/audio/wordStim/S3_AI_21_bxa_Step-7.wav","48","","","","","","resources/audio/wordStim/S3_AI_21_bxa_Step-7.wav","S3","21","bxa","7","MI","BL","S3-BL","1","0","false"
"null","","fixation","html-keyboard-response","150","864270","0.0-8.0-0.54","600d3f429cf6444b766cde70","condE","","<div class=""vertical-center"" style='width:60%;'><p style='font-weight:bold;'>Does the middle word sound more like the first word (A) or the last word (B)?</p> <br> <div class=""container""> <div id=""a-box""> <p class=""title-text"">A</h3></p> </div> <div id=""x-box""> <p class=""title-text"">X<p> </div> <div id=""b-box""> <p class=""title-text"">B</p></div> <br> <div style='float: left;padding-left:30px;'><p>Press '1' for A</p></div><div style='float: right;padding-right:30px;'><p>Press '0' for B</p> </div> </div></div>","null","","","","","","","","","","","","","","","",""
"3909","","test","audio-keyboard-response","151","868181","0.0-8.0-1.54","600d3f429cf6444b766cde70","condE","","resources/audio/wordStim/S3_AI_22_axb_Step-5.wav","49","","","","","","resources/audio/wordStim/S3_AI_22_axb_Step-5.wav","S3","22","axb","5","MI","BL","S3-BL","0","1","false"
"null","","fixation","html-keyboard-response","152","869184","0.0-8.0-0.55","600d3f429cf6444b766cde70","condE","","<div class=""vertical-center"" style='width:60%;'><p style='font-weight:bold;'>Does the middle word sound more like the first word (A) or the last word (B)?</p> <br> <div class=""container""> <div id=""a-box""> <p class=""title-text"">A</h3></p> </div> <div id=""x-box""> <p class=""title-text"">X<p> </div> <div id=""b-box""> <p class=""title-text"">B</p></div> <br> <div style='float: left;padding-left:30px;'><p>Press '1' for A</p></div><div style='float: right;padding-right:30px;'><p>Press '0' for B</p> </div> </div></div>","null","","","","","","","","","","","","","","","",""
"3219","","test","audio-keyboard-response","153","872403","0.0-8.0-1.55","600d3f429cf6444b766cde70","condE","","resources/audio/wordStim/S3_AU_19_bxa_Step-4.wav","49","","","","","","resources/audio/wordStim/S3_AU_19_bxa_Step-4.wav","S3","19","bxa","4","MI","BL","S3-BL","1","1","true"
"null","","fixation","html-keyboard-response","154","873405","0.0-8.0-0.56","600d3f429cf6444b766cde70","condE","","<div class=""vertical-center"" style='width:60%;'><p style='font-weight:bold;'>Does the middle word sound more like the first word (A) or the last word (B)?</p> <br> <div class=""container""> <div id=""a-box""> <p class=""title-text"">A</h3></p> </div> <div id=""x-box""> <p class=""title-text"">X<p> </div> <div id=""b-box""> <p class=""title-text"">B</p></div> <br> <div style='float: left;padding-left:30px;'><p>Press '1' for A</p></div><div style='float: right;padding-right:30px;'><p>Press '0' for B</p> </div> </div></div>","null","","","","","","","","","","","","","","","",""
"4011","","test","audio-keyboard-response","155","877421","0.0-8.0-1.56","600d3f429cf6444b766cde70","condE","","resources/audio/wordStim/S3_AU_18_bxa_Step-4.wav","49","","","","","","resources/audio/wordStim/S3_AU_18_bxa_Step-4.wav","S3","18","bxa","4","MI","BL","S3-BL","1","1","true"
"null","","fixation","html-keyboard-response","156","878423","0.0-8.0-0.57","600d3f429cf6444b766cde70","condE","","<div class=""vertical-center"" style='width:60%;'><p style='font-weight:bold;'>Does the middle word sound more like the first word (A) or the last word (B)?</p> <br> <div class=""container""> <div id=""a-box""> <p class=""title-text"">A</h3></p> </div> <div id=""x-box""> <p class=""title-text"">X<p> </div> <div id=""b-box""> <p class=""title-text"">B</p></div> <br> <div style='float: left;padding-left:30px;'><p>Press '1' for A</p></div><div style='float: right;padding-right:30px;'><p>Press '0' for B</p> </div> </div></div>","null","","","","","","","","","","","","","","","",""
"3331","","test","audio-keyboard-response","157","881760","0.0-8.0-1.57","600d3f429cf6444b766cde70","condE","","resources/audio/wordStim/S3_AU_19_axb_Step-3.wav","49","","","","","","resources/audio/wordStim/S3_AU_19_axb_Step-3.wav","S3","19","axb","3","MI","BL","S3-BL","0","1","false"
"null","","fixation","html-keyboard-response","158","882764","0.0-8.0-0.58","600d3f429cf6444b766cde70","condE","","<div class=""vertical-center"" style='width:60%;'><p style='font-weight:bold;'>Does the middle word sound more like the first word (A) or the last word (B)?</p> <br> <div class=""container""> <div id=""a-box""> <p class=""title-text"">A</h3></p> </div> <div id=""x-box""> <p class=""title-text"">X<p> </div> <div id=""b-box""> <p class=""title-text"">B</p></div> <br> <div style='float: left;padding-left:30px;'><p>Press '1' for A</p></div><div style='float: right;padding-right:30px;'><p>Press '0' for B</p> </div> </div></div>","null","","","","","","","","","","","","","","","",""
"3931","","test","audio-keyboard-response","159","886697","0.0-8.0-1.58","600d3f429cf6444b766cde70","condE","","resources/audio/wordStim/S3_AU_20_axb_Step-4.wav","49","","","","","","resources/audio/wordStim/S3_AU_20_axb_Step-4.wav","S3","20","axb","4","MI","BL","S3-BL","0","1","false"
"null","","fixation","html-keyboard-response","160","887698","0.0-8.0-0.59","600d3f429cf6444b766cde70","condE","","<div class=""vertical-center"" style='width:60%;'><p style='font-weight:bold;'>Does the middle word sound more like the first word (A) or the last word (B)?</p> <br> <div class=""container""> <div id=""a-box""> <p class=""title-text"">A</h3></p> </div> <div id=""x-box""> <p class=""title-text"">X<p> </div> <div id=""b-box""> <p class=""title-text"">B</p></div> <br> <div style='float: left;padding-left:30px;'><p>Press '1' for A</p></div><div style='float: right;padding-right:30px;'><p>Press '0' for B</p> </div> </div></div>","null","","","","","","","","","","","","","","","",""
"4389","","test","audio-keyboard-response","161","892089","0.0-8.0-1.59","600d3f429cf6444b766cde70","condE","","resources/audio/wordStim/S3_AI_22_bxa_Step-4.wav","49","","","","","","resources/audio/wordStim/S3_AI_22_bxa_Step-4.wav","S3","22","bxa","4","MI","BL","S3-BL","1","1","true"
"null","","fixation","html-keyboard-response","162","893091","0.0-8.0-0.60","600d3f429cf6444b766cde70","condE","","<div class=""vertical-center"" style='width:60%;'><p style='font-weight:bold;'>Does the middle word sound more like the first word (A) or the last word (B)?</p> <br> <div class=""container""> <div id=""a-box""> <p class=""title-text"">A</h3></p> </div> <div id=""x-box""> <p class=""title-text"">X<p> </div> <div id=""b-box""> <p class=""title-text"">B</p></div> <br> <div style='float: left;padding-left:30px;'><p>Press '1' for A</p></div><div style='float: right;padding-right:30px;'><p>Press '0' for B</p> </div> </div></div>","null","","","","","","","","","","","","","","","",""
"3011","","test","audio-keyboard-response","163","896098","0.0-8.0-1.60","600d3f429cf6444b766cde70","condE","","resources/audio/wordStim/S3_AI_21_bxa_Step-3.wav","49","","","","","","resources/audio/wordStim/S3_AI_21_bxa_Step-3.wav","S3","21","bxa","3","MI","BL","S3-BL","1","1","true"
"null","","fixation","html-keyboard-response","164","897100","0.0-8.0-0.61","600d3f429cf6444b766cde70","condE","","<div class=""vertical-center"" style='width:60%;'><p style='font-weight:bold;'>Does the middle word sound more like the first word (A) or the last word (B)?</p> <br> <div class=""container""> <div id=""a-box""> <p class=""title-text"">A</h3></p> </div> <div id=""x-box""> <p class=""title-text"">X<p> </div> <div id=""b-box""> <p class=""title-text"">B</p></div> <br> <div style='float: left;padding-left:30px;'><p>Press '1' for A</p></div><div style='float: right;padding-right:30px;'><p>Press '0' for B</p> </div> </div></div>","null","","","","","","","","","","","","","","","",""
"3421","","test","audio-keyboard-response","165","900519","0.0-8.0-1.61","600d3f429cf6444b766cde70","condE","","resources/audio/wordStim/S3_AI_21_bxa_Step-2.wav","48","","","","","","resources/audio/wordStim/S3_AI_21_bxa_Step-2.wav","S3","21","bxa","2","MI","BL","S3-BL","1","0","false"
"null","","fixation","html-keyboard-response","166","901520","0.0-8.0-0.62","600d3f429cf6444b766cde70","condE","","<div class=""vertical-center"" style='width:60%;'><p style='font-weight:bold;'>Does the middle word sound more like the first word (A) or the last word (B)?</p> <br> <div class=""container""> <div id=""a-box""> <p class=""title-text"">A</h3></p> </div> <div id=""x-box""> <p class=""title-text"">X<p> </div> <div id=""b-box""> <p class=""title-text"">B</p></div> <br> <div style='float: left;padding-left:30px;'><p>Press '1' for A</p></div><div style='float: right;padding-right:30px;'><p>Press '0' for B</p> </div> </div></div>","null","","","","","","","","","","","","","","","",""
"3979","","test","audio-keyboard-response","167","905497","0.0-8.0-1.62","600d3f429cf6444b766cde70","condE","","resources/audio/wordStim/S3_AI_22_bxa_Step-5.wav","49","","","","","","resources/audio/wordStim/S3_AI_22_bxa_Step-5.wav","S3","22","bxa","5","MI","BL","S3-BL","1","1","true"
"68675.56500001228","","break","html-keyboard-response","168","974673","0.0-8.0-2.62-0.62","600d3f429cf6444b766cde70","condE","","<div class=""vertical-center""><p>Feel free to take a break!</p><i>When you're ready to continue, press SPACE to begin the next trial.</i></p></div>","32","","","","","","","","","","","","","","","",""
"null","","fixation","html-keyboard-response","169","975175","0.0-8.0-0.63","600d3f429cf6444b766cde70","condE","","<div class=""vertical-center"" style='width:60%;'><p style='font-weight:bold;'>Does the middle word sound more like the first word (A) or the last word (B)?</p> <br> <div class=""container""> <div id=""a-box""> <p class=""title-text"">A</h3></p> </div> <div id=""x-box""> <p class=""title-text"">X<p> </div> <div id=""b-box""> <p class=""title-text"">B</p></div> <br> <div style='float: left;padding-left:30px;'><p>Press '1' for A</p></div><div style='float: right;padding-right:30px;'><p>Press '0' for B</p> </div> </div></div>","null","","","","","","","","","","","","","","","",""
"3040","","test","audio-keyboard-response","170","978222","0.0-8.0-1.63","600d3f429cf6444b766cde70","condE","","resources/audio/wordStim/S3_AU_19_bxa_Step-3.wav","48","","","","","","resources/audio/wordStim/S3_AU_19_bxa_Step-3.wav","S3","19","bxa","3","MI","BL","S3-BL","1","0","false"
"null","","fixation","html-keyboard-response","171","979224","0.0-8.0-0.64","600d3f429cf6444b766cde70","condE","","<div class=""vertical-center"" style='width:60%;'><p style='font-weight:bold;'>Does the middle word sound more like the first word (A) or the last word (B)?</p> <br> <div class=""container""> <div id=""a-box""> <p class=""title-text"">A</h3></p> </div> <div id=""x-box""> <p class=""title-text"">X<p> </div> <div id=""b-box""> <p class=""title-text"">B</p></div> <br> <div style='float: left;padding-left:30px;'><p>Press '1' for A</p></div><div style='float: right;padding-right:30px;'><p>Press '0' for B</p> </div> </div></div>","null","","","","","","","","","","","","","","","",""
"3640","","test","audio-keyboard-response","172","982864","0.0-8.0-1.64","600d3f429cf6444b766cde70","condE","","resources/audio/wordStim/S3_AI_30_bxa_Step-4.wav","49","","","","","","resources/audio/wordStim/S3_AI_30_bxa_Step-4.wav","S3","30","bxa","4","MI","BL","S3-BL","1","1","true"
"null","","fixation","html-keyboard-response","173","983866","0.0-8.0-0.65","600d3f429cf6444b766cde70","condE","","<div class=""vertical-center"" style='width:60%;'><p style='font-weight:bold;'>Does the middle word sound more like the first word (A) or the last word (B)?</p> <br> <div class=""container""> <div id=""a-box""> <p class=""title-text"">A</h3></p> </div> <div id=""x-box""> <p class=""title-text"">X<p> </div> <div id=""b-box""> <p class=""title-text"">B</p></div> <br> <div style='float: left;padding-left:30px;'><p>Press '1' for A</p></div><div style='float: right;padding-right:30px;'><p>Press '0' for B</p> </div> </div></div>","null","","","","","","","","","","","","","","","",""
"3429","","test","audio-keyboard-response","174","987302","0.0-8.0-1.65","600d3f429cf6444b766cde70","condE","","resources/audio/wordStim/S3_AI_30_axb_Step-4.wav","49","","","","","","resources/audio/wordStim/S3_AI_30_axb_Step-4.wav","S3","30","axb","4","MI","BL","S3-BL","0","1","false"
"null","","fixation","html-keyboard-response","175","988304","0.0-8.0-0.66","600d3f429cf6444b766cde70","condE","","<div class=""vertical-center"" style='width:60%;'><p style='font-weight:bold;'>Does the middle word sound more like the first word (A) or the last word (B)?</p> <br> <div class=""container""> <div id=""a-box""> <p class=""title-text"">A</h3></p> </div> <div id=""x-box""> <p class=""title-text"">X<p> </div> <div id=""b-box""> <p class=""title-text"">B</p></div> <br> <div style='float: left;padding-left:30px;'><p>Press '1' for A</p></div><div style='float: right;padding-right:30px;'><p>Press '0' for B</p> </div> </div></div>","null","","","","","","","","","","","","","","","",""
"3509","","test","audio-keyboard-response","176","991815","0.0-8.0-1.66","600d3f429cf6444b766cde70","condE","","resources/audio/wordStim/S3_AI_21_axb_Step-7.wav","49","","","","","","resources/audio/wordStim/S3_AI_21_axb_Step-7.wav","S3","21","axb","7","MI","BL","S3-BL","0","1","false"
"null","","fixation","html-keyboard-response","177","992817","0.0-8.0-0.67","600d3f429cf6444b766cde70","condE","","<div class=""vertical-center"" style='width:60%;'><p style='font-weight:bold;'>Does the middle word sound more like the first word (A) or the last word (B)?</p> <br> <div class=""container""> <div id=""a-box""> <p class=""title-text"">A</h3></p> </div> <div id=""x-box""> <p class=""title-text"">X<p> </div> <div id=""b-box""> <p class=""title-text"">B</p></div> <br> <div style='float: left;padding-left:30px;'><p>Press '1' for A</p></div><div style='float: right;padding-right:30px;'><p>Press '0' for B</p> </div> </div></div>","null","","","","","","","","","","","","","","","",""
"4019","","test","audio-keyboard-response","178","996832","0.0-8.0-1.67","600d3f429cf6444b766cde70","condE","","resources/audio/wordStim/S3_AI_22_bxa_Step-8.wav","49","","","","","","resources/audio/wordStim/S3_AI_22_bxa_Step-8.wav","S3","22","bxa","8","MI","BL","S3-BL","1","1","true"
"null","","fixation","html-keyboard-response","179","997836","0.0-8.0-0.68","600d3f429cf6444b766cde70","condE","","<div class=""vertical-center"" style='width:60%;'><p style='font-weight:bold;'>Does the middle word sound more like the first word (A) or the last word (B)?</p> <br> <div class=""container""> <div id=""a-box""> <p class=""title-text"">A</h3></p> </div> <div id=""x-box""> <p class=""title-text"">X<p> </div> <div id=""b-box""> <p class=""title-text"">B</p></div> <br> <div style='float: left;padding-left:30px;'><p>Press '1' for A</p></div><div style='float: right;padding-right:30px;'><p>Press '0' for B</p> </div> </div></div>","null","","","","","","","","","","","","","","","",""
"4061","","test","audio-keyboard-response","180","1001902","0.0-8.0-1.68","600d3f429cf6444b766cde70","condE","","resources/audio/wordStim/S3_AU_18_axb_Step-6.wav","49","","","","","","resources/audio/wordStim/S3_AU_18_axb_Step-6.wav","S3","18","axb","6","MI","BL","S3-BL","0","1","false"
"null","","fixation","html-keyboard-response","181","1002904","0.0-8.0-0.69","600d3f429cf6444b766cde70","condE","","<div class=""vertical-center"" style='width:60%;'><p style='font-weight:bold;'>Does the middle word sound more like the first word (A) or the last word (B)?</p> <br> <div class=""container""> <div id=""a-box""> <p class=""title-text"">A</h3></p> </div> <div id=""x-box""> <p class=""title-text"">X<p> </div> <div id=""b-box""> <p class=""title-text"">B</p></div> <br> <div style='float: left;padding-left:30px;'><p>Press '1' for A</p></div><div style='float: right;padding-right:30px;'><p>Press '0' for B</p> </div> </div></div>","null","","","","","","","","","","","","","","","",""
"4200","","test","audio-keyboard-response","182","1007112","0.0-8.0-1.69","600d3f429cf6444b766cde70","condE","","resources/audio/wordStim/S3_AU_20_axb_Step-8.wav","48","","","","","","resources/audio/wordStim/S3_AU_20_axb_Step-8.wav","S3","20","axb","8","MI","BL","S3-BL","0","0","true"
"null","","fixation","html-keyboard-response","183","1008114","0.0-8.0-0.70","600d3f429cf6444b766cde70","condE","","<div class=""vertical-center"" style='width:60%;'><p style='font-weight:bold;'>Does the middle word sound more like the first word (A) or the last word (B)?</p> <br> <div class=""container""> <div id=""a-box""> <p class=""title-text"">A</h3></p> </div> <div id=""x-box""> <p class=""title-text"">X<p> </div> <div id=""b-box""> <p class=""title-text"">B</p></div> <br> <div style='float: left;padding-left:30px;'><p>Press '1' for A</p></div><div style='float: right;padding-right:30px;'><p>Press '0' for B</p> </div> </div></div>","null","","","","","","","","","","","","","","","",""
"6160","","test","audio-keyboard-response","184","1014279","0.0-8.0-1.70","600d3f429cf6444b766cde70","condE","","resources/audio/wordStim/S3_AI_22_axb_Step-2.wav","49","","","","","","resources/audio/wordStim/S3_AI_22_axb_Step-2.wav","S3","22","axb","2","MI","BL","S3-BL","0","1","false"
"null","","fixation","html-keyboard-response","185","1015280","0.0-8.0-0.71","600d3f429cf6444b766cde70","condE","","<div class=""vertical-center"" style='width:60%;'><p style='font-weight:bold;'>Does the middle word sound more like the first word (A) or the last word (B)?</p> <br> <div class=""container""> <div id=""a-box""> <p class=""title-text"">A</h3></p> </div> <div id=""x-box""> <p class=""title-text"">X<p> </div> <div id=""b-box""> <p class=""title-text"">B</p></div> <br> <div style='float: left;padding-left:30px;'><p>Press '1' for A</p></div><div style='float: right;padding-right:30px;'><p>Press '0' for B</p> </div> </div></div>","null","","","","","","","","","","","","","","","",""
"3192","","test","audio-keyboard-response","186","1018467","0.0-8.0-1.71","600d3f429cf6444b766cde70","condE","","resources/audio/wordStim/S3_AU_19_axb_Step-2.wav","49","","","","","","resources/audio/wordStim/S3_AU_19_axb_Step-2.wav","S3","19","axb","2","MI","BL","S3-BL","0","1","false"
"null","","fixation","html-keyboard-response","187","1019470","0.0-8.0-0.72","600d3f429cf6444b766cde70","condE","","<div class=""vertical-center"" style='width:60%;'><p style='font-weight:bold;'>Does the middle word sound more like the first word (A) or the last word (B)?</p> <br> <div class=""container""> <div id=""a-box""> <p class=""title-text"">A</h3></p> </div> <div id=""x-box""> <p class=""title-text"">X<p> </div> <div id=""b-box""> <p class=""title-text"">B</p></div> <br> <div style='float: left;padding-left:30px;'><p>Press '1' for A</p></div><div style='float: right;padding-right:30px;'><p>Press '0' for B</p> </div> </div></div>","null","","","","","","","","","","","","","","","",""
"3619","","test","audio-keyboard-response","188","1023091","0.0-8.0-1.72","600d3f429cf6444b766cde70","condE","","resources/audio/wordStim/S3_AI_21_axb_Step-6.wav","48","","","","","","resources/audio/wordStim/S3_AI_21_axb_Step-6.wav","S3","21","axb","6","MI","BL","S3-BL","0","0","true"
"null","","fixation","html-keyboard-response","189","1024095","0.0-8.0-0.73","600d3f429cf6444b766cde70","condE","","<div class=""vertical-center"" style='width:60%;'><p style='font-weight:bold;'>Does the middle word sound more like the first word (A) or the last word (B)?</p> <br> <div class=""container""> <div id=""a-box""> <p class=""title-text"">A</h3></p> </div> <div id=""x-box""> <p class=""title-text"">X<p> </div> <div id=""b-box""> <p class=""title-text"">B</p></div> <br> <div style='float: left;padding-left:30px;'><p>Press '1' for A</p></div><div style='float: right;padding-right:30px;'><p>Press '0' for B</p> </div> </div></div>","null","","","","","","","","","","","","","","","",""
"2899","","test","audio-keyboard-response","190","1026994","0.0-8.0-1.73","600d3f429cf6444b766cde70","condE","","resources/audio/wordStim/S3_AI_21_bxa_Step-6.wav","48","","","","","","resources/audio/wordStim/S3_AI_21_bxa_Step-6.wav","S3","21","bxa","6","MI","BL","S3-BL","1","0","false"
"null","","fixation","html-keyboard-response","191","1027999","0.0-8.0-0.74","600d3f429cf6444b766cde70","condE","","<div class=""vertical-center"" style='width:60%;'><p style='font-weight:bold;'>Does the middle word sound more like the first word (A) or the last word (B)?</p> <br> <div class=""container""> <div id=""a-box""> <p class=""title-text"">A</h3></p> </div> <div id=""x-box""> <p class=""title-text"">X<p> </div> <div id=""b-box""> <p class=""title-text"">B</p></div> <br> <div style='float: left;padding-left:30px;'><p>Press '1' for A</p></div><div style='float: right;padding-right:30px;'><p>Press '0' for B</p> </div> </div></div>","null","","","","","","","","","","","","","","","",""
"3901","","test","audio-keyboard-response","192","1031900","0.0-8.0-1.74","600d3f429cf6444b766cde70","condE","","resources/audio/wordStim/S3_AU_18_bxa_Step-2.wav","49","","","","","","resources/audio/wordStim/S3_AU_18_bxa_Step-2.wav","S3","18","bxa","2","MI","BL","S3-BL","1","1","true"
"null","","fixation","html-keyboard-response","193","1032903","0.0-8.0-0.75","600d3f429cf6444b766cde70","condE","","<div class=""vertical-center"" style='width:60%;'><p style='font-weight:bold;'>Does the middle word sound more like the first word (A) or the last word (B)?</p> <br> <div class=""container""> <div id=""a-box""> <p class=""title-text"">A</h3></p> </div> <div id=""x-box""> <p class=""title-text"">X<p> </div> <div id=""b-box""> <p class=""title-text"">B</p></div> <br> <div style='float: left;padding-left:30px;'><p>Press '1' for A</p></div><div style='float: right;padding-right:30px;'><p>Press '0' for B</p> </div> </div></div>","null","","","","","","","","","","","","","","","",""
"3320","","test","audio-keyboard-response","194","1036227","0.0-8.0-1.75","600d3f429cf6444b766cde70","condE","","resources/audio/wordStim/S3_AI_30_bxa_Step-8.wav","48","","","","","","resources/audio/wordStim/S3_AI_30_bxa_Step-8.wav","S3","30","bxa","8","MI","BL","S3-BL","1","0","false"
"null","","fixation","html-keyboard-response","195","1037230","0.0-8.0-0.76","600d3f429cf6444b766cde70","condE","","<div class=""vertical-center"" style='width:60%;'><p style='font-weight:bold;'>Does the middle word sound more like the first word (A) or the last word (B)?</p> <br> <div class=""container""> <div id=""a-box""> <p class=""title-text"">A</h3></p> </div> <div id=""x-box""> <p class=""title-text"">X<p> </div> <div id=""b-box""> <p class=""title-text"">B</p></div> <br> <div style='float: left;padding-left:30px;'><p>Press '1' for A</p></div><div style='float: right;padding-right:30px;'><p>Press '0' for B</p> </div> </div></div>","null","","","","","","","","","","","","","","","",""
"3349","","test","audio-keyboard-response","196","1040575","0.0-8.0-1.76","600d3f429cf6444b766cde70","condE","","resources/audio/wordStim/S3_AU_19_axb_Step-6.wav","49","","","","","","resources/audio/wordStim/S3_AU_19_axb_Step-6.wav","S3","19","axb","6","MI","BL","S3-BL","0","1","false"
"null","","fixation","html-keyboard-response","197","1041575","0.0-8.0-0.77","600d3f429cf6444b766cde70","condE","","<div class=""vertical-center"" style='width:60%;'><p style='font-weight:bold;'>Does the middle word sound more like the first word (A) or the last word (B)?</p> <br> <div class=""container""> <div id=""a-box""> <p class=""title-text"">A</h3></p> </div> <div id=""x-box""> <p class=""title-text"">X<p> </div> <div id=""b-box""> <p class=""title-text"">B</p></div> <br> <div style='float: left;padding-left:30px;'><p>Press '1' for A</p></div><div style='float: right;padding-right:30px;'><p>Press '0' for B</p> </div> </div></div>","null","","","","","","","","","","","","","","","",""
"3480","","test","audio-keyboard-response","198","1045053","0.0-8.0-1.77","600d3f429cf6444b766cde70","condE","","resources/audio/wordStim/S3_AI_22_axb_Step-7.wav","48","","","","","","resources/audio/wordStim/S3_AI_22_axb_Step-7.wav","S3","22","axb","7","MI","BL","S3-BL","0","0","true"
"null","","fixation","html-keyboard-response","199","1046056","0.0-8.0-0.78","600d3f429cf6444b766cde70","condE","","<div class=""vertical-center"" style='width:60%;'><p style='font-weight:bold;'>Does the middle word sound more like the first word (A) or the last word (B)?</p> <br> <div class=""container""> <div id=""a-box""> <p class=""title-text"">A</h3></p> </div> <div id=""x-box""> <p class=""title-text"">X<p> </div> <div id=""b-box""> <p class=""title-text"">B</p></div> <br> <div style='float: left;padding-left:30px;'><p>Press '1' for A</p></div><div style='float: right;padding-right:30px;'><p>Press '0' for B</p> </div> </div></div>","null","","","","","","","","","","","","","","","",""
"4200","","test","audio-keyboard-response","200","1050261","0.0-8.0-1.78","600d3f429cf6444b766cde70","condE","","resources/audio/wordStim/S3_AU_18_bxa_Step-5.wav","49","","","","","","resources/audio/wordStim/S3_AU_18_bxa_Step-5.wav","S3","18","bxa","5","MI","BL","S3-BL","1","1","true"
"null","","fixation","html-keyboard-response","201","1051263","0.0-8.0-0.79","600d3f429cf6444b766cde70","condE","","<div class=""vertical-center"" style='width:60%;'><p style='font-weight:bold;'>Does the middle word sound more like the first word (A) or the last word (B)?</p> <br> <div class=""container""> <div id=""a-box""> <p class=""title-text"">A</h3></p> </div> <div id=""x-box""> <p class=""title-text"">X<p> </div> <div id=""b-box""> <p class=""title-text"">B</p></div> <br> <div style='float: left;padding-left:30px;'><p>Press '1' for A</p></div><div style='float: right;padding-right:30px;'><p>Press '0' for B</p> </div> </div></div>","null","","","","","","","","","","","","","","","",""
"3459","","test","audio-keyboard-response","202","1054724","0.0-8.0-1.79","600d3f429cf6444b766cde70","condE","","resources/audio/wordStim/S3_AI_30_axb_Step-5.wav","49","","","","","","resources/audio/wordStim/S3_AI_30_axb_Step-5.wav","S3","30","axb","5","MI","BL","S3-BL","0","1","false"
"null","","fixation","html-keyboard-response","203","1055727","0.0-8.0-0.80","600d3f429cf6444b766cde70","condE","","<div class=""vertical-center"" style='width:60%;'><p style='font-weight:bold;'>Does the middle word sound more like the first word (A) or the last word (B)?</p> <br> <div class=""container""> <div id=""a-box""> <p class=""title-text"">A</h3></p> </div> <div id=""x-box""> <p class=""title-text"">X<p> </div> <div id=""b-box""> <p class=""title-text"">B</p></div> <br> <div style='float: left;padding-left:30px;'><p>Press '1' for A</p></div><div style='float: right;padding-right:30px;'><p>Press '0' for B</p> </div> </div></div>","null","","","","","","","","","","","","","","","",""
"4040","","test","audio-keyboard-response","204","1059768","0.0-8.0-1.80","600d3f429cf6444b766cde70","condE","","resources/audio/wordStim/S3_AU_18_axb_Step-4.wav","48","","","","","","resources/audio/wordStim/S3_AU_18_axb_Step-4.wav","S3","18","axb","4","MI","BL","S3-BL","0","0","true"
"null","","fixation","html-keyboard-response","205","1060770","0.0-8.0-0.81","600d3f429cf6444b766cde70","condE","","<div class=""vertical-center"" style='width:60%;'><p style='font-weight:bold;'>Does the middle word sound more like the first word (A) or the last word (B)?</p> <br> <div class=""container""> <div id=""a-box""> <p class=""title-text"">A</h3></p> </div> <div id=""x-box""> <p class=""title-text"">X<p> </div> <div id=""b-box""> <p class=""title-text"">B</p></div> <br> <div style='float: left;padding-left:30px;'><p>Press '1' for A</p></div><div style='float: right;padding-right:30px;'><p>Press '0' for B</p> </div> </div></div>","null","","","","","","","","","","","","","","","",""
"3469","","test","audio-keyboard-response","206","1064235","0.0-8.0-1.81","600d3f429cf6444b766cde70","condE","","resources/audio/wordStim/S3_AI_30_axb_Step-6.wav","49","","","","","","resources/audio/wordStim/S3_AI_30_axb_Step-6.wav","S3","30","axb","6","MI","BL","S3-BL","0","1","false"
"null","","fixation","html-keyboard-response","207","1065236","0.0-8.0-0.82","600d3f429cf6444b766cde70","condE","","<div class=""vertical-center"" style='width:60%;'><p style='font-weight:bold;'>Does the middle word sound more like the first word (A) or the last word (B)?</p> <br> <div class=""container""> <div id=""a-box""> <p class=""title-text"">A</h3></p> </div> <div id=""x-box""> <p class=""title-text"">X<p> </div> <div id=""b-box""> <p class=""title-text"">B</p></div> <br> <div style='float: left;padding-left:30px;'><p>Press '1' for A</p></div><div style='float: right;padding-right:30px;'><p>Press '0' for B</p> </div> </div></div>","null","","","","","","","","","","","","","","","",""
"3661","","test","audio-keyboard-response","208","1068893","0.0-8.0-1.82","600d3f429cf6444b766cde70","condE","","resources/audio/wordStim/S3_AI_22_axb_Step-6.wav","49","","","","","","resources/audio/wordStim/S3_AI_22_axb_Step-6.wav","S3","22","axb","6","MI","BL","S3-BL","0","1","false"
"null","","fixation","html-keyboard-response","209","1069896","0.0-8.0-0.83","600d3f429cf6444b766cde70","condE","","<div class=""vertical-center"" style='width:60%;'><p style='font-weight:bold;'>Does the middle word sound more like the first word (A) or the last word (B)?</p> <br> <div class=""container""> <div id=""a-box""> <p class=""title-text"">A</h3></p> </div> <div id=""x-box""> <p class=""title-text"">X<p> </div> <div id=""b-box""> <p class=""title-text"">B</p></div> <br> <div style='float: left;padding-left:30px;'><p>Press '1' for A</p></div><div style='float: right;padding-right:30px;'><p>Press '0' for B</p> </div> </div></div>","null","","","","","","","","","","","","","","","",""
"4299","","test","audio-keyboard-response","210","1074197","0.0-8.0-1.83","600d3f429cf6444b766cde70","condE","","resources/audio/wordStim/S3_AU_18_axb_Step-2.wav","48","","","","","","resources/audio/wordStim/S3_AU_18_axb_Step-2.wav","S3","18","axb","2","MI","BL","S3-BL","0","0","true"
"1357.7299999888055","","break","html-keyboard-response","211","1076065","0.0-9.0","600d3f429cf6444b766cde70","condE","","<div class=""vertical-center""><p>You're halfway through the experiment! Feel free to take a break before moving on.</p><i>When you're ready to continue, press SPACE.</i></p></div>","32","","","","","","","","","","","","","","","",""
"null","","fixation","html-keyboard-response","212","1076566","0.0-10.0-0.0","600d3f429cf6444b766cde70","condE","","<div class=""vertical-center"" style='width:60%;'><p style='font-weight:bold;'>Does the middle word sound more like the first word (A) or the last word (B)?</p> <br> <div class=""container""> <div id=""a-box""> <p class=""title-text"">A</h3></p> </div> <div id=""x-box""> <p class=""title-text"">X<p> </div> <div id=""b-box""> <p class=""title-text"">B</p></div> <br> <div style='float: left;padding-left:30px;'><p>Press '1' for A</p></div><div style='float: right;padding-right:30px;'><p>Press '0' for B</p> </div> </div></div>","null","","","","","","","","","","","","","","","",""
"3589","","test","audio-keyboard-response","213","1080153","0.0-10.0-1.0","600d3f429cf6444b766cde70","condE","","resources/audio/wordStim/S3_AU_19_bxa_Step-6.wav","49","","","","","","resources/audio/wordStim/S3_AU_19_bxa_Step-6.wav","S3","19","bxa","6","MI","BL","S3-BL","1","1","true"
"null","","fixation","html-keyboard-response","214","1081157","0.0-10.0-0.1","600d3f429cf6444b766cde70","condE","","<div class=""vertical-center"" style='width:60%;'><p style='font-weight:bold;'>Does the middle word sound more like the first word (A) or the last word (B)?</p> <br> <div class=""container""> <div id=""a-box""> <p class=""title-text"">A</h3></p> </div> <div id=""x-box""> <p class=""title-text"">X<p> </div> <div id=""b-box""> <p class=""title-text"">B</p></div> <br> <div style='float: left;padding-left:30px;'><p>Press '1' for A</p></div><div style='float: right;padding-right:30px;'><p>Press '0' for B</p> </div> </div></div>","null","","","","","","","","","","","","","","","",""
"3891","","test","audio-keyboard-response","215","1085044","0.0-10.0-1.1","600d3f429cf6444b766cde70","condE","","resources/audio/wordStim/S3_AI_22_axb_Step-8.wav","49","","","","","","resources/audio/wordStim/S3_AI_22_axb_Step-8.wav","S3","22","axb","8","MI","BL","S3-BL","0","1","false"
"null","","fixation","html-keyboard-response","216","1086047","0.0-10.0-0.2","600d3f429cf6444b766cde70","condE","","<div class=""vertical-center"" style='width:60%;'><p style='font-weight:bold;'>Does the middle word sound more like the first word (A) or the last word (B)?</p> <br> <div class=""container""> <div id=""a-box""> <p class=""title-text"">A</h3></p> </div> <div id=""x-box""> <p class=""title-text"">X<p> </div> <div id=""b-box""> <p class=""title-text"">B</p></div> <br> <div style='float: left;padding-left:30px;'><p>Press '1' for A</p></div><div style='float: right;padding-right:30px;'><p>Press '0' for B</p> </div> </div></div>","null","","","","","","","","","","","","","","","",""
"4600","","test","audio-keyboard-response","217","1090646","0.0-10.0-1.2","600d3f429cf6444b766cde70","condE","","resources/audio/wordStim/S3_AI_22_bxa_Step-3.wav","49","","","","","","resources/audio/wordStim/S3_AI_22_bxa_Step-3.wav","S3","22","bxa","3","MI","BL","S3-BL","1","1","true"
