"rt","url","trial_role","trial_type","trial_index","time_elapsed","internal_node_id","participantId","conditionId","view_history","stimulus","key_press","button_pressed","correct_answer","correct_response","success","vowel","wordStim","speaker","sentNum","order","step","speakerIdentity","speakerGuise","guiseName","raised_answer","key_response","raised_response"
"27257.494999998016","micr.axb.consent.html","consent","external-html","0","27283","0.0-0.0","5ce8a739759924000103cd64","condE","","","","","","","","","","","","","","","","","","",""
"53262.295000007725","","instructions","instructions","1","80548","0.0-1.0","5ce8a739759924000103cd64","condE","[{""page_index"":0,""viewing_time"":25618.765000006533},{""page_index"":1,""viewing_time"":12141.120000000228},{""page_index"":2,""viewing_time"":15501.759999999194}]","","","","","","","","","","","","","","","","","",""
"null","","fixation","html-keyboard-response","2","81049","0.0-2.0-0.0","5ce8a739759924000103cd64","condE","","<div class=""vertical-center"" style=""font-size:60px;"">+</div>","null","","","","","","","","","","","","","","","",""
"4666.055000008782","","tonetest","audio-button-response","3","85717","0.0-2.0-1.0","5ce8a739759924000103cd64","condE","","../../src/audio/toneTest_1.wav","","2","2","true","","","","","","","","","","","","",""
"null","","fixation","html-keyboard-response","4","86218","0.0-2.0-0.1","5ce8a739759924000103cd64","condE","","<div class=""vertical-center"" style=""font-size:60px;"">+</div>","null","","","","","","","","","","","","","","","",""
"4821.4849999931175","","tonetest","audio-button-response","5","91041","0.0-2.0-1.1","5ce8a739759924000103cd64","condE","","../../src/audio/toneTest_1.wav","","2","2","true","","","","","","","","","","","","",""
"null","","fixation","html-keyboard-response","6","91542","0.0-2.0-0.2","5ce8a739759924000103cd64","condE","","<div class=""vertical-center"" style=""font-size:60px;"">+</div>","null","","","","","","","","","","","","","","","",""
"4345.545000003767","","tonetest","audio-button-response","7","95889","0.0-2.0-1.2","5ce8a739759924000103cd64","condE","","../../src/audio/toneTest_1.wav","","2","2","true","","","","","","","","","","","","",""
"null","","fixation","html-keyboard-response","8","96391","0.0-2.0-0.3","5ce8a739759924000103cd64","condE","","<div class=""vertical-center"" style=""font-size:60px;"">+</div>","null","","","","","","","","","","","","","","","",""
"4556.709999989835","","tonetest","audio-button-response","9","100948","0.0-2.0-1.3","5ce8a739759924000103cd64","condE","","../../src/audio/toneTest_5.wav","","0","0","true","","","","","","","","","","","","",""
"null","","fixation","html-keyboard-response","10","101453","0.0-2.0-0.4","5ce8a739759924000103cd64","condE","","<div class=""vertical-center"" style=""font-size:60px;"">+</div>","null","","","","","","","","","","","","","","","",""
"4567.949999996927","","tonetest","audio-button-response","11","106022","0.0-2.0-1.4","5ce8a739759924000103cd64","condE","","../../src/audio/toneTest_6.wav","","0","0","true","","","","","","","","","","","","",""
"null","","fixation","html-keyboard-response","12","106523","0.0-2.0-0.5","5ce8a739759924000103cd64","condE","","<div class=""vertical-center"" style=""font-size:60px;"">+</div>","null","","","","","","","","","","","","","","","",""
"4524.374999993597","","tonetest","audio-button-response","13","111048","0.0-2.0-1.5","5ce8a739759924000103cd64","condE","","../../src/audio/toneTest_2.wav","","1","1","true","","","","","","","","","","","","",""
"6643.450000003213","","instructions","html-keyboard-response","14","117693","0.0-3.0","5ce8a739759924000103cd64","condE","","<div class=""vertical-center""><p><b>Your score was 6/6.</b></p><p>If you scored below 6, please ensure that you are wearing properly functioning headphones and in a quiet location free of distractions.</p><p><i>To continue to the main experiment, press SPACE.</i></p></div>","32","","","","","","","","","","","","","","","",""
"","","","fullscreen","15","121531","0.0-4.0","5ce8a739759924000103cd64","condE","","","","","","","true","","","","","","","","","","","",""
"35807.94500000775","","instructions","instructions","16","157340","0.0-5.0","5ce8a739759924000103cd64","condE","[{""page_index"":0,""viewing_time"":35807.8300000052}]","","","","","","","","","","","","","","","","","",""
"null","","fixation","html-keyboard-response","17","157842","0.0-6.0-0.0","5ce8a739759924000103cd64","condE","","<div class=""vertical-center"" style='width:60%;'><p style='font-weight:bold;'>Does the middle word sound more like the first word (A) or the last word (B)?</p> <br> <div class=""container""> <div id=""a-box""> <p class=""title-text"">A</h3></p> </div> <div id=""x-box""> <p class=""title-text"">X<p> </div> <div id=""b-box""> <p class=""title-text"">B</p></div> <br> <div style='float: left;padding-left:30px;'><p>Press '1' for A</p></div><div style='float: right;padding-right:30px;'><p>Press '0' for B</p> </div> </div></div>","null","","","","","","","","","","","","","","","",""
"10139","","practice","audio-keyboard-response","18","167996","0.0-6.0-1.0","5ce8a739759924000103cd64","condE","","resources/audio/practiceStim/S1_AU_14_bxa_Step-6.wav","49","","","","","","","","","","","","","","","",""
"null","","fixation","html-keyboard-response","19","168998","0.0-6.0-0.1","5ce8a739759924000103cd64","condE","","<div class=""vertical-center"" style='width:60%;'><p style='font-weight:bold;'>Does the middle word sound more like the first word (A) or the last word (B)?</p> <br> <div class=""container""> <div id=""a-box""> <p class=""title-text"">A</h3></p> </div> <div id=""x-box""> <p class=""title-text"">X<p> </div> <div id=""b-box""> <p class=""title-text"">B</p></div> <br> <div style='float: left;padding-left:30px;'><p>Press '1' for A</p></div><div style='float: right;padding-right:30px;'><p>Press '0' for B</p> </div> </div></div>","null","","","","","","","","","","","","","","","",""
"6011","","practice","audio-keyboard-response","20","175003","0.0-6.0-1.1","5ce8a739759924000103cd64","condE","","resources/audio/practiceStim/S1_AU_14_axb_Step-6.wav","48","","","","","","","","","","","","","","","",""
"null","","fixation","html-keyboard-response","21","176014","0.0-6.0-0.2","5ce8a739759924000103cd64","condE","","<div class=""vertical-center"" style='width:60%;'><p style='font-weight:bold;'>Does the middle word sound more like the first word (A) or the last word (B)?</p> <br> <div class=""container""> <div id=""a-box""> <p class=""title-text"">A</h3></p> </div> <div id=""x-box""> <p class=""title-text"">X<p> </div> <div id=""b-box""> <p class=""title-text"">B</p></div> <br> <div style='float: left;padding-left:30px;'><p>Press '1' for A</p></div><div style='float: right;padding-right:30px;'><p>Press '0' for B</p> </div> </div></div>","null","","","","","","","","","","","","","","","",""
"5611","","practice","audio-keyboard-response","22","181627","0.0-6.0-1.2","5ce8a739759924000103cd64","condE","","resources/audio/practiceStim/S1_AI_21_bxa_Step-6.wav","48","","","","","","","","","","","","","","","",""
"null","","fixation","html-keyboard-response","23","182646","0.0-6.0-0.3","5ce8a739759924000103cd64","condE","","<div class=""vertical-center"" style='width:60%;'><p style='font-weight:bold;'>Does the middle word sound more like the first word (A) or the last word (B)?</p> <br> <div class=""container""> <div id=""a-box""> <p class=""title-text"">A</h3></p> </div> <div id=""x-box""> <p class=""title-text"">X<p> </div> <div id=""b-box""> <p class=""title-text"">B</p></div> <br> <div style='float: left;padding-left:30px;'><p>Press '1' for A</p></div><div style='float: right;padding-right:30px;'><p>Press '0' for B</p> </div> </div></div>","null","","","","","","","","","","","","","","","",""
"4731","","practice","audio-keyboard-response","24","187371","0.0-6.0-1.3","5ce8a739759924000103cd64","condE","","resources/audio/practiceStim/S1_AI_21_axb_Step-6.wav","49","","","","","","","","","","","","","","","",""
"12394.009999989066","","instructions","instructions","25","200266","0.0-7.0","5ce8a739759924000103cd64","condE","[{""page_index"":0,""viewing_time"":12393.914999993285}]","","","","","","","","","","","","","","","","","",""
"4199.444999991101","","","html-keyboard-response","26","204466","0.0-8.0","5ce8a739759924000103cd64","condE","","<div class=""vertical-center""><img src=""resources/images/BL_face_a.png"" style=""width:450px;height:300px;""><p>This is the speaker you're about to hear.</p><p> <br> <i>Press SPACE to continue.</i></p></div>","32","","","","","","","","","","","","","","","",""
"null","","fixation","html-keyboard-response","27","204968","0.0-9.0-0.0","5ce8a739759924000103cd64","condE","","<div class=""vertical-center"" style='width:60%;'><p style='font-weight:bold;'>Does the middle word sound more like the first word (A) or the last word (B)?</p> <br> <div class=""container""> <div id=""a-box""> <p class=""title-text"">A</h3></p> </div> <div id=""x-box""> <p class=""title-text"">X<p> </div> <div id=""b-box""> <p class=""title-text"">B</p></div> <br> <div style='float: left;padding-left:30px;'><p>Press '1' for A</p></div><div style='float: right;padding-right:30px;'><p>Press '0' for B</p> </div> </div></div>","null","","","","","","","","","","","","","","","",""
"4731","","test","audio-keyboard-response","28","209690","0.0-9.0-1.0","5ce8a739759924000103cd64","condE","","resources/audio/wordStim/S3_AU_19_bxa_Step-7.wav","49","","","","","","resources/audio/wordStim/S3_AU_19_bxa_Step-7.wav","S3","19","bxa","7","MI","BL","S3-BL","1","1","true"
"null","","fixation","html-keyboard-response","29","210712","0.0-9.0-0.1","5ce8a739759924000103cd64","condE","","<div class=""vertical-center"" style='width:60%;'><p style='font-weight:bold;'>Does the middle word sound more like the first word (A) or the last word (B)?</p> <br> <div class=""container""> <div id=""a-box""> <p class=""title-text"">A</h3></p> </div> <div id=""x-box""> <p class=""title-text"">X<p> </div> <div id=""b-box""> <p class=""title-text"">B</p></div> <br> <div style='float: left;padding-left:30px;'><p>Press '1' for A</p></div><div style='float: right;padding-right:30px;'><p>Press '0' for B</p> </div> </div></div>","null","","","","","","","","","","","","","","","",""
"4312","","test","audio-keyboard-response","30","215026","0.0-9.0-1.1","5ce8a739759924000103cd64","condE","","resources/audio/wordStim/S3_AI_30_axb_Step-2.wav","49","","","","","","resources/audio/wordStim/S3_AI_30_axb_Step-2.wav","S3","30","axb","2","MI","BL","S3-BL","0","1","false"
"null","","fixation","html-keyboard-response","31","216048","0.0-9.0-0.2","5ce8a739759924000103cd64","condE","","<div class=""vertical-center"" style='width:60%;'><p style='font-weight:bold;'>Does the middle word sound more like the first word (A) or the last word (B)?</p> <br> <div class=""container""> <div id=""a-box""> <p class=""title-text"">A</h3></p> </div> <div id=""x-box""> <p class=""title-text"">X<p> </div> <div id=""b-box""> <p class=""title-text"">B</p></div> <br> <div style='float: left;padding-left:30px;'><p>Press '1' for A</p></div><div style='float: right;padding-right:30px;'><p>Press '0' for B</p> </div> </div></div>","null","","","","","","","","","","","","","","","",""
"3309","","test","audio-keyboard-response","32","219354","0.0-9.0-1.2","5ce8a739759924000103cd64","condE","","resources/audio/wordStim/S3_AI_21_bxa_Step-7.wav","49","","","","","","resources/audio/wordStim/S3_AI_21_bxa_Step-7.wav","S3","21","bxa","7","MI","BL","S3-BL","1","1","true"
"null","","fixation","html-keyboard-response","33","220367","0.0-9.0-0.3","5ce8a739759924000103cd64","condE","","<div class=""vertical-center"" style='width:60%;'><p style='font-weight:bold;'>Does the middle word sound more like the first word (A) or the last word (B)?</p> <br> <div class=""container""> <div id=""a-box""> <p class=""title-text"">A</h3></p> </div> <div id=""x-box""> <p class=""title-text"">X<p> </div> <div id=""b-box""> <p class=""title-text"">B</p></div> <br> <div style='float: left;padding-left:30px;'><p>Press '1' for A</p></div><div style='float: right;padding-right:30px;'><p>Press '0' for B</p> </div> </div></div>","null","","","","","","","","","","","","","","","",""
"4811","","test","audio-keyboard-response","34","225170","0.0-9.0-1.3","5ce8a739759924000103cd64","condE","","resources/audio/wordStim/S3_AI_30_bxa_Step-4.wav","49","","","","","","resources/audio/wordStim/S3_AI_30_bxa_Step-4.wav","S3","30","bxa","4","MI","BL","S3-BL","1","1","true"
"null","","fixation","html-keyboard-response","35","226178","0.0-9.0-0.4","5ce8a739759924000103cd64","condE","","<div class=""vertical-center"" style='width:60%;'><p style='font-weight:bold;'>Does the middle word sound more like the first word (A) or the last word (B)?</p> <br> <div class=""container""> <div id=""a-box""> <p class=""title-text"">A</h3></p> </div> <div id=""x-box""> <p class=""title-text"">X<p> </div> <div id=""b-box""> <p class=""title-text"">B</p></div> <br> <div style='float: left;padding-left:30px;'><p>Press '1' for A</p></div><div style='float: right;padding-right:30px;'><p>Press '0' for B</p> </div> </div></div>","null","","","","","","","","","","","","","","","",""
"4451","","test","audio-keyboard-response","36","230626","0.0-9.0-1.4","5ce8a739759924000103cd64","condE","","resources/audio/wordStim/S3_AI_30_axb_Step-4.wav","49","","","","","","resources/audio/wordStim/S3_AI_30_axb_Step-4.wav","S3","30","axb","4","MI","BL","S3-BL","0","1","false"
"null","","fixation","html-keyboard-response","37","231644","0.0-9.0-0.5","5ce8a739759924000103cd64","condE","","<div class=""vertical-center"" style='width:60%;'><p style='font-weight:bold;'>Does the middle word sound more like the first word (A) or the last word (B)?</p> <br> <div class=""container""> <div id=""a-box""> <p class=""title-text"">A</h3></p> </div> <div id=""x-box""> <p class=""title-text"">X<p> </div> <div id=""b-box""> <p class=""title-text"">B</p></div> <br> <div style='float: left;padding-left:30px;'><p>Press '1' for A</p></div><div style='float: right;padding-right:30px;'><p>Press '0' for B</p> </div> </div></div>","null","","","","","","","","","","","","","","","",""
"3549","","test","audio-keyboard-response","38","235194","0.0-9.0-1.5","5ce8a739759924000103cd64","condE","","resources/audio/wordStim/S3_AI_21_bxa_Step-5.wav","49","","","","","","resources/audio/wordStim/S3_AI_21_bxa_Step-5.wav","S3","21","bxa","5","MI","BL","S3-BL","1","1","true"
"null","","fixation","html-keyboard-response","39","236219","0.0-9.0-0.6","5ce8a739759924000103cd64","condE","","<div class=""vertical-center"" style='width:60%;'><p style='font-weight:bold;'>Does the middle word sound more like the first word (A) or the last word (B)?</p> <br> <div class=""container""> <div id=""a-box""> <p class=""title-text"">A</h3></p> </div> <div id=""x-box""> <p class=""title-text"">X<p> </div> <div id=""b-box""> <p class=""title-text"">B</p></div> <br> <div style='float: left;padding-left:30px;'><p>Press '1' for A</p></div><div style='float: right;padding-right:30px;'><p>Press '0' for B</p> </div> </div></div>","null","","","","","","","","","","","","","","","",""
"4600","","test","audio-keyboard-response","40","240826","0.0-9.0-1.6","5ce8a739759924000103cd64","condE","","resources/audio/wordStim/S3_AU_18_axb_Step-3.wav","49","","","","","","resources/audio/wordStim/S3_AU_18_axb_Step-3.wav","S3","18","axb","3","MI","BL","S3-BL","0","1","false"
"null","","fixation","html-keyboard-response","41","241846","0.0-9.0-0.7","5ce8a739759924000103cd64","condE","","<div class=""vertical-center"" style='width:60%;'><p style='font-weight:bold;'>Does the middle word sound more like the first word (A) or the last word (B)?</p> <br> <div class=""container""> <div id=""a-box""> <p class=""title-text"">A</h3></p> </div> <div id=""x-box""> <p class=""title-text"">X<p> </div> <div id=""b-box""> <p class=""title-text"">B</p></div> <br> <div style='float: left;padding-left:30px;'><p>Press '1' for A</p></div><div style='float: right;padding-right:30px;'><p>Press '0' for B</p> </div> </div></div>","null","","","","","","","","","","","","","","","",""
"2891","","test","audio-keyboard-response","42","244738","0.0-9.0-1.7","5ce8a739759924000103cd64","condE","","resources/audio/wordStim/S3_AI_21_bxa_Step-8.wav","49","","","","","","resources/audio/wordStim/S3_AI_21_bxa_Step-8.wav","S3","21","bxa","8","MI","BL","S3-BL","1","1","true"
"null","","fixation","html-keyboard-response","43","245763","0.0-9.0-0.8","5ce8a739759924000103cd64","condE","","<div class=""vertical-center"" style='width:60%;'><p style='font-weight:bold;'>Does the middle word sound more like the first word (A) or the last word (B)?</p> <br> <div class=""container""> <div id=""a-box""> <p class=""title-text"">A</h3></p> </div> <div id=""x-box""> <p class=""title-text"">X<p> </div> <div id=""b-box""> <p class=""title-text"">B</p></div> <br> <div style='float: left;padding-left:30px;'><p>Press '1' for A</p></div><div style='float: right;padding-right:30px;'><p>Press '0' for B</p> </div> </div></div>","null","","","","","","","","","","","","","","","",""
"3509","","test","audio-keyboard-response","44","249274","0.0-9.0-1.8","5ce8a739759924000103cd64","condE","","resources/audio/wordStim/S3_AU_20_axb_Step-5.wav","49","","","","","","resources/audio/wordStim/S3_AU_20_axb_Step-5.wav","S3","20","axb","5","MI","BL","S3-BL","0","1","false"
"null","","fixation","html-keyboard-response","45","250301","0.0-9.0-0.9","5ce8a739759924000103cd64","condE","","<div class=""vertical-center"" style='width:60%;'><p style='font-weight:bold;'>Does the middle word sound more like the first word (A) or the last word (B)?</p> <br> <div class=""container""> <div id=""a-box""> <p class=""title-text"">A</h3></p> </div> <div id=""x-box""> <p class=""title-text"">X<p> </div> <div id=""b-box""> <p class=""title-text"">B</p></div> <br> <div style='float: left;padding-left:30px;'><p>Press '1' for A</p></div><div style='float: right;padding-right:30px;'><p>Press '0' for B</p> </div> </div></div>","null","","","","","","","","","","","","","","","",""
"3189","","test","audio-keyboard-response","46","253498","0.0-9.0-1.9","5ce8a739759924000103cd64","condE","","resources/audio/wordStim/S3_AU_19_bxa_Step-6.wav","49","","","","","","resources/audio/wordStim/S3_AU_19_bxa_Step-6.wav","S3","19","bxa","6","MI","BL","S3-BL","1","1","true"
"null","","fixation","html-keyboard-response","47","254507","0.0-9.0-0.10","5ce8a739759924000103cd64","condE","","<div class=""vertical-center"" style='width:60%;'><p style='font-weight:bold;'>Does the middle word sound more like the first word (A) or the last word (B)?</p> <br> <div class=""container""> <div id=""a-box""> <p class=""title-text"">A</h3></p> </div> <div id=""x-box""> <p class=""title-text"">X<p> </div> <div id=""b-box""> <p class=""title-text"">B</p></div> <br> <div style='float: left;padding-left:30px;'><p>Press '1' for A</p></div><div style='float: right;padding-right:30px;'><p>Press '0' for B</p> </div> </div></div>","null","","","","","","","","","","","","","","","",""
"3488","","test","audio-keyboard-response","48","257993","0.0-9.0-1.10","5ce8a739759924000103cd64","condE","","resources/audio/wordStim/S3_AU_20_bxa_Step-8.wav","49","","","","","","resources/audio/wordStim/S3_AU_20_bxa_Step-8.wav","S3","20","bxa","8","MI","BL","S3-BL","1","1","true"
"null","","fixation","html-keyboard-response","49","258998","0.0-9.0-0.11","5ce8a739759924000103cd64","condE","","<div class=""vertical-center"" style='width:60%;'><p style='font-weight:bold;'>Does the middle word sound more like the first word (A) or the last word (B)?</p> <br> <div class=""container""> <div id=""a-box""> <p class=""title-text"">A</h3></p> </div> <div id=""x-box""> <p class=""title-text"">X<p> </div> <div id=""b-box""> <p class=""title-text"">B</p></div> <br> <div style='float: left;padding-left:30px;'><p>Press '1' for A</p></div><div style='float: right;padding-right:30px;'><p>Press '0' for B</p> </div> </div></div>","null","","","","","","","","","","","","","","","",""
"9661","","test","audio-keyboard-response","50","268657","0.0-9.0-1.11","5ce8a739759924000103cd64","condE","","resources/audio/wordStim/S3_AI_30_bxa_Step-7.wav","48","","","","","","resources/audio/wordStim/S3_AI_30_bxa_Step-7.wav","S3","30","bxa","7","MI","BL","S3-BL","1","0","false"
"null","","fixation","html-keyboard-response","51","269666","0.0-9.0-0.12","5ce8a739759924000103cd64","condE","","<div class=""vertical-center"" style='width:60%;'><p style='font-weight:bold;'>Does the middle word sound more like the first word (A) or the last word (B)?</p> <br> <div class=""container""> <div id=""a-box""> <p class=""title-text"">A</h3></p> </div> <div id=""x-box""> <p class=""title-text"">X<p> </div> <div id=""b-box""> <p class=""title-text"">B</p></div> <br> <div style='float: left;padding-left:30px;'><p>Press '1' for A</p></div><div style='float: right;padding-right:30px;'><p>Press '0' for B</p> </div> </div></div>","null","","","","","","","","","","","","","","","",""
"5229","","test","audio-keyboard-response","52","274897","0.0-9.0-1.12","5ce8a739759924000103cd64","condE","","resources/audio/wordStim/S3_AU_18_bxa_Step-5.wav","49","","","","","","resources/audio/wordStim/S3_AU_18_bxa_Step-5.wav","S3","18","bxa","5","MI","BL","S3-BL","1","1","true"
"null","","fixation","html-keyboard-response","53","275914","0.0-9.0-0.13","5ce8a739759924000103cd64","condE","","<div class=""vertical-center"" style='width:60%;'><p style='font-weight:bold;'>Does the middle word sound more like the first word (A) or the last word (B)?</p> <br> <div class=""container""> <div id=""a-box""> <p class=""title-text"">A</h3></p> </div> <div id=""x-box""> <p class=""title-text"">X<p> </div> <div id=""b-box""> <p class=""title-text"">B</p></div> <br> <div style='float: left;padding-left:30px;'><p>Press '1' for A</p></div><div style='float: right;padding-right:30px;'><p>Press '0' for B</p> </div> </div></div>","null","","","","","","","","","","","","","","","",""
"5632","","test","audio-keyboard-response","54","281545","0.0-9.0-1.13","5ce8a739759924000103cd64","condE","","resources/audio/wordStim/S3_AU_18_axb_Step-7.wav","48","","","","","","resources/audio/wordStim/S3_AU_18_axb_Step-7.wav","S3","18","axb","7","MI","BL","S3-BL","0","0","true"
"null","","fixation","html-keyboard-response","55","282562","0.0-9.0-0.14","5ce8a739759924000103cd64","condE","","<div class=""vertical-center"" style='width:60%;'><p style='font-weight:bold;'>Does the middle word sound more like the first word (A) or the last word (B)?</p> <br> <div class=""container""> <div id=""a-box""> <p class=""title-text"">A</h3></p> </div> <div id=""x-box""> <p class=""title-text"">X<p> </div> <div id=""b-box""> <p class=""title-text"">B</p></div> <br> <div style='float: left;padding-left:30px;'><p>Press '1' for A</p></div><div style='float: right;padding-right:30px;'><p>Press '0' for B</p> </div> </div></div>","null","","","","","","","","","","","","","","","",""
"4640","","test","audio-keyboard-response","56","287208","0.0-9.0-1.14","5ce8a739759924000103cd64","condE","","resources/audio/wordStim/S3_AU_20_axb_Step-3.wav","49","","","","","","resources/audio/wordStim/S3_AU_20_axb_Step-3.wav","S3","20","axb","3","MI","BL","S3-BL","0","1","false"
"null","","fixation","html-keyboard-response","57","288223","0.0-9.0-0.15","5ce8a739759924000103cd64","condE","","<div class=""vertical-center"" style='width:60%;'><p style='font-weight:bold;'>Does the middle word sound more like the first word (A) or the last word (B)?</p> <br> <div class=""container""> <div id=""a-box""> <p class=""title-text"">A</h3></p> </div> <div id=""x-box""> <p class=""title-text"">X<p> </div> <div id=""b-box""> <p class=""title-text"">B</p></div> <br> <div style='float: left;padding-left:30px;'><p>Press '1' for A</p></div><div style='float: right;padding-right:30px;'><p>Press '0' for B</p> </div> </div></div>","null","","","","","","","","","","","","","","","",""
"3360","","test","audio-keyboard-response","58","291585","0.0-9.0-1.15","5ce8a739759924000103cd64","condE","","resources/audio/wordStim/S3_AU_19_bxa_Step-5.wav","49","","","","","","resources/audio/wordStim/S3_AU_19_bxa_Step-5.wav","S3","19","bxa","5","MI","BL","S3-BL","1","1","true"
"null","","fixation","html-keyboard-response","59","292602","0.0-9.0-0.16","5ce8a739759924000103cd64","condE","","<div class=""vertical-center"" style='width:60%;'><p style='font-weight:bold;'>Does the middle word sound more like the first word (A) or the last word (B)?</p> <br> <div class=""container""> <div id=""a-box""> <p class=""title-text"">A</h3></p> </div> <div id=""x-box""> <p class=""title-text"">X<p> </div> <div id=""b-box""> <p class=""title-text"">B</p></div> <br> <div style='float: left;padding-left:30px;'><p>Press '1' for A</p></div><div style='float: right;padding-right:30px;'><p>Press '0' for B</p> </div> </div></div>","null","","","","","","","","","","","","","","","",""
"5520","","test","audio-keyboard-response","60","298121","0.0-9.0-1.16","5ce8a739759924000103cd64","condE","","resources/audio/wordStim/S3_AI_22_axb_Step-4.wav","49","","","","","","resources/audio/wordStim/S3_AI_22_axb_Step-4.wav","S3","22","axb","4","MI","BL","S3-BL","0","1","false"
"null","","fixation","html-keyboard-response","61","299124","0.0-9.0-0.17","5ce8a739759924000103cd64","condE","","<div class=""vertical-center"" style='width:60%;'><p style='font-weight:bold;'>Does the middle word sound more like the first word (A) or the last word (B)?</p> <br> <div class=""container""> <div id=""a-box""> <p class=""title-text"">A</h3></p> </div> <div id=""x-box""> <p class=""title-text"">X<p> </div> <div id=""b-box""> <p class=""title-text"">B</p></div> <br> <div style='float: left;padding-left:30px;'><p>Press '1' for A</p></div><div style='float: right;padding-right:30px;'><p>Press '0' for B</p> </div> </div></div>","null","","","","","","","","","","","","","","","",""
"3531","","test","audio-keyboard-response","62","302655","0.0-9.0-1.17","5ce8a739759924000103cd64","condE","","resources/audio/wordStim/S3_AI_30_axb_Step-5.wav","49","","","","","","resources/audio/wordStim/S3_AI_30_axb_Step-5.wav","S3","30","axb","5","MI","BL","S3-BL","0","1","false"
"null","","fixation","html-keyboard-response","63","303671","0.0-9.0-0.18","5ce8a739759924000103cd64","condE","","<div class=""vertical-center"" style='width:60%;'><p style='font-weight:bold;'>Does the middle word sound more like the first word (A) or the last word (B)?</p> <br> <div class=""container""> <div id=""a-box""> <p class=""title-text"">A</h3></p> </div> <div id=""x-box""> <p class=""title-text"">X<p> </div> <div id=""b-box""> <p class=""title-text"">B</p></div> <br> <div style='float: left;padding-left:30px;'><p>Press '1' for A</p></div><div style='float: right;padding-right:30px;'><p>Press '0' for B</p> </div> </div></div>","null","","","","","","","","","","","","","","","",""
"3421","","test","audio-keyboard-response","64","307095","0.0-9.0-1.18","5ce8a739759924000103cd64","condE","","resources/audio/wordStim/S3_AI_22_bxa_Step-8.wav","49","","","","","","resources/audio/wordStim/S3_AI_22_bxa_Step-8.wav","S3","22","bxa","8","MI","BL","S3-BL","1","1","true"
"null","","fixation","html-keyboard-response","65","308110","0.0-9.0-0.19","5ce8a739759924000103cd64","condE","","<div class=""vertical-center"" style='width:60%;'><p style='font-weight:bold;'>Does the middle word sound more like the first word (A) or the last word (B)?</p> <br> <div class=""container""> <div id=""a-box""> <p class=""title-text"">A</h3></p> </div> <div id=""x-box""> <p class=""title-text"">X<p> </div> <div id=""b-box""> <p class=""title-text"">B</p></div> <br> <div style='float: left;padding-left:30px;'><p>Press '1' for A</p></div><div style='float: right;padding-right:30px;'><p>Press '0' for B</p> </div> </div></div>","null","","","","","","","","","","","","","","","",""
"3451","","test","audio-keyboard-response","66","311559","0.0-9.0-1.19","5ce8a739759924000103cd64","condE","","resources/audio/wordStim/S3_AI_22_bxa_Step-6.wav","49","","","","","","resources/audio/wordStim/S3_AI_22_bxa_Step-6.wav","S3","22","bxa","6","MI","BL","S3-BL","1","1","true"
"null","","fixation","html-keyboard-response","67","312569","0.0-9.0-0.20","5ce8a739759924000103cd64","condE","","<div class=""vertical-center"" style='width:60%;'><p style='font-weight:bold;'>Does the middle word sound more like the first word (A) or the last word (B)?</p> <br> <div class=""container""> <div id=""a-box""> <p class=""title-text"">A</h3></p> </div> <div id=""x-box""> <p class=""title-text"">X<p> </div> <div id=""b-box""> <p class=""title-text"">B</p></div> <br> <div style='float: left;padding-left:30px;'><p>Press '1' for A</p></div><div style='float: right;padding-right:30px;'><p>Press '0' for B</p> </div> </div></div>","null","","","","","","","","","","","","","","","",""
"3469","","test","audio-keyboard-response","68","316047","0.0-9.0-1.20","5ce8a739759924000103cd64","condE","","resources/audio/wordStim/S3_AU_20_bxa_Step-4.wav","49","","","","","","resources/audio/wordStim/S3_AU_20_bxa_Step-4.wav","S3","20","bxa","4","MI","BL","S3-BL","1","1","true"
"2306.720000007772","","break","html-keyboard-response","69","318855","0.0-9.0-2.20-0.20","5ce8a739759924000103cd64","condE","","<div class=""vertical-center""><p>Feel free to take a break!</p><i>When you're ready to continue, press SPACE to begin the next trial.</i></p></div>","32","","","","","","","","","","","","","","","",""
"null","","fixation","html-keyboard-response","70","319361","0.0-9.0-0.21","5ce8a739759924000103cd64","condE","","<div class=""vertical-center"" style='width:60%;'><p style='font-weight:bold;'>Does the middle word sound more like the first word (A) or the last word (B)?</p> <br> <div class=""container""> <div id=""a-box""> <p class=""title-text"">A</h3></p> </div> <div id=""x-box""> <p class=""title-text"">X<p> </div> <div id=""b-box""> <p class=""title-text"">B</p></div> <br> <div style='float: left;padding-left:30px;'><p>Press '1' for A</p></div><div style='float: right;padding-right:30px;'><p>Press '0' for B</p> </div> </div></div>","null","","","","","","","","","","","","","","","",""
"6021","","test","audio-keyboard-response","71","325383","0.0-9.0-1.21","5ce8a739759924000103cd64","condE","","resources/audio/wordStim/S3_AI_22_bxa_Step-5.wav","49","","","","","","resources/audio/wordStim/S3_AI_22_bxa_Step-5.wav","S3","22","bxa","5","MI","BL","S3-BL","1","1","true"
"null","","fixation","html-keyboard-response","72","326394","0.0-9.0-0.22","5ce8a739759924000103cd64","condE","","<div class=""vertical-center"" style='width:60%;'><p style='font-weight:bold;'>Does the middle word sound more like the first word (A) or the last word (B)?</p> <br> <div class=""container""> <div id=""a-box""> <p class=""title-text"">A</h3></p> </div> <div id=""x-box""> <p class=""title-text"">X<p> </div> <div id=""b-box""> <p class=""title-text"">B</p></div> <br> <div style='float: left;padding-left:30px;'><p>Press '1' for A</p></div><div style='float: right;padding-right:30px;'><p>Press '0' for B</p> </div> </div></div>","null","","","","","","","","","","","","","","","",""
"3912","","test","audio-keyboard-response","73","330303","0.0-9.0-1.22","5ce8a739759924000103cd64","condE","","resources/audio/wordStim/S3_AI_30_bxa_Step-6.wav","49","","","","","","resources/audio/wordStim/S3_AI_30_bxa_Step-6.wav","S3","30","bxa","6","MI","BL","S3-BL","1","1","true"
"null","","fixation","html-keyboard-response","74","331326","0.0-9.0-0.23","5ce8a739759924000103cd64","condE","","<div class=""vertical-center"" style='width:60%;'><p style='font-weight:bold;'>Does the middle word sound more like the first word (A) or the last word (B)?</p> <br> <div class=""container""> <div id=""a-box""> <p class=""title-text"">A</h3></p> </div> <div id=""x-box""> <p class=""title-text"">X<p> </div> <div id=""b-box""> <p class=""title-text"">B</p></div> <br> <div style='float: left;padding-left:30px;'><p>Press '1' for A</p></div><div style='float: right;padding-right:30px;'><p>Press '0' for B</p> </div> </div></div>","null","","","","","","","","","","","","","","","",""
"4000","","test","audio-keyboard-response","75","335326","0.0-9.0-1.23","5ce8a739759924000103cd64","condE","","resources/audio/wordStim/S3_AI_22_bxa_Step-3.wav","48","","","","","","resources/audio/wordStim/S3_AI_22_bxa_Step-3.wav","S3","22","bxa","3","MI","BL","S3-BL","1","0","false"
"null","","fixation","html-keyboard-response","76","336332","0.0-9.0-0.24","5ce8a739759924000103cd64","condE","","<div class=""vertical-center"" style='width:60%;'><p style='font-weight:bold;'>Does the middle word sound more like the first word (A) or the last word (B)?</p> <br> <div class=""container""> <div id=""a-box""> <p class=""title-text"">A</h3></p> </div> <div id=""x-box""> <p class=""title-text"">X<p> </div> <div id=""b-box""> <p class=""title-text"">B</p></div> <br> <div style='float: left;padding-left:30px;'><p>Press '1' for A</p></div><div style='float: right;padding-right:30px;'><p>Press '0' for B</p> </div> </div></div>","null","","","","","","","","","","","","","","","",""
"5989","","test","audio-keyboard-response","77","342327","0.0-9.0-1.24","5ce8a739759924000103cd64","condE","","resources/audio/wordStim/S3_AU_20_bxa_Step-5.wav","49","","","","","","resources/audio/wordStim/S3_AU_20_bxa_Step-5.wav","S3","20","bxa","5","MI","BL","S3-BL","1","1","true"
"null","","fixation","html-keyboard-response","78","343338","0.0-9.0-0.25","5ce8a739759924000103cd64","condE","","<div class=""vertical-center"" style='width:60%;'><p style='font-weight:bold;'>Does the middle word sound more like the first word (A) or the last word (B)?</p> <br> <div class=""container""> <div id=""a-box""> <p class=""title-text"">A</h3></p> </div> <div id=""x-box""> <p class=""title-text"">X<p> </div> <div id=""b-box""> <p class=""title-text"">B</p></div> <br> <div style='float: left;padding-left:30px;'><p>Press '1' for A</p></div><div style='float: right;padding-right:30px;'><p>Press '0' for B</p> </div> </div></div>","null","","","","","","","","","","","","","","","",""
"3440","","test","audio-keyboard-response","79","346782","0.0-9.0-1.25","5ce8a739759924000103cd64","condE","","resources/audio/wordStim/S3_AU_20_axb_Step-4.wav","49","","","","","","resources/audio/wordStim/S3_AU_20_axb_Step-4.wav","S3","20","axb","4","MI","BL","S3-BL","0","1","false"
"null","","fixation","html-keyboard-response","80","347796","0.0-9.0-0.26","5ce8a739759924000103cd64","condE","","<div class=""vertical-center"" style='width:60%;'><p style='font-weight:bold;'>Does the middle word sound more like the first word (A) or the last word (B)?</p> <br> <div class=""container""> <div id=""a-box""> <p class=""title-text"">A</h3></p> </div> <div id=""x-box""> <p class=""title-text"">X<p> </div> <div id=""b-box""> <p class=""title-text"">B</p></div> <br> <div style='float: left;padding-left:30px;'><p>Press '1' for A</p></div><div style='float: right;padding-right:30px;'><p>Press '0' for B</p> </div> </div></div>","null","","","","","","","","","","","","","","","",""
"5531","","test","audio-keyboard-response","81","353318","0.0-9.0-1.26","5ce8a739759924000103cd64","condE","","resources/audio/wordStim/S3_AU_20_axb_Step-6.wav","48","","","","","","resources/audio/wordStim/S3_AU_20_axb_Step-6.wav","S3","20","axb","6","MI","BL","S3-BL","0","0","true"
"null","","fixation","html-keyboard-response","82","354334","0.0-9.0-0.27","5ce8a739759924000103cd64","condE","","<div class=""vertical-center"" style='width:60%;'><p style='font-weight:bold;'>Does the middle word sound more like the first word (A) or the last word (B)?</p> <br> <div class=""container""> <div id=""a-box""> <p class=""title-text"">A</h3></p> </div> <div id=""x-box""> <p class=""title-text"">X<p> </div> <div id=""b-box""> <p class=""title-text"">B</p></div> <br> <div style='float: left;padding-left:30px;'><p>Press '1' for A</p></div><div style='float: right;padding-right:30px;'><p>Press '0' for B</p> </div> </div></div>","null","","","","","","","","","","","","","","","",""
"5211","","test","audio-keyboard-response","83","359542","0.0-9.0-1.27","5ce8a739759924000103cd64","condE","","resources/audio/wordStim/S3_AI_30_axb_Step-7.wav","48","","","","","","resources/audio/wordStim/S3_AI_30_axb_Step-7.wav","S3","30","axb","7","MI","BL","S3-BL","0","0","true"
"null","","fixation","html-keyboard-response","84","360554","0.0-9.0-0.28","5ce8a739759924000103cd64","condE","","<div class=""vertical-center"" style='width:60%;'><p style='font-weight:bold;'>Does the middle word sound more like the first word (A) or the last word (B)?</p> <br> <div class=""container""> <div id=""a-box""> <p class=""title-text"">A</h3></p> </div> <div id=""x-box""> <p class=""title-text"">X<p> </div> <div id=""b-box""> <p class=""title-text"">B</p></div> <br> <div style='float: left;padding-left:30px;'><p>Press '1' for A</p></div><div style='float: right;padding-right:30px;'><p>Press '0' for B</p> </div> </div></div>","null","","","","","","","","","","","","","","","",""
"3632","","test","audio-keyboard-response","85","364183","0.0-9.0-1.28","5ce8a739759924000103cd64","condE","","resources/audio/wordStim/S3_AU_19_bxa_Step-2.wav","49","","","","","","resources/audio/wordStim/S3_AU_19_bxa_Step-2.wav","S3","19","bxa","2","MI","BL","S3-BL","1","1","true"
"null","","fixation","html-keyboard-response","86","365212","0.0-9.0-0.29","5ce8a739759924000103cd64","condE","","<div class=""vertical-center"" style='width:60%;'><p style='font-weight:bold;'>Does the middle word sound more like the first word (A) or the last word (B)?</p> <br> <div class=""container""> <div id=""a-box""> <p class=""title-text"">A</h3></p> </div> <div id=""x-box""> <p class=""title-text"">X<p> </div> <div id=""b-box""> <p class=""title-text"">B</p></div> <br> <div style='float: left;padding-left:30px;'><p>Press '1' for A</p></div><div style='float: right;padding-right:30px;'><p>Press '0' for B</p> </div> </div></div>","null","","","","","","","","","","","","","","","",""
"4429","","test","audio-keyboard-response","87","369646","0.0-9.0-1.29","5ce8a739759924000103cd64","condE","","resources/audio/wordStim/S3_AI_22_axb_Step-7.wav","48","","","","","","resources/audio/wordStim/S3_AI_22_axb_Step-7.wav","S3","22","axb","7","MI","BL","S3-BL","0","0","true"
"null","","fixation","html-keyboard-response","88","370649","0.0-9.0-0.30","5ce8a739759924000103cd64","condE","","<div class=""vertical-center"" style='width:60%;'><p style='font-weight:bold;'>Does the middle word sound more like the first word (A) or the last word (B)?</p> <br> <div class=""container""> <div id=""a-box""> <p class=""title-text"">A</h3></p> </div> <div id=""x-box""> <p class=""title-text"">X<p> </div> <div id=""b-box""> <p class=""title-text"">B</p></div> <br> <div style='float: left;padding-left:30px;'><p>Press '1' for A</p></div><div style='float: right;padding-right:30px;'><p>Press '0' for B</p> </div> </div></div>","null","","","","","","","","","","","","","","","",""
"3629","","test","audio-keyboard-response","89","374279","0.0-9.0-1.30","5ce8a739759924000103cd64","condE","","resources/audio/wordStim/S3_AI_22_axb_Step-3.wav","49","","","","","","resources/audio/wordStim/S3_AI_22_axb_Step-3.wav","S3","22","axb","3","MI","BL","S3-BL","0","1","false"
"null","","fixation","html-keyboard-response","90","375298","0.0-9.0-0.31","5ce8a739759924000103cd64","condE","","<div class=""vertical-center"" style='width:60%;'><p style='font-weight:bold;'>Does the middle word sound more like the first word (A) or the last word (B)?</p> <br> <div class=""container""> <div id=""a-box""> <p class=""title-text"">A</h3></p> </div> <div id=""x-box""> <p class=""title-text"">X<p> </div> <div id=""b-box""> <p class=""title-text"">B</p></div> <br> <div style='float: left;padding-left:30px;'><p>Press '1' for A</p></div><div style='float: right;padding-right:30px;'><p>Press '0' for B</p> </div> </div></div>","null","","","","","","","","","","","","","","","",""
"5389","","test","audio-keyboard-response","91","380686","0.0-9.0-1.31","5ce8a739759924000103cd64","condE","","resources/audio/wordStim/S3_AI_21_bxa_Step-4.wav","48","","","","","","resources/audio/wordStim/S3_AI_21_bxa_Step-4.wav","S3","21","bxa","4","MI","BL","S3-BL","1","0","false"
"null","","fixation","html-keyboard-response","92","381706","0.0-9.0-0.32","5ce8a739759924000103cd64","condE","","<div class=""vertical-center"" style='width:60%;'><p style='font-weight:bold;'>Does the middle word sound more like the first word (A) or the last word (B)?</p> <br> <div class=""container""> <div id=""a-box""> <p class=""title-text"">A</h3></p> </div> <div id=""x-box""> <p class=""title-text"">X<p> </div> <div id=""b-box""> <p class=""title-text"">B</p></div> <br> <div style='float: left;padding-left:30px;'><p>Press '1' for A</p></div><div style='float: right;padding-right:30px;'><p>Press '0' for B</p> </div> </div></div>","null","","","","","","","","","","","","","","","",""
"3480","","test","audio-keyboard-response","93","385182","0.0-9.0-1.32","5ce8a739759924000103cd64","condE","","resources/audio/wordStim/S3_AU_19_axb_Step-7.wav","48","","","","","","resources/audio/wordStim/S3_AU_19_axb_Step-7.wav","S3","19","axb","7","MI","BL","S3-BL","0","0","true"
"null","","fixation","html-keyboard-response","94","386192","0.0-9.0-0.33","5ce8a739759924000103cd64","condE","","<div class=""vertical-center"" style='width:60%;'><p style='font-weight:bold;'>Does the middle word sound more like the first word (A) or the last word (B)?</p> <br> <div class=""container""> <div id=""a-box""> <p class=""title-text"">A</h3></p> </div> <div id=""x-box""> <p class=""title-text"">X<p> </div> <div id=""b-box""> <p class=""title-text"">B</p></div> <br> <div style='float: left;padding-left:30px;'><p>Press '1' for A</p></div><div style='float: right;padding-right:30px;'><p>Press '0' for B</p> </div> </div></div>","null","","","","","","","","","","","","","","","",""
"3381","","test","audio-keyboard-response","95","389574","0.0-9.0-1.33","5ce8a739759924000103cd64","condE","","resources/audio/wordStim/S3_AU_19_axb_Step-6.wav","49","","","","","","resources/audio/wordStim/S3_AU_19_axb_Step-6.wav","S3","19","axb","6","MI","BL","S3-BL","0","1","false"
"null","","fixation","html-keyboard-response","96","390593","0.0-9.0-0.34","5ce8a739759924000103cd64","condE","","<div class=""vertical-center"" style='width:60%;'><p style='font-weight:bold;'>Does the middle word sound more like the first word (A) or the last word (B)?</p> <br> <div class=""container""> <div id=""a-box""> <p class=""title-text"">A</h3></p> </div> <div id=""x-box""> <p class=""title-text"">X<p> </div> <div id=""b-box""> <p class=""title-text"">B</p></div> <br> <div style='float: left;padding-left:30px;'><p>Press '1' for A</p></div><div style='float: right;padding-right:30px;'><p>Press '0' for B</p> </div> </div></div>","null","","","","","","","","","","","","","","","",""
"5472","","test","audio-keyboard-response","97","396062","0.0-9.0-1.34","5ce8a739759924000103cd64","condE","","resources/audio/wordStim/S3_AI_30_axb_Step-3.wav","48","","","","","","resources/audio/wordStim/S3_AI_30_axb_Step-3.wav","S3","30","axb","3","MI","BL","S3-BL","0","0","true"
"null","","fixation","html-keyboard-response","98","397067","0.0-9.0-0.35","5ce8a739759924000103cd64","condE","","<div class=""vertical-center"" style='width:60%;'><p style='font-weight:bold;'>Does the middle word sound more like the first word (A) or the last word (B)?</p> <br> <div class=""container""> <div id=""a-box""> <p class=""title-text"">A</h3></p> </div> <div id=""x-box""> <p class=""title-text"">X<p> </div> <div id=""b-box""> <p class=""title-text"">B</p></div> <br> <div style='float: left;padding-left:30px;'><p>Press '1' for A</p></div><div style='float: right;padding-right:30px;'><p>Press '0' for B</p> </div> </div></div>","null","","","","","","","","","","","","","","","",""
"3189","","test","audio-keyboard-response","99","400254","0.0-9.0-1.35","5ce8a739759924000103cd64","condE","","resources/audio/wordStim/S3_AI_21_bxa_Step-6.wav","49","","","","","","resources/audio/wordStim/S3_AI_21_bxa_Step-6.wav","S3","21","bxa","6","MI","BL","S3-BL","1","1","true"
"null","","fixation","html-keyboard-response","100","401282","0.0-9.0-0.36","5ce8a739759924000103cd64","condE","","<div class=""vertical-center"" style='width:60%;'><p style='font-weight:bold;'>Does the middle word sound more like the first word (A) or the last word (B)?</p> <br> <div class=""container""> <div id=""a-box""> <p class=""title-text"">A</h3></p> </div> <div id=""x-box""> <p class=""title-text"">X<p> </div> <div id=""b-box""> <p class=""title-text"">B</p></div> <br> <div style='float: left;padding-left:30px;'><p>Press '1' for A</p></div><div style='float: right;padding-right:30px;'><p>Press '0' for B</p> </div> </div></div>","null","","","","","","","","","","","","","","","",""
"3760","","test","audio-keyboard-response","101","405046","0.0-9.0-1.36","5ce8a739759924000103cd64","condE","","resources/audio/wordStim/S3_AI_22_axb_Step-8.wav","48","","","","","","resources/audio/wordStim/S3_AI_22_axb_Step-8.wav","S3","22","axb","8","MI","BL","S3-BL","0","0","true"
"null","","fixation","html-keyboard-response","102","406074","0.0-9.0-0.37","5ce8a739759924000103cd64","condE","","<div class=""vertical-center"" style='width:60%;'><p style='font-weight:bold;'>Does the middle word sound more like the first word (A) or the last word (B)?</p> <br> <div class=""container""> <div id=""a-box""> <p class=""title-text"">A</h3></p> </div> <div id=""x-box""> <p class=""title-text"">X<p> </div> <div id=""b-box""> <p class=""title-text"">B</p></div> <br> <div style='float: left;padding-left:30px;'><p>Press '1' for A</p></div><div style='float: right;padding-right:30px;'><p>Press '0' for B</p> </div> </div></div>","null","","","","","","","","","","","","","","","",""
"3411","","test","audio-keyboard-response","103","409486","0.0-9.0-1.37","5ce8a739759924000103cd64","condE","","resources/audio/wordStim/S3_AI_21_axb_Step-4.wav","49","","","","","","resources/audio/wordStim/S3_AI_21_axb_Step-4.wav","S3","21","axb","4","MI","BL","S3-BL","0","1","false"
"null","","fixation","html-keyboard-response","104","410502","0.0-9.0-0.38","5ce8a739759924000103cd64","condE","","<div class=""vertical-center"" style='width:60%;'><p style='font-weight:bold;'>Does the middle word sound more like the first word (A) or the last word (B)?</p> <br> <div class=""container""> <div id=""a-box""> <p class=""title-text"">A</h3></p> </div> <div id=""x-box""> <p class=""title-text"">X<p> </div> <div id=""b-box""> <p class=""title-text"">B</p></div> <br> <div style='float: left;padding-left:30px;'><p>Press '1' for A</p></div><div style='float: right;padding-right:30px;'><p>Press '0' for B</p> </div> </div></div>","null","","","","","","","","","","","","","","","",""
"5000","","test","audio-keyboard-response","105","415502","0.0-9.0-1.38","5ce8a739759924000103cd64","condE","","resources/audio/wordStim/S3_AU_20_axb_Step-8.wav","49","","","","","","resources/audio/wordStim/S3_AU_20_axb_Step-8.wav","S3","20","axb","8","MI","BL","S3-BL","0","1","false"
"null","","fixation","html-keyboard-response","106","416516","0.0-9.0-0.39","5ce8a739759924000103cd64","condE","","<div class=""vertical-center"" style='width:60%;'><p style='font-weight:bold;'>Does the middle word sound more like the first word (A) or the last word (B)?</p> <br> <div class=""container""> <div id=""a-box""> <p class=""title-text"">A</h3></p> </div> <div id=""x-box""> <p class=""title-text"">X<p> </div> <div id=""b-box""> <p class=""title-text"">B</p></div> <br> <div style='float: left;padding-left:30px;'><p>Press '1' for A</p></div><div style='float: right;padding-right:30px;'><p>Press '0' for B</p> </div> </div></div>","null","","","","","","","","","","","","","","","",""
"3112","","test","audio-keyboard-response","107","419621","0.0-9.0-1.39","5ce8a739759924000103cd64","condE","","resources/audio/wordStim/S3_AU_20_bxa_Step-7.wav","49","","","","","","resources/audio/wordStim/S3_AU_20_bxa_Step-7.wav","S3","20","bxa","7","MI","BL","S3-BL","1","1","true"
"null","","fixation","html-keyboard-response","108","420643","0.0-9.0-0.40","5ce8a739759924000103cd64","condE","","<div class=""vertical-center"" style='width:60%;'><p style='font-weight:bold;'>Does the middle word sound more like the first word (A) or the last word (B)?</p> <br> <div class=""container""> <div id=""a-box""> <p class=""title-text"">A</h3></p> </div> <div id=""x-box""> <p class=""title-text"">X<p> </div> <div id=""b-box""> <p class=""title-text"">B</p></div> <br> <div style='float: left;padding-left:30px;'><p>Press '1' for A</p></div><div style='float: right;padding-right:30px;'><p>Press '0' for B</p> </div> </div></div>","null","","","","","","","","","","","","","","","",""
"4051","","test","audio-keyboard-response","109","424692","0.0-9.0-1.40","5ce8a739759924000103cd64","condE","","resources/audio/wordStim/S3_AI_22_bxa_Step-7.wav","49","","","","","","resources/audio/wordStim/S3_AI_22_bxa_Step-7.wav","S3","22","bxa","7","MI","BL","S3-BL","1","1","true"
"null","","fixation","html-keyboard-response","110","425719","0.0-9.0-0.41","5ce8a739759924000103cd64","condE","","<div class=""vertical-center"" style='width:60%;'><p style='font-weight:bold;'>Does the middle word sound more like the first word (A) or the last word (B)?</p> <br> <div class=""container""> <div id=""a-box""> <p class=""title-text"">A</h3></p> </div> <div id=""x-box""> <p class=""title-text"">X<p> </div> <div id=""b-box""> <p class=""title-text"">B</p></div> <br> <div style='float: left;padding-left:30px;'><p>Press '1' for A</p></div><div style='float: right;padding-right:30px;'><p>Press '0' for B</p> </div> </div></div>","null","","","","","","","","","","","","","","","",""
"3629","","test","audio-keyboard-response","111","429356","0.0-9.0-1.41","5ce8a739759924000103cd64","condE","","resources/audio/wordStim/S3_AI_22_bxa_Step-4.wav","49","","","","","","resources/audio/wordStim/S3_AI_22_bxa_Step-4.wav","S3","22","bxa","4","MI","BL","S3-BL","1","1","true"
"3436.1550000030547","","break","html-keyboard-response","112","433300","0.0-9.0-2.41-0.41","5ce8a739759924000103cd64","condE","","<div class=""vertical-center""><p>Feel free to take a break!</p><i>When you're ready to continue, press SPACE to begin the next trial.</i></p></div>","32","","","","","","","","","","","","","","","",""
"null","","fixation","html-keyboard-response","113","433801","0.0-9.0-0.42","5ce8a739759924000103cd64","condE","","<div class=""vertical-center"" style='width:60%;'><p style='font-weight:bold;'>Does the middle word sound more like the first word (A) or the last word (B)?</p> <br> <div class=""container""> <div id=""a-box""> <p class=""title-text"">A</h3></p> </div> <div id=""x-box""> <p class=""title-text"">X<p> </div> <div id=""b-box""> <p class=""title-text"">B</p></div> <br> <div style='float: left;padding-left:30px;'><p>Press '1' for A</p></div><div style='float: right;padding-right:30px;'><p>Press '0' for B</p> </div> </div></div>","null","","","","","","","","","","","","","","","",""
"3869","","test","audio-keyboard-response","114","437668","0.0-9.0-1.42","5ce8a739759924000103cd64","condE","","resources/audio/wordStim/S3_AU_18_axb_Step-5.wav","49","","","","","","resources/audio/wordStim/S3_AU_18_axb_Step-5.wav","S3","18","axb","5","MI","BL","S3-BL","0","1","false"
"null","","fixation","html-keyboard-response","115","438682","0.0-9.0-0.43","5ce8a739759924000103cd64","condE","","<div class=""vertical-center"" style='width:60%;'><p style='font-weight:bold;'>Does the middle word sound more like the first word (A) or the last word (B)?</p> <br> <div class=""container""> <div id=""a-box""> <p class=""title-text"">A</h3></p> </div> <div id=""x-box""> <p class=""title-text"">X<p> </div> <div id=""b-box""> <p class=""title-text"">B</p></div> <br> <div style='float: left;padding-left:30px;'><p>Press '1' for A</p></div><div style='float: right;padding-right:30px;'><p>Press '0' for B</p> </div> </div></div>","null","","","","","","","","","","","","","","","",""
"3461","","test","audio-keyboard-response","116","442140","0.0-9.0-1.43","5ce8a739759924000103cd64","condE","","resources/audio/wordStim/S3_AU_19_axb_Step-5.wav","49","","","","","","resources/audio/wordStim/S3_AU_19_axb_Step-5.wav","S3","19","axb","5","MI","BL","S3-BL","0","1","false"
"null","","fixation","html-keyboard-response","117","443156","0.0-9.0-0.44","5ce8a739759924000103cd64","condE","","<div class=""vertical-center"" style='width:60%;'><p style='font-weight:bold;'>Does the middle word sound more like the first word (A) or the last word (B)?</p> <br> <div class=""container""> <div id=""a-box""> <p class=""title-text"">A</h3></p> </div> <div id=""x-box""> <p class=""title-text"">X<p> </div> <div id=""b-box""> <p class=""title-text"">B</p></div> <br> <div style='float: left;padding-left:30px;'><p>Press '1' for A</p></div><div style='float: right;padding-right:30px;'><p>Press '0' for B</p> </div> </div></div>","null","","","","","","","","","","","","","","","",""
"3040","","test","audio-keyboard-response","118","446188","0.0-9.0-1.44","5ce8a739759924000103cd64","condE","","resources/audio/wordStim/S3_AI_21_axb_Step-5.wav","49","","","","","","resources/audio/wordStim/S3_AI_21_axb_Step-5.wav","S3","21","axb","5","MI","BL","S3-BL","0","1","false"
"null","","fixation","html-keyboard-response","119","447203","0.0-9.0-0.45","5ce8a739759924000103cd64","condE","","<div class=""vertical-center"" style='width:60%;'><p style='font-weight:bold;'>Does the middle word sound more like the first word (A) or the last word (B)?</p> <br> <div class=""container""> <div id=""a-box""> <p class=""title-text"">A</h3></p> </div> <div id=""x-box""> <p class=""title-text"">X<p> </div> <div id=""b-box""> <p class=""title-text"">B</p></div> <br> <div style='float: left;padding-left:30px;'><p>Press '1' for A</p></div><div style='float: right;padding-right:30px;'><p>Press '0' for B</p> </div> </div></div>","null","","","","","","","","","","","","","","","",""
"4229","","test","audio-keyboard-response","120","451436","0.0-9.0-1.45","5ce8a739759924000103cd64","condE","","resources/audio/wordStim/S3_AU_18_axb_Step-8.wav","48","","","","","","resources/audio/wordStim/S3_AU_18_axb_Step-8.wav","S3","18","axb","8","MI","BL","S3-BL","0","0","true"
"null","","fixation","html-keyboard-response","121","452452","0.0-9.0-0.46","5ce8a739759924000103cd64","condE","","<div class=""vertical-center"" style='width:60%;'><p style='font-weight:bold;'>Does the middle word sound more like the first word (A) or the last word (B)?</p> <br> <div class=""container""> <div id=""a-box""> <p class=""title-text"">A</h3></p> </div> <div id=""x-box""> <p class=""title-text"">X<p> </div> <div id=""b-box""> <p class=""title-text"">B</p></div> <br> <div style='float: left;padding-left:30px;'><p>Press '1' for A</p></div><div style='float: right;padding-right:30px;'><p>Press '0' for B</p> </div> </div></div>","null","","","","","","","","","","","","","","","",""
"6400","","test","audio-keyboard-response","122","458851","0.0-9.0-1.46","5ce8a739759924000103cd64","condE","","resources/audio/wordStim/S3_AI_30_axb_Step-6.wav","48","","","","","","resources/audio/wordStim/S3_AI_30_axb_Step-6.wav","S3","30","axb","6","MI","BL","S3-BL","0","0","true"
"null","","fixation","html-keyboard-response","123","459870","0.0-9.0-0.47","5ce8a739759924000103cd64","condE","","<div class=""vertical-center"" style='width:60%;'><p style='font-weight:bold;'>Does the middle word sound more like the first word (A) or the last word (B)?</p> <br> <div class=""container""> <div id=""a-box""> <p class=""title-text"">A</h3></p> </div> <div id=""x-box""> <p class=""title-text"">X<p> </div> <div id=""b-box""> <p class=""title-text"">B</p></div> <br> <div style='float: left;padding-left:30px;'><p>Press '1' for A</p></div><div style='float: right;padding-right:30px;'><p>Press '0' for B</p> </div> </div></div>","null","","","","","","","","","","","","","","","",""
"3712","","test","audio-keyboard-response","124","463579","0.0-9.0-1.47","5ce8a739759924000103cd64","condE","","resources/audio/wordStim/S3_AI_21_axb_Step-8.wav","48","","","","","","resources/audio/wordStim/S3_AI_21_axb_Step-8.wav","S3","21","axb","8","MI","BL","S3-BL","0","0","true"
"null","","fixation","html-keyboard-response","125","464587","0.0-9.0-0.48","5ce8a739759924000103cd64","condE","","<div class=""vertical-center"" style='width:60%;'><p style='font-weight:bold;'>Does the middle word sound more like the first word (A) or the last word (B)?</p> <br> <div class=""container""> <div id=""a-box""> <p class=""title-text"">A</h3></p> </div> <div id=""x-box""> <p class=""title-text"">X<p> </div> <div id=""b-box""> <p class=""title-text"">B</p></div> <br> <div style='float: left;padding-left:30px;'><p>Press '1' for A</p></div><div style='float: right;padding-right:30px;'><p>Press '0' for B</p> </div> </div></div>","null","","","","","","","","","","","","","","","",""
"4480","","test","audio-keyboard-response","126","469075","0.0-9.0-1.48","5ce8a739759924000103cd64","condE","","resources/audio/wordStim/S3_AU_19_axb_Step-2.wav","48","","","","","","resources/audio/wordStim/S3_AU_19_axb_Step-2.wav","S3","19","axb","2","MI","BL","S3-BL","0","0","true"
"null","","fixation","html-keyboard-response","127","470087","0.0-9.0-0.49","5ce8a739759924000103cd64","condE","","<div class=""vertical-center"" style='width:60%;'><p style='font-weight:bold;'>Does the middle word sound more like the first word (A) or the last word (B)?</p> <br> <div class=""container""> <div id=""a-box""> <p class=""title-text"">A</h3></p> </div> <div id=""x-box""> <p class=""title-text"">X<p> </div> <div id=""b-box""> <p class=""title-text"">B</p></div> <br> <div style='float: left;padding-left:30px;'><p>Press '1' for A</p></div><div style='float: right;padding-right:30px;'><p>Press '0' for B</p> </div> </div></div>","null","","","","","","","","","","","","","","","",""
"4139","","test","audio-keyboard-response","128","474227","0.0-9.0-1.49","5ce8a739759924000103cd64","condE","","resources/audio/wordStim/S3_AU_20_bxa_Step-2.wav","48","","","","","","resources/audio/wordStim/S3_AU_20_bxa_Step-2.wav","S3","20","bxa","2","MI","BL","S3-BL","1","0","false"
"null","","fixation","html-keyboard-response","129","475239","0.0-9.0-0.50","5ce8a739759924000103cd64","condE","","<div class=""vertical-center"" style='width:60%;'><p style='font-weight:bold;'>Does the middle word sound more like the first word (A) or the last word (B)?</p> <br> <div class=""container""> <div id=""a-box""> <p class=""title-text"">A</h3></p> </div> <div id=""x-box""> <p class=""title-text"">X<p> </div> <div id=""b-box""> <p class=""title-text"">B</p></div> <br> <div style='float: left;padding-left:30px;'><p>Press '1' for A</p></div><div style='float: right;padding-right:30px;'><p>Press '0' for B</p> </div> </div></div>","null","","","","","","","","","","","","","","","",""
"3749","","test","audio-keyboard-response","130","478987","0.0-9.0-1.50","5ce8a739759924000103cd64","condE","","resources/audio/wordStim/S3_AU_18_axb_Step-4.wav","49","","","","","","resources/audio/wordStim/S3_AU_18_axb_Step-4.wav","S3","18","axb","4","MI","BL","S3-BL","0","1","false"
"null","","fixation","html-keyboard-response","131","480002","0.0-9.0-0.51","5ce8a739759924000103cd64","condE","","<div class=""vertical-center"" style='width:60%;'><p style='font-weight:bold;'>Does the middle word sound more like the first word (A) or the last word (B)?</p> <br> <div class=""container""> <div id=""a-box""> <p class=""title-text"">A</h3></p> </div> <div id=""x-box""> <p class=""title-text"">X<p> </div> <div id=""b-box""> <p class=""title-text"">B</p></div> <br> <div style='float: left;padding-left:30px;'><p>Press '1' for A</p></div><div style='float: right;padding-right:30px;'><p>Press '0' for B</p> </div> </div></div>","null","","","","","","","","","","","","","","","",""
"3421","","test","audio-keyboard-response","132","483419","0.0-9.0-1.51","5ce8a739759924000103cd64","condE","","resources/audio/wordStim/S3_AU_19_axb_Step-3.wav","49","","","","","","resources/audio/wordStim/S3_AU_19_axb_Step-3.wav","S3","19","axb","3","MI","BL","S3-BL","0","1","false"
"null","","fixation","html-keyboard-response","133","484433","0.0-9.0-0.52","5ce8a739759924000103cd64","condE","","<div class=""vertical-center"" style='width:60%;'><p style='font-weight:bold;'>Does the middle word sound more like the first word (A) or the last word (B)?</p> <br> <div class=""container""> <div id=""a-box""> <p class=""title-text"">A</h3></p> </div> <div id=""x-box""> <p class=""title-text"">X<p> </div> <div id=""b-box""> <p class=""title-text"">B</p></div> <br> <div style='float: left;padding-left:30px;'><p>Press '1' for A</p></div><div style='float: right;padding-right:30px;'><p>Press '0' for B</p> </div> </div></div>","null","","","","","","","","","","","","","","","",""
"3880","","test","audio-keyboard-response","134","488315","0.0-9.0-1.52","5ce8a739759924000103cd64","condE","","resources/audio/wordStim/S3_AI_21_axb_Step-2.wav","49","","","","","","resources/audio/wordStim/S3_AI_21_axb_Step-2.wav","S3","21","axb","2","MI","BL","S3-BL","0","1","false"
"null","","fixation","html-keyboard-response","135","489331","0.0-9.0-0.53","5ce8a739759924000103cd64","condE","","<div class=""vertical-center"" style='width:60%;'><p style='font-weight:bold;'>Does the middle word sound more like the first word (A) or the last word (B)?</p> <br> <div class=""container""> <div id=""a-box""> <p class=""title-text"">A</h3></p> </div> <div id=""x-box""> <p class=""title-text"">X<p> </div> <div id=""b-box""> <p class=""title-text"">B</p></div> <br> <div style='float: left;padding-left:30px;'><p>Press '1' for A</p></div><div style='float: right;padding-right:30px;'><p>Press '0' for B</p> </div> </div></div>","null","","","","","","","","","","","","","","","",""
"4429","","test","audio-keyboard-response","136","493764","0.0-9.0-1.53","5ce8a739759924000103cd64","condE","","resources/audio/wordStim/S3_AI_21_axb_Step-6.wav","48","","","","","","resources/audio/wordStim/S3_AI_21_axb_Step-6.wav","S3","21","axb","6","MI","BL","S3-BL","0","0","true"
"null","","fixation","html-keyboard-response","137","494780","0.0-9.0-0.54","5ce8a739759924000103cd64","condE","","<div class=""vertical-center"" style='width:60%;'><p style='font-weight:bold;'>Does the middle word sound more like the first word (A) or the last word (B)?</p> <br> <div class=""container""> <div id=""a-box""> <p class=""title-text"">A</h3></p> </div> <div id=""x-box""> <p class=""title-text"">X<p> </div> <div id=""b-box""> <p class=""title-text"">B</p></div> <br> <div style='float: left;padding-left:30px;'><p>Press '1' for A</p></div><div style='float: right;padding-right:30px;'><p>Press '0' for B</p> </div> </div></div>","null","","","","","","","","","","","","","","","",""
"5179","","test","audio-keyboard-response","138","499963","0.0-9.0-1.54","5ce8a739759924000103cd64","condE","","resources/audio/wordStim/S3_AU_20_bxa_Step-6.wav","49","","","","","","resources/audio/wordStim/S3_AU_20_bxa_Step-6.wav","S3","20","bxa","6","MI","BL","S3-BL","1","1","true"
"null","","fixation","html-keyboard-response","139","500974","0.0-9.0-0.55","5ce8a739759924000103cd64","condE","","<div class=""vertical-center"" style='width:60%;'><p style='font-weight:bold;'>Does the middle word sound more like the first word (A) or the last word (B)?</p> <br> <div class=""container""> <div id=""a-box""> <p class=""title-text"">A</h3></p> </div> <div id=""x-box""> <p class=""title-text"">X<p> </div> <div id=""b-box""> <p class=""title-text"">B</p></div> <br> <div style='float: left;padding-left:30px;'><p>Press '1' for A</p></div><div style='float: right;padding-right:30px;'><p>Press '0' for B</p> </div> </div></div>","null","","","","","","","","","","","","","","","",""
"3411","","test","audio-keyboard-response","140","504387","0.0-9.0-1.55","5ce8a739759924000103cd64","condE","","resources/audio/wordStim/S3_AU_20_axb_Step-7.wav","48","","","","","","resources/audio/wordStim/S3_AU_20_axb_Step-7.wav","S3","20","axb","7","MI","BL","S3-BL","0","0","true"
"null","","fixation","html-keyboard-response","141","505410","0.0-9.0-0.56","5ce8a739759924000103cd64","condE","","<div class=""vertical-center"" style='width:60%;'><p style='font-weight:bold;'>Does the middle word sound more like the first word (A) or the last word (B)?</p> <br> <div class=""container""> <div id=""a-box""> <p class=""title-text"">A</h3></p> </div> <div id=""x-box""> <p class=""title-text"">X<p> </div> <div id=""b-box""> <p class=""title-text"">B</p></div> <br> <div style='float: left;padding-left:30px;'><p>Press '1' for A</p></div><div style='float: right;padding-right:30px;'><p>Press '0' for B</p> </div> </div></div>","null","","","","","","","","","","","","","","","",""
"3589","","test","audio-keyboard-response","142","509003","0.0-9.0-1.56","5ce8a739759924000103cd64","condE","","resources/audio/wordStim/S3_AI_21_bxa_Step-3.wav","48","","","","","","resources/audio/wordStim/S3_AI_21_bxa_Step-3.wav","S3","21","bxa","3","MI","BL","S3-BL","1","0","false"
"null","","fixation","html-keyboard-response","143","510030","0.0-9.0-0.57","5ce8a739759924000103cd64","condE","","<div class=""vertical-center"" style='width:60%;'><p style='font-weight:bold;'>Does the middle word sound more like the first word (A) or the last word (B)?</p> <br> <div class=""container""> <div id=""a-box""> <p class=""title-text"">A</h3></p> </div> <div id=""x-box""> <p class=""title-text"">X<p> </div> <div id=""b-box""> <p class=""title-text"">B</p></div> <br> <div style='float: left;padding-left:30px;'><p>Press '1' for A</p></div><div style='float: right;padding-right:30px;'><p>Press '0' for B</p> </div> </div></div>","null","","","","","","","","","","","","","","","",""
"5301","","test","audio-keyboard-response","144","515331","0.0-9.0-1.57","5ce8a739759924000103cd64","condE","","resources/audio/wordStim/S3_AI_22_axb_Step-5.wav","48","","","","","","resources/audio/wordStim/S3_AI_22_axb_Step-5.wav","S3","22","axb","5","MI","BL","S3-BL","0","0","true"
"null","","fixation","html-keyboard-response","145","516341","0.0-9.0-0.58","5ce8a739759924000103cd64","condE","","<div class=""vertical-center"" style='width:60%;'><p style='font-weight:bold;'>Does the middle word sound more like the first word (A) or the last word (B)?</p> <br> <div class=""container""> <div id=""a-box""> <p class=""title-text"">A</h3></p> </div> <div id=""x-box""> <p class=""title-text"">X<p> </div> <div id=""b-box""> <p class=""title-text"">B</p></div> <br> <div style='float: left;padding-left:30px;'><p>Press '1' for A</p></div><div style='float: right;padding-right:30px;'><p>Press '0' for B</p> </div> </div></div>","null","","","","","","","","","","","","","","","",""
"5440","","test","audio-keyboard-response","146","521778","0.0-9.0-1.58","5ce8a739759924000103cd64","condE","","resources/audio/wordStim/S3_AI_30_axb_Step-8.wav","48","","","","","","resources/audio/wordStim/S3_AI_30_axb_Step-8.wav","S3","30","axb","8","MI","BL","S3-BL","0","0","true"
"null","","fixation","html-keyboard-response","147","522782","0.0-9.0-0.59","5ce8a739759924000103cd64","condE","","<div class=""vertical-center"" style='width:60%;'><p style='font-weight:bold;'>Does the middle word sound more like the first word (A) or the last word (B)?</p> <br> <div class=""container""> <div id=""a-box""> <p class=""title-text"">A</h3></p> </div> <div id=""x-box""> <p class=""title-text"">X<p> </div> <div id=""b-box""> <p class=""title-text"">B</p></div> <br> <div style='float: left;padding-left:30px;'><p>Press '1' for A</p></div><div style='float: right;padding-right:30px;'><p>Press '0' for B</p> </div> </div></div>","null","","","","","","","","","","","","","","","",""
"4760","","test","audio-keyboard-response","148","527547","0.0-9.0-1.59","5ce8a739759924000103cd64","condE","","resources/audio/wordStim/S3_AU_19_axb_Step-4.wav","49","","","","","","resources/audio/wordStim/S3_AU_19_axb_Step-4.wav","S3","19","axb","4","MI","BL","S3-BL","0","1","false"
"null","","fixation","html-keyboard-response","149","528563","0.0-9.0-0.60","5ce8a739759924000103cd64","condE","","<div class=""vertical-center"" style='width:60%;'><p style='font-weight:bold;'>Does the middle word sound more like the first word (A) or the last word (B)?</p> <br> <div class=""container""> <div id=""a-box""> <p class=""title-text"">A</h3></p> </div> <div id=""x-box""> <p class=""title-text"">X<p> </div> <div id=""b-box""> <p class=""title-text"">B</p></div> <br> <div style='float: left;padding-left:30px;'><p>Press '1' for A</p></div><div style='float: right;padding-right:30px;'><p>Press '0' for B</p> </div> </div></div>","null","","","","","","","","","","","","","","","",""
"3181","","test","audio-keyboard-response","150","531738","0.0-9.0-1.60","5ce8a739759924000103cd64","condE","","resources/audio/wordStim/S3_AI_30_bxa_Step-8.wav","49","","","","","","resources/audio/wordStim/S3_AI_30_bxa_Step-8.wav","S3","30","bxa","8","MI","BL","S3-BL","1","1","true"
"null","","fixation","html-keyboard-response","151","532757","0.0-9.0-0.61","5ce8a739759924000103cd64","condE","","<div class=""vertical-center"" style='width:60%;'><p style='font-weight:bold;'>Does the middle word sound more like the first word (A) or the last word (B)?</p> <br> <div class=""container""> <div id=""a-box""> <p class=""title-text"">A</h3></p> </div> <div id=""x-box""> <p class=""title-text"">X<p> </div> <div id=""b-box""> <p class=""title-text"">B</p></div> <br> <div style='float: left;padding-left:30px;'><p>Press '1' for A</p></div><div style='float: right;padding-right:30px;'><p>Press '0' for B</p> </div> </div></div>","null","","","","","","","","","","","","","","","",""
"3560","","test","audio-keyboard-response","152","536322","0.0-9.0-1.61","5ce8a739759924000103cd64","condE","","resources/audio/wordStim/S3_AI_22_axb_Step-6.wav","48","","","","","","resources/audio/wordStim/S3_AI_22_axb_Step-6.wav","S3","22","axb","6","MI","BL","S3-BL","0","0","true"
"null","","fixation","html-keyboard-response","153","537331","0.0-9.0-0.62","5ce8a739759924000103cd64","condE","","<div class=""vertical-center"" style='width:60%;'><p style='font-weight:bold;'>Does the middle word sound more like the first word (A) or the last word (B)?</p> <br> <div class=""container""> <div id=""a-box""> <p class=""title-text"">A</h3></p> </div> <div id=""x-box""> <p class=""title-text"">X<p> </div> <div id=""b-box""> <p class=""title-text"">B</p></div> <br> <div style='float: left;padding-left:30px;'><p>Press '1' for A</p></div><div style='float: right;padding-right:30px;'><p>Press '0' for B</p> </div> </div></div>","null","","","","","","","","","","","","","","","",""
"3189","","test","audio-keyboard-response","154","540522","0.0-9.0-1.62","5ce8a739759924000103cd64","condE","","resources/audio/wordStim/S3_AU_19_axb_Step-8.wav","48","","","","","","resources/audio/wordStim/S3_AU_19_axb_Step-8.wav","S3","19","axb","8","MI","BL","S3-BL","0","0","true"
"42231.82999998971","","break","html-keyboard-response","155","583265","0.0-9.0-2.62-0.62","5ce8a739759924000103cd64","condE","","<div class=""vertical-center""><p>Feel free to take a break!</p><i>When you're ready to continue, press SPACE to begin the next trial.</i></p></div>","32","","","","","","","","","","","","","","","",""
"null","","fixation","html-keyboard-response","156","583767","0.0-9.0-0.63","5ce8a739759924000103cd64","condE","","<div class=""vertical-center"" style='width:60%;'><p style='font-weight:bold;'>Does the middle word sound more like the first word (A) or the last word (B)?</p> <br> <div class=""container""> <div id=""a-box""> <p class=""title-text"">A</h3></p> </div> <div id=""x-box""> <p class=""title-text"">X<p> </div> <div id=""b-box""> <p class=""title-text"">B</p></div> <br> <div style='float: left;padding-left:30px;'><p>Press '1' for A</p></div><div style='float: right;padding-right:30px;'><p>Press '0' for B</p> </div> </div></div>","null","","","","","","","","","","","","","","","",""
"3451","","test","audio-keyboard-response","157","587217","0.0-9.0-1.63","5ce8a739759924000103cd64","condE","","resources/audio/wordStim/S3_AI_21_axb_Step-7.wav","48","","","","","","resources/audio/wordStim/S3_AI_21_axb_Step-7.wav","S3","21","axb","7","MI","BL","S3-BL","0","0","true"
"null","","fixation","html-keyboard-response","158","588234","0.0-9.0-0.64","5ce8a739759924000103cd64","condE","","<div class=""vertical-center"" style='width:60%;'><p style='font-weight:bold;'>Does the middle word sound more like the first word (A) or the last word (B)?</p> <br> <div class=""container""> <div id=""a-box""> <p class=""title-text"">A</h3></p> </div> <div id=""x-box""> <p class=""title-text"">X<p> </div> <div id=""b-box""> <p class=""title-text"">B</p></div> <br> <div style='float: left;padding-left:30px;'><p>Press '1' for A</p></div><div style='float: right;padding-right:30px;'><p>Press '0' for B</p> </div> </div></div>","null","","","","","","","","","","","","","","","",""
"3291","","test","audio-keyboard-response","159","591529","0.0-9.0-1.64","5ce8a739759924000103cd64","condE","","resources/audio/wordStim/S3_AI_22_bxa_Step-2.wav","48","","","","","","resources/audio/wordStim/S3_AI_22_bxa_Step-2.wav","S3","22","bxa","2","MI","BL","S3-BL","1","0","false"
"null","","fixation","html-keyboard-response","160","592559","0.0-9.0-0.65","5ce8a739759924000103cd64","condE","","<div class=""vertical-center"" style='width:60%;'><p style='font-weight:bold;'>Does the middle word sound more like the first word (A) or the last word (B)?</p> <br> <div class=""container""> <div id=""a-box""> <p class=""title-text"">A</h3></p> </div> <div id=""x-box""> <p class=""title-text"">X<p> </div> <div id=""b-box""> <p class=""title-text"">B</p></div> <br> <div style='float: left;padding-left:30px;'><p>Press '1' for A</p></div><div style='float: right;padding-right:30px;'><p>Press '0' for B</p> </div> </div></div>","null","","","","","","","","","","","","","","","",""
"4029","","test","audio-keyboard-response","161","596585","0.0-9.0-1.65","5ce8a739759924000103cd64","condE","","resources/audio/wordStim/S3_AI_30_bxa_Step-2.wav","48","","","","","","resources/audio/wordStim/S3_AI_30_bxa_Step-2.wav","S3","30","bxa","2","MI","BL","S3-BL","1","0","false"
"null","","fixation","html-keyboard-response","162","597604","0.0-9.0-0.66","5ce8a739759924000103cd64","condE","","<div class=""vertical-center"" style='width:60%;'><p style='font-weight:bold;'>Does the middle word sound more like the first word (A) or the last word (B)?</p> <br> <div class=""container""> <div id=""a-box""> <p class=""title-text"">A</h3></p> </div> <div id=""x-box""> <p class=""title-text"">X<p> </div> <div id=""b-box""> <p class=""title-text"">B</p></div> <br> <div style='float: left;padding-left:30px;'><p>Press '1' for A</p></div><div style='float: right;padding-right:30px;'><p>Press '0' for B</p> </div> </div></div>","null","","","","","","","","","","","","","","","",""
"3640","","test","audio-keyboard-response","163","601248","0.0-9.0-1.66","5ce8a739759924000103cd64","condE","","resources/audio/wordStim/S3_AU_19_bxa_Step-4.wav","48","","","","","","resources/audio/wordStim/S3_AU_19_bxa_Step-4.wav","S3","19","bxa","4","MI","BL","S3-BL","1","0","false"
"null","","fixation","html-keyboard-response","164","602278","0.0-9.0-0.67","5ce8a739759924000103cd64","condE","","<div class=""vertical-center"" style='width:60%;'><p style='font-weight:bold;'>Does the middle word sound more like the first word (A) or the last word (B)?</p> <br> <div class=""container""> <div id=""a-box""> <p class=""title-text"">A</h3></p> </div> <div id=""x-box""> <p class=""title-text"">X<p> </div> <div id=""b-box""> <p class=""title-text"">B</p></div> <br> <div style='float: left;padding-left:30px;'><p>Press '1' for A</p></div><div style='float: right;padding-right:30px;'><p>Press '0' for B</p> </div> </div></div>","null","","","","","","","","","","","","","","","",""
"4221","","test","audio-keyboard-response","165","606497","0.0-9.0-1.67","5ce8a739759924000103cd64","condE","","resources/audio/wordStim/S3_AI_22_axb_Step-2.wav","49","","","","","","resources/audio/wordStim/S3_AI_22_axb_Step-2.wav","S3","22","axb","2","MI","BL","S3-BL","0","1","false"
"null","","fixation","html-keyboard-response","166","607517","0.0-9.0-0.68","5ce8a739759924000103cd64","condE","","<div class=""vertical-center"" style='width:60%;'><p style='font-weight:bold;'>Does the middle word sound more like the first word (A) or the last word (B)?</p> <br> <div class=""container""> <div id=""a-box""> <p class=""title-text"">A</h3></p> </div> <div id=""x-box""> <p class=""title-text"">X<p> </div> <div id=""b-box""> <p class=""title-text"">B</p></div> <br> <div style='float: left;padding-left:30px;'><p>Press '1' for A</p></div><div style='float: right;padding-right:30px;'><p>Press '0' for B</p> </div> </div></div>","null","","","","","","","","","","","","","","","",""
"3701","","test","audio-keyboard-response","167","611216","0.0-9.0-1.68","5ce8a739759924000103cd64","condE","","resources/audio/wordStim/S3_AU_20_axb_Step-2.wav","49","","","","","","resources/audio/wordStim/S3_AU_20_axb_Step-2.wav","S3","20","axb","2","MI","BL","S3-BL","0","1","false"
"null","","fixation","html-keyboard-response","168","612234","0.0-9.0-0.69","5ce8a739759924000103cd64","condE","","<div class=""vertical-center"" style='width:60%;'><p style='font-weight:bold;'>Does the middle word sound more like the first word (A) or the last word (B)?</p> <br> <div class=""container""> <div id=""a-box""> <p class=""title-text"">A</h3></p> </div> <div id=""x-box""> <p class=""title-text"">X<p> </div> <div id=""b-box""> <p class=""title-text"">B</p></div> <br> <div style='float: left;padding-left:30px;'><p>Press '1' for A</p></div><div style='float: right;padding-right:30px;'><p>Press '0' for B</p> </div> </div></div>","null","","","","","","","","","","","","","","","",""
"3811","","test","audio-keyboard-response","169","616049","0.0-9.0-1.69","5ce8a739759924000103cd64","condE","","resources/audio/wordStim/S3_AU_20_bxa_Step-3.wav","48","","","","","","resources/audio/wordStim/S3_AU_20_bxa_Step-3.wav","S3","20","bxa","3","MI","BL","S3-BL","1","0","false"
"null","","fixation","html-keyboard-response","170","617054","0.0-9.0-0.70","5ce8a739759924000103cd64","condE","","<div class=""vertical-center"" style='width:60%;'><p style='font-weight:bold;'>Does the middle word sound more like the first word (A) or the last word (B)?</p> <br> <div class=""container""> <div id=""a-box""> <p class=""title-text"">A</h3></p> </div> <div id=""x-box""> <p class=""title-text"">X<p> </div> <div id=""b-box""> <p class=""title-text"">B</p></div> <br> <div style='float: left;padding-left:30px;'><p>Press '1' for A</p></div><div style='float: right;padding-right:30px;'><p>Press '0' for B</p> </div> </div></div>","null","","","","","","","","","","","","","","","",""
"3800","","test","audio-keyboard-response","171","620864","0.0-9.0-1.70","5ce8a739759924000103cd64","condE","","resources/audio/wordStim/S3_AI_21_axb_Step-3.wav","49","","","","","","resources/audio/wordStim/S3_AI_21_axb_Step-3.wav","S3","21","axb","3","MI","BL","S3-BL","0","1","false"
"null","","fixation","html-keyboard-response","172","621884","0.0-9.0-0.71","5ce8a739759924000103cd64","condE","","<div class=""vertical-center"" style='width:60%;'><p style='font-weight:bold;'>Does the middle word sound more like the first word (A) or the last word (B)?</p> <br> <div class=""container""> <div id=""a-box""> <p class=""title-text"">A</h3></p> </div> <div id=""x-box""> <p class=""title-text"">X<p> </div> <div id=""b-box""> <p class=""title-text"">B</p></div> <br> <div style='float: left;padding-left:30px;'><p>Press '1' for A</p></div><div style='float: right;padding-right:30px;'><p>Press '0' for B</p> </div> </div></div>","null","","","","","","","","","","","","","","","",""
"4160","","test","audio-keyboard-response","173","626048","0.0-9.0-1.71","5ce8a739759924000103cd64","condE","","resources/audio/wordStim/S3_AU_18_axb_Step-2.wav","49","","","","","","resources/audio/wordStim/S3_AU_18_axb_Step-2.wav","S3","18","axb","2","MI","BL","S3-BL","0","1","false"
"null","","fixation","html-keyboard-response","174","627056","0.0-9.0-0.72","5ce8a739759924000103cd64","condE","","<div class=""vertical-center"" style='width:60%;'><p style='font-weight:bold;'>Does the middle word sound more like the first word (A) or the last word (B)?</p> <br> <div class=""container""> <div id=""a-box""> <p class=""title-text"">A</h3></p> </div> <div id=""x-box""> <p class=""title-text"">X<p> </div> <div id=""b-box""> <p class=""title-text"">B</p></div> <br> <div style='float: left;padding-left:30px;'><p>Press '1' for A</p></div><div style='float: right;padding-right:30px;'><p>Press '0' for B</p> </div> </div></div>","null","","","","","","","","","","","","","","","",""
"4528","","test","audio-keyboard-response","175","631592","0.0-9.0-1.72","5ce8a739759924000103cd64","condE","","resources/audio/wordStim/S3_AU_18_bxa_Step-6.wav","49","","","","","","resources/audio/wordStim/S3_AU_18_bxa_Step-6.wav","S3","18","bxa","6","MI","BL","S3-BL","1","1","true"
"null","","fixation","html-keyboard-response","176","632599","0.0-9.0-0.73","5ce8a739759924000103cd64","condE","","<div class=""vertical-center"" style='width:60%;'><p style='font-weight:bold;'>Does the middle word sound more like the first word (A) or the last word (B)?</p> <br> <div class=""container""> <div id=""a-box""> <p class=""title-text"">A</h3></p> </div> <div id=""x-box""> <p class=""title-text"">X<p> </div> <div id=""b-box""> <p class=""title-text"">B</p></div> <br> <div style='float: left;padding-left:30px;'><p>Press '1' for A</p></div><div style='float: right;padding-right:30px;'><p>Press '0' for B</p> </div> </div></div>","null","","","","","","","","","","","","","","","",""
"3520","","test","audio-keyboard-response","177","636120","0.0-9.0-1.73","5ce8a739759924000103cd64","condE","","resources/audio/wordStim/S3_AU_19_bxa_Step-8.wav","49","","","","","","resources/audio/wordStim/S3_AU_19_bxa_Step-8.wav","S3","19","bxa","8","MI","BL","S3-BL","1","1","true"
"null","","fixation","html-keyboard-response","178","637137","0.0-9.0-0.74","5ce8a739759924000103cd64","condE","","<div class=""vertical-center"" style='width:60%;'><p style='font-weight:bold;'>Does the middle word sound more like the first word (A) or the last word (B)?</p> <br> <div class=""container""> <div id=""a-box""> <p class=""title-text"">A</h3></p> </div> <div id=""x-box""> <p class=""title-text"">X<p> </div> <div id=""b-box""> <p class=""title-text"">B</p></div> <br> <div style='float: left;padding-left:30px;'><p>Press '1' for A</p></div><div style='float: right;padding-right:30px;'><p>Press '0' for B</p> </div> </div></div>","null","","","","","","","","","","","","","","","",""
"4040","","test","audio-keyboard-response","179","641183","0.0-9.0-1.74","5ce8a739759924000103cd64","condE","","resources/audio/wordStim/S3_AU_18_bxa_Step-7.wav","49","","","","","","resources/audio/wordStim/S3_AU_18_bxa_Step-7.wav","S3","18","bxa","7","MI","BL","S3-BL","1","1","true"
"null","","fixation","html-keyboard-response","180","642199","0.0-9.0-0.75","5ce8a739759924000103cd64","condE","","<div class=""vertical-center"" style='width:60%;'><p style='font-weight:bold;'>Does the middle word sound more like the first word (A) or the last word (B)?</p> <br> <div class=""container""> <div id=""a-box""> <p class=""title-text"">A</h3></p> </div> <div id=""x-box""> <p class=""title-text"">X<p> </div> <div id=""b-box""> <p class=""title-text"">B</p></div> <br> <div style='float: left;padding-left:30px;'><p>Press '1' for A</p></div><div style='float: right;padding-right:30px;'><p>Press '0' for B</p> </div> </div></div>","null","","","","","","","","","","","","","","","",""
"3709","","test","audio-keyboard-response","181","645911","0.0-9.0-1.75","5ce8a739759924000103cd64","condE","","resources/audio/wordStim/S3_AU_18_bxa_Step-2.wav","48","","","","","","resources/audio/wordStim/S3_AU_18_bxa_Step-2.wav","S3","18","bxa","2","MI","BL","S3-BL","1","0","false"
"null","","fixation","html-keyboard-response","182","646928","0.0-9.0-0.76","5ce8a739759924000103cd64","condE","","<div class=""vertical-center"" style='width:60%;'><p style='font-weight:bold;'>Does the middle word sound more like the first word (A) or the last word (B)?</p> <br> <div class=""container""> <div id=""a-box""> <p class=""title-text"">A</h3></p> </div> <div id=""x-box""> <p class=""title-text"">X<p> </div> <div id=""b-box""> <p class=""title-text"">B</p></div> <br> <div style='float: left;padding-left:30px;'><p>Press '1' for A</p></div><div style='float: right;padding-right:30px;'><p>Press '0' for B</p> </div> </div></div>","null","","","","","","","","","","","","","","","",""
"5960","","test","audio-keyboard-response","183","652887","0.0-9.0-1.76","5ce8a739759924000103cd64","condE","","resources/audio/wordStim/S3_AI_21_bxa_Step-2.wav","49","","","","","","resources/audio/wordStim/S3_AI_21_bxa_Step-2.wav","S3","21","bxa","2","MI","BL","S3-BL","1","1","true"
"null","","fixation","html-keyboard-response","184","653892","0.0-9.0-0.77","5ce8a739759924000103cd64","condE","","<div class=""vertical-center"" style='width:60%;'><p style='font-weight:bold;'>Does the middle word sound more like the first word (A) or the last word (B)?</p> <br> <div class=""container""> <div id=""a-box""> <p class=""title-text"">A</h3></p> </div> <div id=""x-box""> <p class=""title-text"">X<p> </div> <div id=""b-box""> <p class=""title-text"">B</p></div> <br> <div style='float: left;padding-left:30px;'><p>Press '1' for A</p></div><div style='float: right;padding-right:30px;'><p>Press '0' for B</p> </div> </div></div>","null","","","","","","","","","","","","","","","",""
"3699","","test","audio-keyboard-response","185","657591","0.0-9.0-1.77","5ce8a739759924000103cd64","condE","","resources/audio/wordStim/S3_AI_30_bxa_Step-5.wav","48","","","","","","resources/audio/wordStim/S3_AI_30_bxa_Step-5.wav","S3","30","bxa","5","MI","BL","S3-BL","1","0","false"
"null","","fixation","html-keyboard-response","186","658612","0.0-9.0-0.78","5ce8a739759924000103cd64","condE","","<div class=""vertical-center"" style='width:60%;'><p style='font-weight:bold;'>Does the middle word sound more like the first word (A) or the last word (B)?</p> <br> <div class=""container""> <div id=""a-box""> <p class=""title-text"">A</h3></p> </div> <div id=""x-box""> <p class=""title-text"">X<p> </div> <div id=""b-box""> <p class=""title-text"">B</p></div> <br> <div style='float: left;padding-left:30px;'><p>Press '1' for A</p></div><div style='float: right;padding-right:30px;'><p>Press '0' for B</p> </div> </div></div>","null","","","","","","","","","","","","","","","",""
"4379","","test","audio-keyboard-response","187","662991","0.0-9.0-1.78","5ce8a739759924000103cd64","condE","","resources/audio/wordStim/S3_AI_30_bxa_Step-3.wav","48","","","","","","resources/audio/wordStim/S3_AI_30_bxa_Step-3.wav","S3","30","bxa","3","MI","BL","S3-BL","1","0","false"
"null","","fixation","html-keyboard-response","188","664008","0.0-9.0-0.79","5ce8a739759924000103cd64","condE","","<div class=""vertical-center"" style='width:60%;'><p style='font-weight:bold;'>Does the middle word sound more like the first word (A) or the last word (B)?</p> <br> <div class=""container""> <div id=""a-box""> <p class=""title-text"">A</h3></p> </div> <div id=""x-box""> <p class=""title-text"">X<p> </div> <div id=""b-box""> <p class=""title-text"">B</p></div> <br> <div style='float: left;padding-left:30px;'><p>Press '1' for A</p></div><div style='float: right;padding-right:30px;'><p>Press '0' for B</p> </div> </div></div>","null","","","","","","","","","","","","","","","",""
"5400","","test","audio-keyboard-response","189","669407","0.0-9.0-1.79","5ce8a739759924000103cd64","condE","","resources/audio/wordStim/S3_AU_19_bxa_Step-3.wav","48","","","","","","resources/audio/wordStim/S3_AU_19_bxa_Step-3.wav","S3","19","bxa","3","MI","BL","S3-BL","1","0","false"
"null","","fixation","html-keyboard-response","190","670424","0.0-9.0-0.80","5ce8a739759924000103cd64","condE","","<div class=""vertical-center"" style='width:60%;'><p style='font-weight:bold;'>Does the middle word sound more like the first word (A) or the last word (B)?</p> <br> <div class=""container""> <div id=""a-box""> <p class=""title-text"">A</h3></p> </div> <div id=""x-box""> <p class=""title-text"">X<p> </div> <div id=""b-box""> <p class=""title-text"">B</p></div> <br> <div style='float: left;padding-left:30px;'><p>Press '1' for A</p></div><div style='float: right;padding-right:30px;'><p>Press '0' for B</p> </div> </div></div>","null","","","","","","","","","","","","","","","",""
"3821","","test","audio-keyboard-response","191","674247","0.0-9.0-1.80","5ce8a739759924000103cd64","condE","","resources/audio/wordStim/S3_AU_18_bxa_Step-8.wav","49","","","","","","resources/audio/wordStim/S3_AU_18_bxa_Step-8.wav","S3","18","bxa","8","MI","BL","S3-BL","1","1","true"
"null","","fixation","html-keyboard-response","192","675261","0.0-9.0-0.81","5ce8a739759924000103cd64","condE","","<div class=""vertical-center"" style='width:60%;'><p style='font-weight:bold;'>Does the middle word sound more like the first word (A) or the last word (B)?</p> <br> <div class=""container""> <div id=""a-box""> <p class=""title-text"">A</h3></p> </div> <div id=""x-box""> <p class=""title-text"">X<p> </div> <div id=""b-box""> <p class=""title-text"">B</p></div> <br> <div style='float: left;padding-left:30px;'><p>Press '1' for A</p></div><div style='float: right;padding-right:30px;'><p>Press '0' for B</p> </div> </div></div>","null","","","","","","","","","","","","","","","",""
"4309","","test","audio-keyboard-response","193","679567","0.0-9.0-1.81","5ce8a739759924000103cd64","condE","","resources/audio/wordStim/S3_AU_18_bxa_Step-4.wav","49","","","","","","resources/audio/wordStim/S3_AU_18_bxa_Step-4.wav","S3","18","bxa","4","MI","BL","S3-BL","1","1","true"
"null","","fixation","html-keyboard-response","194","680581","0.0-9.0-0.82","5ce8a739759924000103cd64","condE","","<div class=""vertical-center"" style='width:60%;'><p style='font-weight:bold;'>Does the middle word sound more like the first word (A) or the last word (B)?</p> <br> <div class=""container""> <div id=""a-box""> <p class=""title-text"">A</h3></p> </div> <div id=""x-box""> <p class=""title-text"">X<p> </div> <div id=""b-box""> <p class=""title-text"">B</p></div> <br> <div style='float: left;padding-left:30px;'><p>Press '1' for A</p></div><div style='float: right;padding-right:30px;'><p>Press '0' for B</p> </div> </div></div>","null","","","","","","","","","","","","","","","",""
"4248","","test","audio-keyboard-response","195","684831","0.0-9.0-1.82","5ce8a739759924000103cd64","condE","","resources/audio/wordStim/S3_AU_18_bxa_Step-3.wav","49","","","","","","resources/audio/wordStim/S3_AU_18_bxa_Step-3.wav","S3","18","bxa","3","MI","BL","S3-BL","1","1","true"
"null","","fixation","html-keyboard-response","196","685851","0.0-9.0-0.83","5ce8a739759924000103cd64","condE","","<div class=""vertical-center"" style='width:60%;'><p style='font-weight:bold;'>Does the middle word sound more like the first word (A) or the last word (B)?</p> <br> <div class=""container""> <div id=""a-box""> <p class=""title-text"">A</h3></p> </div> <div id=""x-box""> <p class=""title-text"">X<p> </div> <div id=""b-box""> <p class=""title-text"">B</p></div> <br> <div style='float: left;padding-left:30px;'><p>Press '1' for A</p></div><div style='float: right;padding-right:30px;'><p>Press '0' for B</p> </div> </div></div>","null","","","","","","","","","","","","","","","",""
"3979","","test","audio-keyboard-response","197","689830","0.0-9.0-1.83","5ce8a739759924000103cd64","condE","","resources/audio/wordStim/S3_AU_18_axb_Step-6.wav","48","","","","","","resources/audio/wordStim/S3_AU_18_axb_Step-6.wav","S3","18","axb","6","MI","BL","S3-BL","0","0","true"
"1438.865000003716","","break","html-keyboard-response","198","691774","0.0-9.0-2.83-0.83","5ce8a739759924000103cd64","condE","","<div class=""vertical-center""><p>Feel free to take a break!</p><i>When you're ready to continue, press SPACE to begin the next trial.</i></p></div>","32","","","","","","","","","","","","","","","",""
"1719.4799999997485","","","html-keyboard-response","199","693494","0.0-10.0","5ce8a739759924000103cd64","condE","","<div class=""vertical-center""><img src=""resources/images/BL_face_b.png"" style=""width:450px;height:300px;""><p>This is the speaker you're about to hear.</p><p> <br> <i>Press SPACE to continue.</i></p></div>","32","","","","","","","","","","","","","","","",""
"null","","fixation","html-keyboard-response","200","693998","0.0-11.0-0.0","5ce8a739759924000103cd64","condE","","<div class=""vertical-center"" style='width:60%;'><p style='font-weight:bold;'>Does the middle word sound more like the first word (A) or the last word (B)?</p> <br> <div class=""container""> <div id=""a-box""> <p class=""title-text"">A</h3></p> </div> <div id=""x-box""> <p class=""title-text"">X<p> </div> <div id=""b-box""> <p class=""title-text"">B</p></div> <br> <div style='float: left;padding-left:30px;'><p>Press '1' for A</p></div><div style='float: right;padding-right:30px;'><p>Press '0' for B</p> </div> </div></div>","null","","","","","","","","","","","","","","","",""
"5901","","test","audio-keyboard-response","201","699894","0.0-11.0-1.0","5ce8a739759924000103cd64","condE","","resources/audio/wordStim/S9_AU_18_axb_Step-6.wav","49","","","","","","resources/audio/wordStim/S9_AU_18_axb_Step-6.wav","S9","18","axb","6","CN","BL","S9-BL","0","1","false"
"null","","fixation","html-keyboard-response","202","700910","0.0-11.0-0.1","5ce8a739759924000103cd64","condE","","<div class=""vertical-center"" style='width:60%;'><p style='font-weight:bold;'>Does the middle word sound more like the first word (A) or the last word (B)?</p> <br> <div class=""container""> <div id=""a-box""> <p class=""title-text"">A</h3></p> </div> <div id=""x-box""> <p class=""title-text"">X<p> </div> <div id=""b-box""> <p class=""title-text"">B</p></div> <br> <div style='float: left;padding-left:30px;'><p>Press '1' for A</p></div><div style='float: right;padding-right:30px;'><p>Press '0' for B</p> </div> </div></div>","null","","","","","","","","","","","","","","","",""
"3312","","test","audio-keyboard-response","203","704214","0.0-11.0-1.1","5ce8a739759924000103cd64","condE","","resources/audio/wordStim/S9_AI_23_bxa_Step-8.wav","49","","","","","","resources/audio/wordStim/S9_AI_23_bxa_Step-8.wav","S9","23","bxa","8","CN","BL","S9-BL","1","1","true"
"null","","fixation","html-keyboard-response","204","705235","0.0-11.0-0.2","5ce8a739759924000103cd64","condE","","<div class=""vertical-center"" style='width:60%;'><p style='font-weight:bold;'>Does the middle word sound more like the first word (A) or the last word (B)?</p> <br> <div class=""container""> <div id=""a-box""> <p class=""title-text"">A</h3></p> </div> <div id=""x-box""> <p class=""title-text"">X<p> </div> <div id=""b-box""> <p class=""title-text"">B</p></div> <br> <div style='float: left;padding-left:30px;'><p>Press '1' for A</p></div><div style='float: right;padding-right:30px;'><p>Press '0' for B</p> </div> </div></div>","null","","","","","","","","","","","","","","","",""
"3560","","test","audio-keyboard-response","205","708798","0.0-11.0-1.2","5ce8a739759924000103cd64","condE","","resources/audio/wordStim/S9_AI_25_bxa_Step-4.wav","49","","","","","","resources/audio/wordStim/S9_AI_25_bxa_Step-4.wav","S9","25","bxa","4","CN","BL","S9-BL","1","1","true"
"null","","fixation","html-keyboard-response","206","709812","0.0-11.0-0.3","5ce8a739759924000103cd64","condE","","<div class=""vertical-center"" style='width:60%;'><p style='font-weight:bold;'>Does the middle word sound more like the first word (A) or the last word (B)?</p> <br> <div class=""container""> <div id=""a-box""> <p class=""title-text"">A</h3></p> </div> <div id=""x-box""> <p class=""title-text"">X<p> </div> <div id=""b-box""> <p class=""title-text"">B</p></div> <br> <div style='float: left;padding-left:30px;'><p>Press '1' for A</p></div><div style='float: right;padding-right:30px;'><p>Press '0' for B</p> </div> </div></div>","null","","","","","","","","","","","","","","","",""
"3371","","test","audio-keyboard-response","207","713182","0.0-11.0-1.3","5ce8a739759924000103cd64","condE","","resources/audio/wordStim/S9_AI_25_axb_Step-3.wav","49","","","","","","resources/audio/wordStim/S9_AI_25_axb_Step-3.wav","S9","25","axb","3","CN","BL","S9-BL","0","1","false"
"null","","fixation","html-keyboard-response","208","714190","0.0-11.0-0.4","5ce8a739759924000103cd64","condE","","<div class=""vertical-center"" style='width:60%;'><p style='font-weight:bold;'>Does the middle word sound more like the first word (A) or the last word (B)?</p> <br> <div class=""container""> <div id=""a-box""> <p class=""title-text"">A</h3></p> </div> <div id=""x-box""> <p class=""title-text"">X<p> </div> <div id=""b-box""> <p class=""title-text"">B</p></div> <br> <div style='float: left;padding-left:30px;'><p>Press '1' for A</p></div><div style='float: right;padding-right:30px;'><p>Press '0' for B</p> </div> </div></div>","null","","","","","","","","","","","","","","","",""
"3680","","test","audio-keyboard-response","209","717870","0.0-11.0-1.4","5ce8a739759924000103cd64","condE","","resources/audio/wordStim/S9_AU_18_bxa_Step-7.wav","49","","","","","","resources/audio/wordStim/S9_AU_18_bxa_Step-7.wav","S9","18","bxa","7","CN","BL","S9-BL","1","1","true"
"null","","fixation","html-keyboard-response","210","718893","0.0-11.0-0.5","5ce8a739759924000103cd64","condE","","<div class=""vertical-center"" style='width:60%;'><p style='font-weight:bold;'>Does the middle word sound more like the first word (A) or the last word (B)?</p> <br> <div class=""container""> <div id=""a-box""> <p class=""title-text"">A</h3></p> </div> <div id=""x-box""> <p class=""title-text"">X<p> </div> <div id=""b-box""> <p class=""title-text"">B</p></div> <br> <div style='float: left;padding-left:30px;'><p>Press '1' for A</p></div><div style='float: right;padding-right:30px;'><p>Press '0' for B</p> </div> </div></div>","null","","","","","","","","","","","","","","","",""
"4320","","test","audio-keyboard-response","211","723213","0.0-11.0-1.5","5ce8a739759924000103cd64","condE","","resources/audio/wordStim/S9_AU_11_bxa_Step-5.wav","49","","","","","","resources/audio/wordStim/S9_AU_11_bxa_Step-5.wav","S9","11","bxa","5","CN","BL","S9-BL","1","1","true"
"null","","fixation","html-keyboard-response","212","724228","0.0-11.0-0.6","5ce8a739759924000103cd64","condE","","<div class=""vertical-center"" style='width:60%;'><p style='font-weight:bold;'>Does the middle word sound more like the first word (A) or the last word (B)?</p> <br> <div class=""container""> <div id=""a-box""> <p class=""title-text"">A</h3></p> </div> <div id=""x-box""> <p class=""title-text"">X<p> </div> <div id=""b-box""> <p class=""title-text"">B</p></div> <br> <div style='float: left;padding-left:30px;'><p>Press '1' for A</p></div><div style='float: right;padding-right:30px;'><p>Press '0' for B</p> </div> </div></div>","null","","","","","","","","","","","","","","","",""
