"rt","url","trial_role","trial_type","trial_index","time_elapsed","internal_node_id","participantId","conditionId","view_history","stimulus","key_press","button_pressed","correct_answer","correct_response","success","vowel","wordStim","speaker","sentNum","order","step","speakerIdentity","speakerGuise","guiseName","raised_answer","key_response","raised_response"
"58538.94","micr.axb.consent.html","consent","external-html","0","59520","0.0-0.0","5f5287a0af6c8c555f3015e1","condE","","","","","","","","","","","","","","","","","","",""
"37150.58500000001","","instructions","instructions","1","96675","0.0-1.0","5f5287a0af6c8c555f3015e1","condE","[{""page_index"":0,""viewing_time"":15698.020000000004},{""page_index"":1,""viewing_time"":7546.0350000000035},{""page_index"":2,""viewing_time"":13904.290000000008}]","","","","","","","","","","","","","","","","","",""
"null","","fixation","html-keyboard-response","2","97182","0.0-2.0-0.0","5f5287a0af6c8c555f3015e1","condE","","<div class=""vertical-center"" style=""font-size:60px;"">+</div>","null","","","","","","","","","","","","","","","",""
"5638.544999999984","","tonetest","audio-button-response","3","102833","0.0-2.0-1.0","5f5287a0af6c8c555f3015e1","condE","","../../src/audio/toneTest_5.wav","","0","0","true","","","","","","","","","","","","",""
"null","","fixation","html-keyboard-response","4","103339","0.0-2.0-0.1","5f5287a0af6c8c555f3015e1","condE","","<div class=""vertical-center"" style=""font-size:60px;"">+</div>","null","","","","","","","","","","","","","","","",""
"4908.445000000007","","tonetest","audio-button-response","5","108252","0.0-2.0-1.1","5f5287a0af6c8c555f3015e1","condE","","../../src/audio/toneTest_2.wav","","1","1","true","","","","","","","","","","","","",""
"null","","fixation","html-keyboard-response","6","108756","0.0-2.0-0.2","5f5287a0af6c8c555f3015e1","condE","","<div class=""vertical-center"" style=""font-size:60px;"">+</div>","null","","","","","","","","","","","","","","","",""
"5035.445000000007","","tonetest","audio-button-response","7","113795","0.0-2.0-1.2","5f5287a0af6c8c555f3015e1","condE","","../../src/audio/toneTest_3.wav","","2","2","true","","","","","","","","","","","","",""
"null","","fixation","html-keyboard-response","8","114299","0.0-2.0-0.3","5f5287a0af6c8c555f3015e1","condE","","<div class=""vertical-center"" style=""font-size:60px;"">+</div>","null","","","","","","","","","","","","","","","",""
"4990.010000000009","","tonetest","audio-button-response","9","119289","0.0-2.0-1.3","5f5287a0af6c8c555f3015e1","condE","","../../src/audio/toneTest_5.wav","","0","0","true","","","","","","","","","","","","",""
"null","","fixation","html-keyboard-response","10","119795","0.0-2.0-0.4","5f5287a0af6c8c555f3015e1","condE","","<div class=""vertical-center"" style=""font-size:60px;"">+</div>","null","","","","","","","","","","","","","","","",""
"4797.209999999963","","tonetest","audio-button-response","11","124592","0.0-2.0-1.4","5f5287a0af6c8c555f3015e1","condE","","../../src/audio/toneTest_4.wav","","1","1","true","","","","","","","","","","","","",""
"null","","fixation","html-keyboard-response","12","125097","0.0-2.0-0.5","5f5287a0af6c8c555f3015e1","condE","","<div class=""vertical-center"" style=""font-size:60px;"">+</div>","null","","","","","","","","","","","","","","","",""
"4783.359999999986","","tonetest","audio-button-response","13","129884","0.0-2.0-1.5","5f5287a0af6c8c555f3015e1","condE","","../../src/audio/toneTest_2.wav","","1","1","true","","","","","","","","","","","","",""
"4893.539999999979","","instructions","html-keyboard-response","14","134782","0.0-3.0","5f5287a0af6c8c555f3015e1","condE","","<div class=""vertical-center""><p><b>Your score was 6/6.</b></p><p>If you scored below 6, please ensure that you are wearing properly functioning headphones and in a quiet location free of distractions.</p><p><i>To continue to the main experiment, press SPACE.</i></p></div>","32","","","","","","","","","","","","","","","",""
"","","","fullscreen","15","137615","0.0-4.0","5f5287a0af6c8c555f3015e1","condE","","","","","","","true","","","","","","","","","","","",""
"6569.8000000000175","","instructions","instructions","16","144186","0.0-5.0","5f5287a0af6c8c555f3015e1","condE","[{""page_index"":0,""viewing_time"":6569.160000000033}]","","","","","","","","","","","","","","","","","",""
"null","","fixation","html-keyboard-response","17","144690","0.0-6.0-0.0","5f5287a0af6c8c555f3015e1","condE","","<div class=""vertical-center"" style='width:60%;'><p style='font-weight:bold;'>Does the middle word sound more like the first word (A) or the last word (B)?</p> <br> <div class=""container""> <div id=""a-box""> <p class=""title-text"">A</h3></p> </div> <div id=""x-box""> <p class=""title-text"">X<p> </div> <div id=""b-box""> <p class=""title-text"">B</p></div> <br> <div style='float: left;padding-left:30px;'><p>Press '1' for A</p></div><div style='float: right;padding-right:30px;'><p>Press '0' for B</p> </div> </div></div>","null","","","","","","","","","","","","","","","",""
"12179","","practice","audio-keyboard-response","18","156878","0.0-6.0-1.0","5f5287a0af6c8c555f3015e1","condE","","resources/audio/practiceStim/S1_AU_14_bxa_Step-6.wav","49","","","","","","","","","","","","","","","",""
"null","","fixation","html-keyboard-response","19","157883","0.0-6.0-0.1","5f5287a0af6c8c555f3015e1","condE","","<div class=""vertical-center"" style='width:60%;'><p style='font-weight:bold;'>Does the middle word sound more like the first word (A) or the last word (B)?</p> <br> <div class=""container""> <div id=""a-box""> <p class=""title-text"">A</h3></p> </div> <div id=""x-box""> <p class=""title-text"">X<p> </div> <div id=""b-box""> <p class=""title-text"">B</p></div> <br> <div style='float: left;padding-left:30px;'><p>Press '1' for A</p></div><div style='float: right;padding-right:30px;'><p>Press '0' for B</p> </div> </div></div>","null","","","","","","","","","","","","","","","",""
"5651","","practice","audio-keyboard-response","20","163530","0.0-6.0-1.1","5f5287a0af6c8c555f3015e1","condE","","resources/audio/practiceStim/S1_AI_21_axb_Step-6.wav","49","","","","","","","","","","","","","","","",""
"null","","fixation","html-keyboard-response","21","164537","0.0-6.0-0.2","5f5287a0af6c8c555f3015e1","condE","","<div class=""vertical-center"" style='width:60%;'><p style='font-weight:bold;'>Does the middle word sound more like the first word (A) or the last word (B)?</p> <br> <div class=""container""> <div id=""a-box""> <p class=""title-text"">A</h3></p> </div> <div id=""x-box""> <p class=""title-text"">X<p> </div> <div id=""b-box""> <p class=""title-text"">B</p></div> <br> <div style='float: left;padding-left:30px;'><p>Press '1' for A</p></div><div style='float: right;padding-right:30px;'><p>Press '0' for B</p> </div> </div></div>","null","","","","","","","","","","","","","","","",""
"4539","","practice","audio-keyboard-response","22","169070","0.0-6.0-1.2","5f5287a0af6c8c555f3015e1","condE","","resources/audio/practiceStim/S1_AU_14_axb_Step-6.wav","49","","","","","","","","","","","","","","","",""
"null","","fixation","html-keyboard-response","23","170074","0.0-6.0-0.3","5f5287a0af6c8c555f3015e1","condE","","<div class=""vertical-center"" style='width:60%;'><p style='font-weight:bold;'>Does the middle word sound more like the first word (A) or the last word (B)?</p> <br> <div class=""container""> <div id=""a-box""> <p class=""title-text"">A</h3></p> </div> <div id=""x-box""> <p class=""title-text"">X<p> </div> <div id=""b-box""> <p class=""title-text"">B</p></div> <br> <div style='float: left;padding-left:30px;'><p>Press '1' for A</p></div><div style='float: right;padding-right:30px;'><p>Press '0' for B</p> </div> </div></div>","null","","","","","","","","","","","","","","","",""
"4581","","practice","audio-keyboard-response","24","174650","0.0-6.0-1.3","5f5287a0af6c8c555f3015e1","condE","","resources/audio/practiceStim/S1_AI_21_bxa_Step-6.wav","48","","","","","","","","","","","","","","","",""
"2523.0250000000233","","instructions","instructions","25","177679","0.0-7.0","5f5287a0af6c8c555f3015e1","condE","[{""page_index"":0,""viewing_time"":2522.445000000007}]","","","","","","","","","","","","","","","","","",""
"2902.2999999999884","","","html-keyboard-response","26","180583","0.0-8.0","5f5287a0af6c8c555f3015e1","condE","","<div class=""vertical-center""><img src=""resources/images/BL_face_a.png"" style=""width:450px;height:300px;""><p>This is the speaker you're about to hear.</p><p> <br> <i>Press SPACE to continue.</i></p></div>","32","","","","","","","","","","","","","","","",""
"null","","fixation","html-keyboard-response","27","181090","0.0-9.0-0.0","5f5287a0af6c8c555f3015e1","condE","","<div class=""vertical-center"" style='width:60%;'><p style='font-weight:bold;'>Does the middle word sound more like the first word (A) or the last word (B)?</p> <br> <div class=""container""> <div id=""a-box""> <p class=""title-text"">A</h3></p> </div> <div id=""x-box""> <p class=""title-text"">X<p> </div> <div id=""b-box""> <p class=""title-text"">B</p></div> <br> <div style='float: left;padding-left:30px;'><p>Press '1' for A</p></div><div style='float: right;padding-right:30px;'><p>Press '0' for B</p> </div> </div></div>","null","","","","","","","","","","","","","","","",""
"10819","","test","audio-keyboard-response","28","191921","0.0-9.0-1.0","5f5287a0af6c8c555f3015e1","condE","","resources/audio/wordStim/S3_AI_21_bxa_Step-6.wav","49","","","","","","resources/audio/wordStim/S3_AI_21_bxa_Step-6.wav","S3","21","bxa","6","MI","BL","S3-BL","1","1","true"
"null","","fixation","html-keyboard-response","29","192929","0.0-9.0-0.1","5f5287a0af6c8c555f3015e1","condE","","<div class=""vertical-center"" style='width:60%;'><p style='font-weight:bold;'>Does the middle word sound more like the first word (A) or the last word (B)?</p> <br> <div class=""container""> <div id=""a-box""> <p class=""title-text"">A</h3></p> </div> <div id=""x-box""> <p class=""title-text"">X<p> </div> <div id=""b-box""> <p class=""title-text"">B</p></div> <br> <div style='float: left;padding-left:30px;'><p>Press '1' for A</p></div><div style='float: right;padding-right:30px;'><p>Press '0' for B</p> </div> </div></div>","null","","","","","","","","","","","","","","","",""
"4539","","test","audio-keyboard-response","30","197473","0.0-9.0-1.1","5f5287a0af6c8c555f3015e1","condE","","resources/audio/wordStim/S3_AU_19_bxa_Step-6.wav","49","","","","","","resources/audio/wordStim/S3_AU_19_bxa_Step-6.wav","S3","19","bxa","6","MI","BL","S3-BL","1","1","true"
"null","","fixation","html-keyboard-response","31","198478","0.0-9.0-0.2","5f5287a0af6c8c555f3015e1","condE","","<div class=""vertical-center"" style='width:60%;'><p style='font-weight:bold;'>Does the middle word sound more like the first word (A) or the last word (B)?</p> <br> <div class=""container""> <div id=""a-box""> <p class=""title-text"">A</h3></p> </div> <div id=""x-box""> <p class=""title-text"">X<p> </div> <div id=""b-box""> <p class=""title-text"">B</p></div> <br> <div style='float: left;padding-left:30px;'><p>Press '1' for A</p></div><div style='float: right;padding-right:30px;'><p>Press '0' for B</p> </div> </div></div>","null","","","","","","","","","","","","","","","",""
"4141","","test","audio-keyboard-response","32","202619","0.0-9.0-1.2","5f5287a0af6c8c555f3015e1","condE","","resources/audio/wordStim/S3_AI_21_axb_Step-2.wav","49","","","","","","resources/audio/wordStim/S3_AI_21_axb_Step-2.wav","S3","21","axb","2","MI","BL","S3-BL","0","1","false"
"null","","fixation","html-keyboard-response","33","203624","0.0-9.0-0.3","5f5287a0af6c8c555f3015e1","condE","","<div class=""vertical-center"" style='width:60%;'><p style='font-weight:bold;'>Does the middle word sound more like the first word (A) or the last word (B)?</p> <br> <div class=""container""> <div id=""a-box""> <p class=""title-text"">A</h3></p> </div> <div id=""x-box""> <p class=""title-text"">X<p> </div> <div id=""b-box""> <p class=""title-text"">B</p></div> <br> <div style='float: left;padding-left:30px;'><p>Press '1' for A</p></div><div style='float: right;padding-right:30px;'><p>Press '0' for B</p> </div> </div></div>","null","","","","","","","","","","","","","","","",""
"4472","","test","audio-keyboard-response","34","208095","0.0-9.0-1.3","5f5287a0af6c8c555f3015e1","condE","","resources/audio/wordStim/S3_AI_30_bxa_Step-8.wav","48","","","","","","resources/audio/wordStim/S3_AI_30_bxa_Step-8.wav","S3","30","bxa","8","MI","BL","S3-BL","1","0","false"
"null","","fixation","html-keyboard-response","35","209103","0.0-9.0-0.4","5f5287a0af6c8c555f3015e1","condE","","<div class=""vertical-center"" style='width:60%;'><p style='font-weight:bold;'>Does the middle word sound more like the first word (A) or the last word (B)?</p> <br> <div class=""container""> <div id=""a-box""> <p class=""title-text"">A</h3></p> </div> <div id=""x-box""> <p class=""title-text"">X<p> </div> <div id=""b-box""> <p class=""title-text"">B</p></div> <br> <div style='float: left;padding-left:30px;'><p>Press '1' for A</p></div><div style='float: right;padding-right:30px;'><p>Press '0' for B</p> </div> </div></div>","null","","","","","","","","","","","","","","","",""
"5272","","test","audio-keyboard-response","36","214370","0.0-9.0-1.4","5f5287a0af6c8c555f3015e1","condE","","resources/audio/wordStim/S3_AU_18_bxa_Step-2.wav","49","","","","","","resources/audio/wordStim/S3_AU_18_bxa_Step-2.wav","S3","18","bxa","2","MI","BL","S3-BL","1","1","true"
"null","","fixation","html-keyboard-response","37","215377","0.0-9.0-0.5","5f5287a0af6c8c555f3015e1","condE","","<div class=""vertical-center"" style='width:60%;'><p style='font-weight:bold;'>Does the middle word sound more like the first word (A) or the last word (B)?</p> <br> <div class=""container""> <div id=""a-box""> <p class=""title-text"">A</h3></p> </div> <div id=""x-box""> <p class=""title-text"">X<p> </div> <div id=""b-box""> <p class=""title-text"">B</p></div> <br> <div style='float: left;padding-left:30px;'><p>Press '1' for A</p></div><div style='float: right;padding-right:30px;'><p>Press '0' for B</p> </div> </div></div>","null","","","","","","","","","","","","","","","",""
"4200","","test","audio-keyboard-response","38","219577","0.0-9.0-1.5","5f5287a0af6c8c555f3015e1","condE","","resources/audio/wordStim/S3_AU_19_bxa_Step-4.wav","48","","","","","","resources/audio/wordStim/S3_AU_19_bxa_Step-4.wav","S3","19","bxa","4","MI","BL","S3-BL","1","0","false"
"null","","fixation","html-keyboard-response","39","220585","0.0-9.0-0.6","5f5287a0af6c8c555f3015e1","condE","","<div class=""vertical-center"" style='width:60%;'><p style='font-weight:bold;'>Does the middle word sound more like the first word (A) or the last word (B)?</p> <br> <div class=""container""> <div id=""a-box""> <p class=""title-text"">A</h3></p> </div> <div id=""x-box""> <p class=""title-text"">X<p> </div> <div id=""b-box""> <p class=""title-text"">B</p></div> <br> <div style='float: left;padding-left:30px;'><p>Press '1' for A</p></div><div style='float: right;padding-right:30px;'><p>Press '0' for B</p> </div> </div></div>","null","","","","","","","","","","","","","","","",""
"4120","","test","audio-keyboard-response","40","224705","0.0-9.0-1.6","5f5287a0af6c8c555f3015e1","condE","","resources/audio/wordStim/S3_AU_19_axb_Step-8.wav","49","","","","","","resources/audio/wordStim/S3_AU_19_axb_Step-8.wav","S3","19","axb","8","MI","BL","S3-BL","0","1","false"
"null","","fixation","html-keyboard-response","41","225712","0.0-9.0-0.7","5f5287a0af6c8c555f3015e1","condE","","<div class=""vertical-center"" style='width:60%;'><p style='font-weight:bold;'>Does the middle word sound more like the first word (A) or the last word (B)?</p> <br> <div class=""container""> <div id=""a-box""> <p class=""title-text"">A</h3></p> </div> <div id=""x-box""> <p class=""title-text"">X<p> </div> <div id=""b-box""> <p class=""title-text"">B</p></div> <br> <div style='float: left;padding-left:30px;'><p>Press '1' for A</p></div><div style='float: right;padding-right:30px;'><p>Press '0' for B</p> </div> </div></div>","null","","","","","","","","","","","","","","","",""
"4901","","test","audio-keyboard-response","42","230614","0.0-9.0-1.7","5f5287a0af6c8c555f3015e1","condE","","resources/audio/wordStim/S3_AU_18_bxa_Step-6.wav","49","","","","","","resources/audio/wordStim/S3_AU_18_bxa_Step-6.wav","S3","18","bxa","6","MI","BL","S3-BL","1","1","true"
"null","","fixation","html-keyboard-response","43","231618","0.0-9.0-0.8","5f5287a0af6c8c555f3015e1","condE","","<div class=""vertical-center"" style='width:60%;'><p style='font-weight:bold;'>Does the middle word sound more like the first word (A) or the last word (B)?</p> <br> <div class=""container""> <div id=""a-box""> <p class=""title-text"">A</h3></p> </div> <div id=""x-box""> <p class=""title-text"">X<p> </div> <div id=""b-box""> <p class=""title-text"">B</p></div> <br> <div style='float: left;padding-left:30px;'><p>Press '1' for A</p></div><div style='float: right;padding-right:30px;'><p>Press '0' for B</p> </div> </div></div>","null","","","","","","","","","","","","","","","",""
"4248","","test","audio-keyboard-response","44","235864","0.0-9.0-1.8","5f5287a0af6c8c555f3015e1","condE","","resources/audio/wordStim/S3_AI_21_bxa_Step-3.wav","49","","","","","","resources/audio/wordStim/S3_AI_21_bxa_Step-3.wav","S3","21","bxa","3","MI","BL","S3-BL","1","1","true"
"null","","fixation","html-keyboard-response","45","236868","0.0-9.0-0.9","5f5287a0af6c8c555f3015e1","condE","","<div class=""vertical-center"" style='width:60%;'><p style='font-weight:bold;'>Does the middle word sound more like the first word (A) or the last word (B)?</p> <br> <div class=""container""> <div id=""a-box""> <p class=""title-text"">A</h3></p> </div> <div id=""x-box""> <p class=""title-text"">X<p> </div> <div id=""b-box""> <p class=""title-text"">B</p></div> <br> <div style='float: left;padding-left:30px;'><p>Press '1' for A</p></div><div style='float: right;padding-right:30px;'><p>Press '0' for B</p> </div> </div></div>","null","","","","","","","","","","","","","","","",""
"4661","","test","audio-keyboard-response","46","241540","0.0-9.0-1.9","5f5287a0af6c8c555f3015e1","condE","","resources/audio/wordStim/S3_AU_18_bxa_Step-4.wav","49","","","","","","resources/audio/wordStim/S3_AU_18_bxa_Step-4.wav","S3","18","bxa","4","MI","BL","S3-BL","1","1","true"
"null","","fixation","html-keyboard-response","47","242548","0.0-9.0-0.10","5f5287a0af6c8c555f3015e1","condE","","<div class=""vertical-center"" style='width:60%;'><p style='font-weight:bold;'>Does the middle word sound more like the first word (A) or the last word (B)?</p> <br> <div class=""container""> <div id=""a-box""> <p class=""title-text"">A</h3></p> </div> <div id=""x-box""> <p class=""title-text"">X<p> </div> <div id=""b-box""> <p class=""title-text"">B</p></div> <br> <div style='float: left;padding-left:30px;'><p>Press '1' for A</p></div><div style='float: right;padding-right:30px;'><p>Press '0' for B</p> </div> </div></div>","null","","","","","","","","","","","","","","","",""
"5112","","test","audio-keyboard-response","48","247653","0.0-9.0-1.10","5f5287a0af6c8c555f3015e1","condE","","resources/audio/wordStim/S3_AI_21_axb_Step-7.wav","49","","","","","","resources/audio/wordStim/S3_AI_21_axb_Step-7.wav","S3","21","axb","7","MI","BL","S3-BL","0","1","false"
"null","","fixation","html-keyboard-response","49","248658","0.0-9.0-0.11","5f5287a0af6c8c555f3015e1","condE","","<div class=""vertical-center"" style='width:60%;'><p style='font-weight:bold;'>Does the middle word sound more like the first word (A) or the last word (B)?</p> <br> <div class=""container""> <div id=""a-box""> <p class=""title-text"">A</h3></p> </div> <div id=""x-box""> <p class=""title-text"">X<p> </div> <div id=""b-box""> <p class=""title-text"">B</p></div> <br> <div style='float: left;padding-left:30px;'><p>Press '1' for A</p></div><div style='float: right;padding-right:30px;'><p>Press '0' for B</p> </div> </div></div>","null","","","","","","","","","","","","","","","",""
"4688","","test","audio-keyboard-response","50","253347","0.0-9.0-1.11","5f5287a0af6c8c555f3015e1","condE","","resources/audio/wordStim/S3_AI_22_bxa_Step-4.wav","48","","","","","","resources/audio/wordStim/S3_AI_22_bxa_Step-4.wav","S3","22","bxa","4","MI","BL","S3-BL","1","0","false"
"null","","fixation","html-keyboard-response","51","254379","0.0-9.0-0.12","5f5287a0af6c8c555f3015e1","condE","","<div class=""vertical-center"" style='width:60%;'><p style='font-weight:bold;'>Does the middle word sound more like the first word (A) or the last word (B)?</p> <br> <div class=""container""> <div id=""a-box""> <p class=""title-text"">A</h3></p> </div> <div id=""x-box""> <p class=""title-text"">X<p> </div> <div id=""b-box""> <p class=""title-text"">B</p></div> <br> <div style='float: left;padding-left:30px;'><p>Press '1' for A</p></div><div style='float: right;padding-right:30px;'><p>Press '0' for B</p> </div> </div></div>","null","","","","","","","","","","","","","","","",""
"4821","","test","audio-keyboard-response","52","259204","0.0-9.0-1.12","5f5287a0af6c8c555f3015e1","condE","","resources/audio/wordStim/S3_AU_18_bxa_Step-7.wav","49","","","","","","resources/audio/wordStim/S3_AU_18_bxa_Step-7.wav","S3","18","bxa","7","MI","BL","S3-BL","1","1","true"
"null","","fixation","html-keyboard-response","53","260210","0.0-9.0-0.13","5f5287a0af6c8c555f3015e1","condE","","<div class=""vertical-center"" style='width:60%;'><p style='font-weight:bold;'>Does the middle word sound more like the first word (A) or the last word (B)?</p> <br> <div class=""container""> <div id=""a-box""> <p class=""title-text"">A</h3></p> </div> <div id=""x-box""> <p class=""title-text"">X<p> </div> <div id=""b-box""> <p class=""title-text"">B</p></div> <br> <div style='float: left;padding-left:30px;'><p>Press '1' for A</p></div><div style='float: right;padding-right:30px;'><p>Press '0' for B</p> </div> </div></div>","null","","","","","","","","","","","","","","","",""
"3379","","test","audio-keyboard-response","54","263601","0.0-9.0-1.13","5f5287a0af6c8c555f3015e1","condE","","resources/audio/wordStim/S3_AI_21_axb_Step-5.wav","48","","","","","","resources/audio/wordStim/S3_AI_21_axb_Step-5.wav","S3","21","axb","5","MI","BL","S3-BL","0","0","true"
"null","","fixation","html-keyboard-response","55","264607","0.0-9.0-0.14","5f5287a0af6c8c555f3015e1","condE","","<div class=""vertical-center"" style='width:60%;'><p style='font-weight:bold;'>Does the middle word sound more like the first word (A) or the last word (B)?</p> <br> <div class=""container""> <div id=""a-box""> <p class=""title-text"">A</h3></p> </div> <div id=""x-box""> <p class=""title-text"">X<p> </div> <div id=""b-box""> <p class=""title-text"">B</p></div> <br> <div style='float: left;padding-left:30px;'><p>Press '1' for A</p></div><div style='float: right;padding-right:30px;'><p>Press '0' for B</p> </div> </div></div>","null","","","","","","","","","","","","","","","",""
"4091","","test","audio-keyboard-response","56","268698","0.0-9.0-1.14","5f5287a0af6c8c555f3015e1","condE","","resources/audio/wordStim/S3_AU_20_axb_Step-3.wav","48","","","","","","resources/audio/wordStim/S3_AU_20_axb_Step-3.wav","S3","20","axb","3","MI","BL","S3-BL","0","0","true"
"null","","fixation","html-keyboard-response","57","269705","0.0-9.0-0.15","5f5287a0af6c8c555f3015e1","condE","","<div class=""vertical-center"" style='width:60%;'><p style='font-weight:bold;'>Does the middle word sound more like the first word (A) or the last word (B)?</p> <br> <div class=""container""> <div id=""a-box""> <p class=""title-text"">A</h3></p> </div> <div id=""x-box""> <p class=""title-text"">X<p> </div> <div id=""b-box""> <p class=""title-text"">B</p></div> <br> <div style='float: left;padding-left:30px;'><p>Press '1' for A</p></div><div style='float: right;padding-right:30px;'><p>Press '0' for B</p> </div> </div></div>","null","","","","","","","","","","","","","","","",""
"4341","","test","audio-keyboard-response","58","274049","0.0-9.0-1.15","5f5287a0af6c8c555f3015e1","condE","","resources/audio/wordStim/S3_AU_20_axb_Step-7.wav","49","","","","","","resources/audio/wordStim/S3_AU_20_axb_Step-7.wav","S3","20","axb","7","MI","BL","S3-BL","0","1","false"
"null","","fixation","html-keyboard-response","59","275055","0.0-9.0-0.16","5f5287a0af6c8c555f3015e1","condE","","<div class=""vertical-center"" style='width:60%;'><p style='font-weight:bold;'>Does the middle word sound more like the first word (A) or the last word (B)?</p> <br> <div class=""container""> <div id=""a-box""> <p class=""title-text"">A</h3></p> </div> <div id=""x-box""> <p class=""title-text"">X<p> </div> <div id=""b-box""> <p class=""title-text"">B</p></div> <br> <div style='float: left;padding-left:30px;'><p>Press '1' for A</p></div><div style='float: right;padding-right:30px;'><p>Press '0' for B</p> </div> </div></div>","null","","","","","","","","","","","","","","","",""
"5179","","test","audio-keyboard-response","60","280242","0.0-9.0-1.16","5f5287a0af6c8c555f3015e1","condE","","resources/audio/wordStim/S3_AI_22_axb_Step-7.wav","49","","","","","","resources/audio/wordStim/S3_AI_22_axb_Step-7.wav","S3","22","axb","7","MI","BL","S3-BL","0","1","false"
"null","","fixation","html-keyboard-response","61","281245","0.0-9.0-0.17","5f5287a0af6c8c555f3015e1","condE","","<div class=""vertical-center"" style='width:60%;'><p style='font-weight:bold;'>Does the middle word sound more like the first word (A) or the last word (B)?</p> <br> <div class=""container""> <div id=""a-box""> <p class=""title-text"">A</h3></p> </div> <div id=""x-box""> <p class=""title-text"">X<p> </div> <div id=""b-box""> <p class=""title-text"">B</p></div> <br> <div style='float: left;padding-left:30px;'><p>Press '1' for A</p></div><div style='float: right;padding-right:30px;'><p>Press '0' for B</p> </div> </div></div>","null","","","","","","","","","","","","","","","",""
"4029","","test","audio-keyboard-response","62","285279","0.0-9.0-1.17","5f5287a0af6c8c555f3015e1","condE","","resources/audio/wordStim/S3_AU_19_axb_Step-6.wav","49","","","","","","resources/audio/wordStim/S3_AU_19_axb_Step-6.wav","S3","19","axb","6","MI","BL","S3-BL","0","1","false"
"null","","fixation","html-keyboard-response","63","286282","0.0-9.0-0.18","5f5287a0af6c8c555f3015e1","condE","","<div class=""vertical-center"" style='width:60%;'><p style='font-weight:bold;'>Does the middle word sound more like the first word (A) or the last word (B)?</p> <br> <div class=""container""> <div id=""a-box""> <p class=""title-text"">A</h3></p> </div> <div id=""x-box""> <p class=""title-text"">X<p> </div> <div id=""b-box""> <p class=""title-text"">B</p></div> <br> <div style='float: left;padding-left:30px;'><p>Press '1' for A</p></div><div style='float: right;padding-right:30px;'><p>Press '0' for B</p> </div> </div></div>","null","","","","","","","","","","","","","","","",""
"3659","","test","audio-keyboard-response","64","289944","0.0-9.0-1.18","5f5287a0af6c8c555f3015e1","condE","","resources/audio/wordStim/S3_AU_19_bxa_Step-7.wav","49","","","","","","resources/audio/wordStim/S3_AU_19_bxa_Step-7.wav","S3","19","bxa","7","MI","BL","S3-BL","1","1","true"
"null","","fixation","html-keyboard-response","65","290949","0.0-9.0-0.19","5f5287a0af6c8c555f3015e1","condE","","<div class=""vertical-center"" style='width:60%;'><p style='font-weight:bold;'>Does the middle word sound more like the first word (A) or the last word (B)?</p> <br> <div class=""container""> <div id=""a-box""> <p class=""title-text"">A</h3></p> </div> <div id=""x-box""> <p class=""title-text"">X<p> </div> <div id=""b-box""> <p class=""title-text"">B</p></div> <br> <div style='float: left;padding-left:30px;'><p>Press '1' for A</p></div><div style='float: right;padding-right:30px;'><p>Press '0' for B</p> </div> </div></div>","null","","","","","","","","","","","","","","","",""
"4680","","test","audio-keyboard-response","66","295638","0.0-9.0-1.19","5f5287a0af6c8c555f3015e1","condE","","resources/audio/wordStim/S3_AU_18_axb_Step-2.wav","48","","","","","","resources/audio/wordStim/S3_AU_18_axb_Step-2.wav","S3","18","axb","2","MI","BL","S3-BL","0","0","true"
"null","","fixation","html-keyboard-response","67","296645","0.0-9.0-0.20","5f5287a0af6c8c555f3015e1","condE","","<div class=""vertical-center"" style='width:60%;'><p style='font-weight:bold;'>Does the middle word sound more like the first word (A) or the last word (B)?</p> <br> <div class=""container""> <div id=""a-box""> <p class=""title-text"">A</h3></p> </div> <div id=""x-box""> <p class=""title-text"">X<p> </div> <div id=""b-box""> <p class=""title-text"">B</p></div> <br> <div style='float: left;padding-left:30px;'><p>Press '1' for A</p></div><div style='float: right;padding-right:30px;'><p>Press '0' for B</p> </div> </div></div>","null","","","","","","","","","","","","","","","",""
"4051","","test","audio-keyboard-response","68","300693","0.0-9.0-1.20","5f5287a0af6c8c555f3015e1","condE","","resources/audio/wordStim/S3_AU_20_bxa_Step-8.wav","48","","","","","","resources/audio/wordStim/S3_AU_20_bxa_Step-8.wav","S3","20","bxa","8","MI","BL","S3-BL","1","0","false"
"94780.63500000001","","break","html-keyboard-response","69","395977","0.0-9.0-2.20-0.20","5f5287a0af6c8c555f3015e1","condE","","<div class=""vertical-center""><p>Feel free to take a break!</p><i>When you're ready to continue, press SPACE to begin the next trial.</i></p></div>","32","","","","","","","","","","","","","","","",""
"null","","fixation","html-keyboard-response","70","396480","0.0-9.0-0.21","5f5287a0af6c8c555f3015e1","condE","","<div class=""vertical-center"" style='width:60%;'><p style='font-weight:bold;'>Does the middle word sound more like the first word (A) or the last word (B)?</p> <br> <div class=""container""> <div id=""a-box""> <p class=""title-text"">A</h3></p> </div> <div id=""x-box""> <p class=""title-text"">X<p> </div> <div id=""b-box""> <p class=""title-text"">B</p></div> <br> <div style='float: left;padding-left:30px;'><p>Press '1' for A</p></div><div style='float: right;padding-right:30px;'><p>Press '0' for B</p> </div> </div></div>","null","","","","","","","","","","","","","","","",""
"4149","","test","audio-keyboard-response","71","400632","0.0-9.0-1.21","5f5287a0af6c8c555f3015e1","condE","","resources/audio/wordStim/S3_AI_30_axb_Step-4.wav","48","","","","","","resources/audio/wordStim/S3_AI_30_axb_Step-4.wav","S3","30","axb","4","MI","BL","S3-BL","0","0","true"
"null","","fixation","html-keyboard-response","72","401640","0.0-9.0-0.22","5f5287a0af6c8c555f3015e1","condE","","<div class=""vertical-center"" style='width:60%;'><p style='font-weight:bold;'>Does the middle word sound more like the first word (A) or the last word (B)?</p> <br> <div class=""container""> <div id=""a-box""> <p class=""title-text"">A</h3></p> </div> <div id=""x-box""> <p class=""title-text"">X<p> </div> <div id=""b-box""> <p class=""title-text"">B</p></div> <br> <div style='float: left;padding-left:30px;'><p>Press '1' for A</p></div><div style='float: right;padding-right:30px;'><p>Press '0' for B</p> </div> </div></div>","null","","","","","","","","","","","","","","","",""
"4459","","test","audio-keyboard-response","73","406099","0.0-9.0-1.22","5f5287a0af6c8c555f3015e1","condE","","resources/audio/wordStim/S3_AU_18_bxa_Step-8.wav","49","","","","","","resources/audio/wordStim/S3_AU_18_bxa_Step-8.wav","S3","18","bxa","8","MI","BL","S3-BL","1","1","true"
"null","","fixation","html-keyboard-response","74","407106","0.0-9.0-0.23","5f5287a0af6c8c555f3015e1","condE","","<div class=""vertical-center"" style='width:60%;'><p style='font-weight:bold;'>Does the middle word sound more like the first word (A) or the last word (B)?</p> <br> <div class=""container""> <div id=""a-box""> <p class=""title-text"">A</h3></p> </div> <div id=""x-box""> <p class=""title-text"">X<p> </div> <div id=""b-box""> <p class=""title-text"">B</p></div> <br> <div style='float: left;padding-left:30px;'><p>Press '1' for A</p></div><div style='float: right;padding-right:30px;'><p>Press '0' for B</p> </div> </div></div>","null","","","","","","","","","","","","","","","",""
"3541","","test","audio-keyboard-response","75","410648","0.0-9.0-1.23","5f5287a0af6c8c555f3015e1","condE","","resources/audio/wordStim/S3_AI_30_bxa_Step-5.wav","49","","","","","","resources/audio/wordStim/S3_AI_30_bxa_Step-5.wav","S3","30","bxa","5","MI","BL","S3-BL","1","1","true"
"null","","fixation","html-keyboard-response","76","411654","0.0-9.0-0.24","5f5287a0af6c8c555f3015e1","condE","","<div class=""vertical-center"" style='width:60%;'><p style='font-weight:bold;'>Does the middle word sound more like the first word (A) or the last word (B)?</p> <br> <div class=""container""> <div id=""a-box""> <p class=""title-text"">A</h3></p> </div> <div id=""x-box""> <p class=""title-text"">X<p> </div> <div id=""b-box""> <p class=""title-text"">B</p></div> <br> <div style='float: left;padding-left:30px;'><p>Press '1' for A</p></div><div style='float: right;padding-right:30px;'><p>Press '0' for B</p> </div> </div></div>","null","","","","","","","","","","","","","","","",""
"4429","","test","audio-keyboard-response","77","416081","0.0-9.0-1.24","5f5287a0af6c8c555f3015e1","condE","","resources/audio/wordStim/S3_AU_18_axb_Step-3.wav","49","","","","","","resources/audio/wordStim/S3_AU_18_axb_Step-3.wav","S3","18","axb","3","MI","BL","S3-BL","0","1","false"
"null","","fixation","html-keyboard-response","78","417086","0.0-9.0-0.25","5f5287a0af6c8c555f3015e1","condE","","<div class=""vertical-center"" style='width:60%;'><p style='font-weight:bold;'>Does the middle word sound more like the first word (A) or the last word (B)?</p> <br> <div class=""container""> <div id=""a-box""> <p class=""title-text"">A</h3></p> </div> <div id=""x-box""> <p class=""title-text"">X<p> </div> <div id=""b-box""> <p class=""title-text"">B</p></div> <br> <div style='float: left;padding-left:30px;'><p>Press '1' for A</p></div><div style='float: right;padding-right:30px;'><p>Press '0' for B</p> </div> </div></div>","null","","","","","","","","","","","","","","","",""
"3739","","test","audio-keyboard-response","79","420818","0.0-9.0-1.25","5f5287a0af6c8c555f3015e1","condE","","resources/audio/wordStim/S3_AI_30_bxa_Step-3.wav","49","","","","","","resources/audio/wordStim/S3_AI_30_bxa_Step-3.wav","S3","30","bxa","3","MI","BL","S3-BL","1","1","true"
"null","","fixation","html-keyboard-response","80","421825","0.0-9.0-0.26","5f5287a0af6c8c555f3015e1","condE","","<div class=""vertical-center"" style='width:60%;'><p style='font-weight:bold;'>Does the middle word sound more like the first word (A) or the last word (B)?</p> <br> <div class=""container""> <div id=""a-box""> <p class=""title-text"">A</h3></p> </div> <div id=""x-box""> <p class=""title-text"">X<p> </div> <div id=""b-box""> <p class=""title-text"">B</p></div> <br> <div style='float: left;padding-left:30px;'><p>Press '1' for A</p></div><div style='float: right;padding-right:30px;'><p>Press '0' for B</p> </div> </div></div>","null","","","","","","","","","","","","","","","",""
"4200","","test","audio-keyboard-response","81","426025","0.0-9.0-1.26","5f5287a0af6c8c555f3015e1","condE","","resources/audio/wordStim/S3_AU_19_axb_Step-4.wav","48","","","","","","resources/audio/wordStim/S3_AU_19_axb_Step-4.wav","S3","19","axb","4","MI","BL","S3-BL","0","0","true"
"null","","fixation","html-keyboard-response","82","427029","0.0-9.0-0.27","5f5287a0af6c8c555f3015e1","condE","","<div class=""vertical-center"" style='width:60%;'><p style='font-weight:bold;'>Does the middle word sound more like the first word (A) or the last word (B)?</p> <br> <div class=""container""> <div id=""a-box""> <p class=""title-text"">A</h3></p> </div> <div id=""x-box""> <p class=""title-text"">X<p> </div> <div id=""b-box""> <p class=""title-text"">B</p></div> <br> <div style='float: left;padding-left:30px;'><p>Press '1' for A</p></div><div style='float: right;padding-right:30px;'><p>Press '0' for B</p> </div> </div></div>","null","","","","","","","","","","","","","","","",""
"3891","","test","audio-keyboard-response","83","430922","0.0-9.0-1.27","5f5287a0af6c8c555f3015e1","condE","","resources/audio/wordStim/S3_AI_22_bxa_Step-5.wav","49","","","","","","resources/audio/wordStim/S3_AI_22_bxa_Step-5.wav","S3","22","bxa","5","MI","BL","S3-BL","1","1","true"
"null","","fixation","html-keyboard-response","84","431929","0.0-9.0-0.28","5f5287a0af6c8c555f3015e1","condE","","<div class=""vertical-center"" style='width:60%;'><p style='font-weight:bold;'>Does the middle word sound more like the first word (A) or the last word (B)?</p> <br> <div class=""container""> <div id=""a-box""> <p class=""title-text"">A</h3></p> </div> <div id=""x-box""> <p class=""title-text"">X<p> </div> <div id=""b-box""> <p class=""title-text"">B</p></div> <br> <div style='float: left;padding-left:30px;'><p>Press '1' for A</p></div><div style='float: right;padding-right:30px;'><p>Press '0' for B</p> </div> </div></div>","null","","","","","","","","","","","","","","","",""
"3840","","test","audio-keyboard-response","85","435779","0.0-9.0-1.28","5f5287a0af6c8c555f3015e1","condE","","resources/audio/wordStim/S3_AI_22_axb_Step-3.wav","49","","","","","","resources/audio/wordStim/S3_AI_22_axb_Step-3.wav","S3","22","axb","3","MI","BL","S3-BL","0","1","false"
"null","","fixation","html-keyboard-response","86","436783","0.0-9.0-0.29","5f5287a0af6c8c555f3015e1","condE","","<div class=""vertical-center"" style='width:60%;'><p style='font-weight:bold;'>Does the middle word sound more like the first word (A) or the last word (B)?</p> <br> <div class=""container""> <div id=""a-box""> <p class=""title-text"">A</h3></p> </div> <div id=""x-box""> <p class=""title-text"">X<p> </div> <div id=""b-box""> <p class=""title-text"">B</p></div> <br> <div style='float: left;padding-left:30px;'><p>Press '1' for A</p></div><div style='float: right;padding-right:30px;'><p>Press '0' for B</p> </div> </div></div>","null","","","","","","","","","","","","","","","",""
"4331","","test","audio-keyboard-response","87","441115","0.0-9.0-1.29","5f5287a0af6c8c555f3015e1","condE","","resources/audio/wordStim/S3_AI_22_axb_Step-2.wav","48","","","","","","resources/audio/wordStim/S3_AI_22_axb_Step-2.wav","S3","22","axb","2","MI","BL","S3-BL","0","0","true"
"null","","fixation","html-keyboard-response","88","442121","0.0-9.0-0.30","5f5287a0af6c8c555f3015e1","condE","","<div class=""vertical-center"" style='width:60%;'><p style='font-weight:bold;'>Does the middle word sound more like the first word (A) or the last word (B)?</p> <br> <div class=""container""> <div id=""a-box""> <p class=""title-text"">A</h3></p> </div> <div id=""x-box""> <p class=""title-text"">X<p> </div> <div id=""b-box""> <p class=""title-text"">B</p></div> <br> <div style='float: left;padding-left:30px;'><p>Press '1' for A</p></div><div style='float: right;padding-right:30px;'><p>Press '0' for B</p> </div> </div></div>","null","","","","","","","","","","","","","","","",""
"3651","","test","audio-keyboard-response","89","445773","0.0-9.0-1.30","5f5287a0af6c8c555f3015e1","condE","","resources/audio/wordStim/S3_AI_30_bxa_Step-6.wav","49","","","","","","resources/audio/wordStim/S3_AI_30_bxa_Step-6.wav","S3","30","bxa","6","MI","BL","S3-BL","1","1","true"
"null","","fixation","html-keyboard-response","90","446781","0.0-9.0-0.31","5f5287a0af6c8c555f3015e1","condE","","<div class=""vertical-center"" style='width:60%;'><p style='font-weight:bold;'>Does the middle word sound more like the first word (A) or the last word (B)?</p> <br> <div class=""container""> <div id=""a-box""> <p class=""title-text"">A</h3></p> </div> <div id=""x-box""> <p class=""title-text"">X<p> </div> <div id=""b-box""> <p class=""title-text"">B</p></div> <br> <div style='float: left;padding-left:30px;'><p>Press '1' for A</p></div><div style='float: right;padding-right:30px;'><p>Press '0' for B</p> </div> </div></div>","null","","","","","","","","","","","","","","","",""
"3600","","test","audio-keyboard-response","91","450387","0.0-9.0-1.31","5f5287a0af6c8c555f3015e1","condE","","resources/audio/wordStim/S3_AI_30_axb_Step-6.wav","49","","","","","","resources/audio/wordStim/S3_AI_30_axb_Step-6.wav","S3","30","axb","6","MI","BL","S3-BL","0","1","false"
"null","","fixation","html-keyboard-response","92","451395","0.0-9.0-0.32","5f5287a0af6c8c555f3015e1","condE","","<div class=""vertical-center"" style='width:60%;'><p style='font-weight:bold;'>Does the middle word sound more like the first word (A) or the last word (B)?</p> <br> <div class=""container""> <div id=""a-box""> <p class=""title-text"">A</h3></p> </div> <div id=""x-box""> <p class=""title-text"">X<p> </div> <div id=""b-box""> <p class=""title-text"">B</p></div> <br> <div style='float: left;padding-left:30px;'><p>Press '1' for A</p></div><div style='float: right;padding-right:30px;'><p>Press '0' for B</p> </div> </div></div>","null","","","","","","","","","","","","","","","",""
"2749","","test","audio-keyboard-response","93","454137","0.0-9.0-1.32","5f5287a0af6c8c555f3015e1","condE","","resources/audio/wordStim/S3_AI_21_bxa_Step-8.wav","49","","","","","","resources/audio/wordStim/S3_AI_21_bxa_Step-8.wav","S3","21","bxa","8","MI","BL","S3-BL","1","1","true"
"null","","fixation","html-keyboard-response","94","455145","0.0-9.0-0.33","5f5287a0af6c8c555f3015e1","condE","","<div class=""vertical-center"" style='width:60%;'><p style='font-weight:bold;'>Does the middle word sound more like the first word (A) or the last word (B)?</p> <br> <div class=""container""> <div id=""a-box""> <p class=""title-text"">A</h3></p> </div> <div id=""x-box""> <p class=""title-text"">X<p> </div> <div id=""b-box""> <p class=""title-text"">B</p></div> <br> <div style='float: left;padding-left:30px;'><p>Press '1' for A</p></div><div style='float: right;padding-right:30px;'><p>Press '0' for B</p> </div> </div></div>","null","","","","","","","","","","","","","","","",""
"3112","","test","audio-keyboard-response","95","458257","0.0-9.0-1.33","5f5287a0af6c8c555f3015e1","condE","","resources/audio/wordStim/S3_AU_19_axb_Step-7.wav","49","","","","","","resources/audio/wordStim/S3_AU_19_axb_Step-7.wav","S3","19","axb","7","MI","BL","S3-BL","0","1","false"
"null","","fixation","html-keyboard-response","96","459265","0.0-9.0-0.34","5f5287a0af6c8c555f3015e1","condE","","<div class=""vertical-center"" style='width:60%;'><p style='font-weight:bold;'>Does the middle word sound more like the first word (A) or the last word (B)?</p> <br> <div class=""container""> <div id=""a-box""> <p class=""title-text"">A</h3></p> </div> <div id=""x-box""> <p class=""title-text"">X<p> </div> <div id=""b-box""> <p class=""title-text"">B</p></div> <br> <div style='float: left;padding-left:30px;'><p>Press '1' for A</p></div><div style='float: right;padding-right:30px;'><p>Press '0' for B</p> </div> </div></div>","null","","","","","","","","","","","","","","","",""
"3421","","test","audio-keyboard-response","97","462684","0.0-9.0-1.34","5f5287a0af6c8c555f3015e1","condE","","resources/audio/wordStim/S3_AI_30_axb_Step-7.wav","49","","","","","","resources/audio/wordStim/S3_AI_30_axb_Step-7.wav","S3","30","axb","7","MI","BL","S3-BL","0","1","false"
"null","","fixation","html-keyboard-response","98","463694","0.0-9.0-0.35","5f5287a0af6c8c555f3015e1","condE","","<div class=""vertical-center"" style='width:60%;'><p style='font-weight:bold;'>Does the middle word sound more like the first word (A) or the last word (B)?</p> <br> <div class=""container""> <div id=""a-box""> <p class=""title-text"">A</h3></p> </div> <div id=""x-box""> <p class=""title-text"">X<p> </div> <div id=""b-box""> <p class=""title-text"">B</p></div> <br> <div style='float: left;padding-left:30px;'><p>Press '1' for A</p></div><div style='float: right;padding-right:30px;'><p>Press '0' for B</p> </div> </div></div>","null","","","","","","","","","","","","","","","",""
"3280","","test","audio-keyboard-response","99","466970","0.0-9.0-1.35","5f5287a0af6c8c555f3015e1","condE","","resources/audio/wordStim/S3_AU_20_bxa_Step-2.wav","49","","","","","","resources/audio/wordStim/S3_AU_20_bxa_Step-2.wav","S3","20","bxa","2","MI","BL","S3-BL","1","1","true"
"null","","fixation","html-keyboard-response","100","467981","0.0-9.0-0.36","5f5287a0af6c8c555f3015e1","condE","","<div class=""vertical-center"" style='width:60%;'><p style='font-weight:bold;'>Does the middle word sound more like the first word (A) or the last word (B)?</p> <br> <div class=""container""> <div id=""a-box""> <p class=""title-text"">A</h3></p> </div> <div id=""x-box""> <p class=""title-text"">X<p> </div> <div id=""b-box""> <p class=""title-text"">B</p></div> <br> <div style='float: left;padding-left:30px;'><p>Press '1' for A</p></div><div style='float: right;padding-right:30px;'><p>Press '0' for B</p> </div> </div></div>","null","","","","","","","","","","","","","","","",""
"2941","","test","audio-keyboard-response","101","470923","0.0-9.0-1.36","5f5287a0af6c8c555f3015e1","condE","","resources/audio/wordStim/S3_AI_21_axb_Step-3.wav","49","","","","","","resources/audio/wordStim/S3_AI_21_axb_Step-3.wav","S3","21","axb","3","MI","BL","S3-BL","0","1","false"
"null","","fixation","html-keyboard-response","102","471932","0.0-9.0-0.37","5f5287a0af6c8c555f3015e1","condE","","<div class=""vertical-center"" style='width:60%;'><p style='font-weight:bold;'>Does the middle word sound more like the first word (A) or the last word (B)?</p> <br> <div class=""container""> <div id=""a-box""> <p class=""title-text"">A</h3></p> </div> <div id=""x-box""> <p class=""title-text"">X<p> </div> <div id=""b-box""> <p class=""title-text"">B</p></div> <br> <div style='float: left;padding-left:30px;'><p>Press '1' for A</p></div><div style='float: right;padding-right:30px;'><p>Press '0' for B</p> </div> </div></div>","null","","","","","","","","","","","","","","","",""
"3299","","test","audio-keyboard-response","103","475233","0.0-9.0-1.37","5f5287a0af6c8c555f3015e1","condE","","resources/audio/wordStim/S3_AI_30_axb_Step-3.wav","49","","","","","","resources/audio/wordStim/S3_AI_30_axb_Step-3.wav","S3","30","axb","3","MI","BL","S3-BL","0","1","false"
"null","","fixation","html-keyboard-response","104","476240","0.0-9.0-0.38","5f5287a0af6c8c555f3015e1","condE","","<div class=""vertical-center"" style='width:60%;'><p style='font-weight:bold;'>Does the middle word sound more like the first word (A) or the last word (B)?</p> <br> <div class=""container""> <div id=""a-box""> <p class=""title-text"">A</h3></p> </div> <div id=""x-box""> <p class=""title-text"">X<p> </div> <div id=""b-box""> <p class=""title-text"">B</p></div> <br> <div style='float: left;padding-left:30px;'><p>Press '1' for A</p></div><div style='float: right;padding-right:30px;'><p>Press '0' for B</p> </div> </div></div>","null","","","","","","","","","","","","","","","",""
"4131","","test","audio-keyboard-response","105","480380","0.0-9.0-1.38","5f5287a0af6c8c555f3015e1","condE","","resources/audio/wordStim/S3_AU_18_axb_Step-7.wav","49","","","","","","resources/audio/wordStim/S3_AU_18_axb_Step-7.wav","S3","18","axb","7","MI","BL","S3-BL","0","1","false"
"null","","fixation","html-keyboard-response","106","481387","0.0-9.0-0.39","5f5287a0af6c8c555f3015e1","condE","","<div class=""vertical-center"" style='width:60%;'><p style='font-weight:bold;'>Does the middle word sound more like the first word (A) or the last word (B)?</p> <br> <div class=""container""> <div id=""a-box""> <p class=""title-text"">A</h3></p> </div> <div id=""x-box""> <p class=""title-text"">X<p> </div> <div id=""b-box""> <p class=""title-text"">B</p></div> <br> <div style='float: left;padding-left:30px;'><p>Press '1' for A</p></div><div style='float: right;padding-right:30px;'><p>Press '0' for B</p> </div> </div></div>","null","","","","","","","","","","","","","","","",""
"3592","","test","audio-keyboard-response","107","484979","0.0-9.0-1.39","5f5287a0af6c8c555f3015e1","condE","","resources/audio/wordStim/S3_AI_30_axb_Step-8.wav","49","","","","","","resources/audio/wordStim/S3_AI_30_axb_Step-8.wav","S3","30","axb","8","MI","BL","S3-BL","0","1","false"
"null","","fixation","html-keyboard-response","108","485983","0.0-9.0-0.40","5f5287a0af6c8c555f3015e1","condE","","<div class=""vertical-center"" style='width:60%;'><p style='font-weight:bold;'>Does the middle word sound more like the first word (A) or the last word (B)?</p> <br> <div class=""container""> <div id=""a-box""> <p class=""title-text"">A</h3></p> </div> <div id=""x-box""> <p class=""title-text"">X<p> </div> <div id=""b-box""> <p class=""title-text"">B</p></div> <br> <div style='float: left;padding-left:30px;'><p>Press '1' for A</p></div><div style='float: right;padding-right:30px;'><p>Press '0' for B</p> </div> </div></div>","null","","","","","","","","","","","","","","","",""
"3301","","test","audio-keyboard-response","109","489282","0.0-9.0-1.40","5f5287a0af6c8c555f3015e1","condE","","resources/audio/wordStim/S3_AU_19_axb_Step-5.wav","49","","","","","","resources/audio/wordStim/S3_AU_19_axb_Step-5.wav","S3","19","axb","5","MI","BL","S3-BL","0","1","false"
"null","","fixation","html-keyboard-response","110","490289","0.0-9.0-0.41","5f5287a0af6c8c555f3015e1","condE","","<div class=""vertical-center"" style='width:60%;'><p style='font-weight:bold;'>Does the middle word sound more like the first word (A) or the last word (B)?</p> <br> <div class=""container""> <div id=""a-box""> <p class=""title-text"">A</h3></p> </div> <div id=""x-box""> <p class=""title-text"">X<p> </div> <div id=""b-box""> <p class=""title-text"">B</p></div> <br> <div style='float: left;padding-left:30px;'><p>Press '1' for A</p></div><div style='float: right;padding-right:30px;'><p>Press '0' for B</p> </div> </div></div>","null","","","","","","","","","","","","","","","",""
"4840","","test","audio-keyboard-response","111","495137","0.0-9.0-1.41","5f5287a0af6c8c555f3015e1","condE","","resources/audio/wordStim/S3_AI_22_bxa_Step-8.wav","48","","","","","","resources/audio/wordStim/S3_AI_22_bxa_Step-8.wav","S3","22","bxa","8","MI","BL","S3-BL","1","0","false"
"2512.4150000000373","","break","html-keyboard-response","112","498155","0.0-9.0-2.41-0.41","5f5287a0af6c8c555f3015e1","condE","","<div class=""vertical-center""><p>Feel free to take a break!</p><i>When you're ready to continue, press SPACE to begin the next trial.</i></p></div>","32","","","","","","","","","","","","","","","",""
"null","","fixation","html-keyboard-response","113","498663","0.0-9.0-0.42","5f5287a0af6c8c555f3015e1","condE","","<div class=""vertical-center"" style='width:60%;'><p style='font-weight:bold;'>Does the middle word sound more like the first word (A) or the last word (B)?</p> <br> <div class=""container""> <div id=""a-box""> <p class=""title-text"">A</h3></p> </div> <div id=""x-box""> <p class=""title-text"">X<p> </div> <div id=""b-box""> <p class=""title-text"">B</p></div> <br> <div style='float: left;padding-left:30px;'><p>Press '1' for A</p></div><div style='float: right;padding-right:30px;'><p>Press '0' for B</p> </div> </div></div>","null","","","","","","","","","","","","","","","",""
"3211","","test","audio-keyboard-response","114","501878","0.0-9.0-1.42","5f5287a0af6c8c555f3015e1","condE","","resources/audio/wordStim/S3_AU_20_bxa_Step-7.wav","49","","","","","","resources/audio/wordStim/S3_AU_20_bxa_Step-7.wav","S3","20","bxa","7","MI","BL","S3-BL","1","1","true"
"null","","fixation","html-keyboard-response","115","502882","0.0-9.0-0.43","5f5287a0af6c8c555f3015e1","condE","","<div class=""vertical-center"" style='width:60%;'><p style='font-weight:bold;'>Does the middle word sound more like the first word (A) or the last word (B)?</p> <br> <div class=""container""> <div id=""a-box""> <p class=""title-text"">A</h3></p> </div> <div id=""x-box""> <p class=""title-text"">X<p> </div> <div id=""b-box""> <p class=""title-text"">B</p></div> <br> <div style='float: left;padding-left:30px;'><p>Press '1' for A</p></div><div style='float: right;padding-right:30px;'><p>Press '0' for B</p> </div> </div></div>","null","","","","","","","","","","","","","","","",""
"3520","","test","audio-keyboard-response","116","506403","0.0-9.0-1.43","5f5287a0af6c8c555f3015e1","condE","","resources/audio/wordStim/S3_AI_30_bxa_Step-7.wav","49","","","","","","resources/audio/wordStim/S3_AI_30_bxa_Step-7.wav","S3","30","bxa","7","MI","BL","S3-BL","1","1","true"
"null","","fixation","html-keyboard-response","117","507409","0.0-9.0-0.44","5f5287a0af6c8c555f3015e1","condE","","<div class=""vertical-center"" style='width:60%;'><p style='font-weight:bold;'>Does the middle word sound more like the first word (A) or the last word (B)?</p> <br> <div class=""container""> <div id=""a-box""> <p class=""title-text"">A</h3></p> </div> <div id=""x-box""> <p class=""title-text"">X<p> </div> <div id=""b-box""> <p class=""title-text"">B</p></div> <br> <div style='float: left;padding-left:30px;'><p>Press '1' for A</p></div><div style='float: right;padding-right:30px;'><p>Press '0' for B</p> </div> </div></div>","null","","","","","","","","","","","","","","","",""
"3429","","test","audio-keyboard-response","118","510846","0.0-9.0-1.44","5f5287a0af6c8c555f3015e1","condE","","resources/audio/wordStim/S3_AU_19_bxa_Step-5.wav","49","","","","","","resources/audio/wordStim/S3_AU_19_bxa_Step-5.wav","S3","19","bxa","5","MI","BL","S3-BL","1","1","true"
"null","","fixation","html-keyboard-response","119","511855","0.0-9.0-0.45","5f5287a0af6c8c555f3015e1","condE","","<div class=""vertical-center"" style='width:60%;'><p style='font-weight:bold;'>Does the middle word sound more like the first word (A) or the last word (B)?</p> <br> <div class=""container""> <div id=""a-box""> <p class=""title-text"">A</h3></p> </div> <div id=""x-box""> <p class=""title-text"">X<p> </div> <div id=""b-box""> <p class=""title-text"">B</p></div> <br> <div style='float: left;padding-left:30px;'><p>Press '1' for A</p></div><div style='float: right;padding-right:30px;'><p>Press '0' for B</p> </div> </div></div>","null","","","","","","","","","","","","","","","",""
"4648","","test","audio-keyboard-response","120","516508","0.0-9.0-1.45","5f5287a0af6c8c555f3015e1","condE","","resources/audio/wordStim/S3_AI_21_bxa_Step-5.wav","48","","","","","","resources/audio/wordStim/S3_AI_21_bxa_Step-5.wav","S3","21","bxa","5","MI","BL","S3-BL","1","0","false"
"null","","fixation","html-keyboard-response","121","517518","0.0-9.0-0.46","5f5287a0af6c8c555f3015e1","condE","","<div class=""vertical-center"" style='width:60%;'><p style='font-weight:bold;'>Does the middle word sound more like the first word (A) or the last word (B)?</p> <br> <div class=""container""> <div id=""a-box""> <p class=""title-text"">A</h3></p> </div> <div id=""x-box""> <p class=""title-text"">X<p> </div> <div id=""b-box""> <p class=""title-text"">B</p></div> <br> <div style='float: left;padding-left:30px;'><p>Press '1' for A</p></div><div style='float: right;padding-right:30px;'><p>Press '0' for B</p> </div> </div></div>","null","","","","","","","","","","","","","","","",""
"3720","","test","audio-keyboard-response","122","521230","0.0-9.0-1.46","5f5287a0af6c8c555f3015e1","condE","","resources/audio/wordStim/S3_AU_20_bxa_Step-5.wav","49","","","","","","resources/audio/wordStim/S3_AU_20_bxa_Step-5.wav","S3","20","bxa","5","MI","BL","S3-BL","1","1","true"
"null","","fixation","html-keyboard-response","123","522240","0.0-9.0-0.47","5f5287a0af6c8c555f3015e1","condE","","<div class=""vertical-center"" style='width:60%;'><p style='font-weight:bold;'>Does the middle word sound more like the first word (A) or the last word (B)?</p> <br> <div class=""container""> <div id=""a-box""> <p class=""title-text"">A</h3></p> </div> <div id=""x-box""> <p class=""title-text"">X<p> </div> <div id=""b-box""> <p class=""title-text"">B</p></div> <br> <div style='float: left;padding-left:30px;'><p>Press '1' for A</p></div><div style='float: right;padding-right:30px;'><p>Press '0' for B</p> </div> </div></div>","null","","","","","","","","","","","","","","","",""
"4331","","test","audio-keyboard-response","124","526575","0.0-9.0-1.47","5f5287a0af6c8c555f3015e1","condE","","resources/audio/wordStim/S3_AU_18_bxa_Step-5.wav","49","","","","","","resources/audio/wordStim/S3_AU_18_bxa_Step-5.wav","S3","18","bxa","5","MI","BL","S3-BL","1","1","true"
"null","","fixation","html-keyboard-response","125","527582","0.0-9.0-0.48","5f5287a0af6c8c555f3015e1","condE","","<div class=""vertical-center"" style='width:60%;'><p style='font-weight:bold;'>Does the middle word sound more like the first word (A) or the last word (B)?</p> <br> <div class=""container""> <div id=""a-box""> <p class=""title-text"">A</h3></p> </div> <div id=""x-box""> <p class=""title-text"">X<p> </div> <div id=""b-box""> <p class=""title-text"">B</p></div> <br> <div style='float: left;padding-left:30px;'><p>Press '1' for A</p></div><div style='float: right;padding-right:30px;'><p>Press '0' for B</p> </div> </div></div>","null","","","","","","","","","","","","","","","",""
"4200","","test","audio-keyboard-response","126","531785","0.0-9.0-1.48","5f5287a0af6c8c555f3015e1","condE","","resources/audio/wordStim/S3_AI_22_bxa_Step-2.wav","48","","","","","","resources/audio/wordStim/S3_AI_22_bxa_Step-2.wav","S3","22","bxa","2","MI","BL","S3-BL","1","0","false"
"null","","fixation","html-keyboard-response","127","532791","0.0-9.0-0.49","5f5287a0af6c8c555f3015e1","condE","","<div class=""vertical-center"" style='width:60%;'><p style='font-weight:bold;'>Does the middle word sound more like the first word (A) or the last word (B)?</p> <br> <div class=""container""> <div id=""a-box""> <p class=""title-text"">A</h3></p> </div> <div id=""x-box""> <p class=""title-text"">X<p> </div> <div id=""b-box""> <p class=""title-text"">B</p></div> <br> <div style='float: left;padding-left:30px;'><p>Press '1' for A</p></div><div style='float: right;padding-right:30px;'><p>Press '0' for B</p> </div> </div></div>","null","","","","","","","","","","","","","","","",""
"3960","","test","audio-keyboard-response","128","536759","0.0-9.0-1.49","5f5287a0af6c8c555f3015e1","condE","","resources/audio/wordStim/S3_AU_19_bxa_Step-8.wav","49","","","","","","resources/audio/wordStim/S3_AU_19_bxa_Step-8.wav","S3","19","bxa","8","MI","BL","S3-BL","1","1","true"
"null","","fixation","html-keyboard-response","129","537765","0.0-9.0-0.50","5f5287a0af6c8c555f3015e1","condE","","<div class=""vertical-center"" style='width:60%;'><p style='font-weight:bold;'>Does the middle word sound more like the first word (A) or the last word (B)?</p> <br> <div class=""container""> <div id=""a-box""> <p class=""title-text"">A</h3></p> </div> <div id=""x-box""> <p class=""title-text"">X<p> </div> <div id=""b-box""> <p class=""title-text"">B</p></div> <br> <div style='float: left;padding-left:30px;'><p>Press '1' for A</p></div><div style='float: right;padding-right:30px;'><p>Press '0' for B</p> </div> </div></div>","null","","","","","","","","","","","","","","","",""
"3939","","test","audio-keyboard-response","130","541700","0.0-9.0-1.50","5f5287a0af6c8c555f3015e1","condE","","resources/audio/wordStim/S3_AI_22_bxa_Step-3.wav","49","","","","","","resources/audio/wordStim/S3_AI_22_bxa_Step-3.wav","S3","22","bxa","3","MI","BL","S3-BL","1","1","true"
"null","","fixation","html-keyboard-response","131","542713","0.0-9.0-0.51","5f5287a0af6c8c555f3015e1","condE","","<div class=""vertical-center"" style='width:60%;'><p style='font-weight:bold;'>Does the middle word sound more like the first word (A) or the last word (B)?</p> <br> <div class=""container""> <div id=""a-box""> <p class=""title-text"">A</h3></p> </div> <div id=""x-box""> <p class=""title-text"">X<p> </div> <div id=""b-box""> <p class=""title-text"">B</p></div> <br> <div style='float: left;padding-left:30px;'><p>Press '1' for A</p></div><div style='float: right;padding-right:30px;'><p>Press '0' for B</p> </div> </div></div>","null","","","","","","","","","","","","","","","",""
"3549","","test","audio-keyboard-response","132","546263","0.0-9.0-1.51","5f5287a0af6c8c555f3015e1","condE","","resources/audio/wordStim/S3_AI_21_bxa_Step-4.wav","48","","","","","","resources/audio/wordStim/S3_AI_21_bxa_Step-4.wav","S3","21","bxa","4","MI","BL","S3-BL","1","0","false"
"null","","fixation","html-keyboard-response","133","547272","0.0-9.0-0.52","5f5287a0af6c8c555f3015e1","condE","","<div class=""vertical-center"" style='width:60%;'><p style='font-weight:bold;'>Does the middle word sound more like the first word (A) or the last word (B)?</p> <br> <div class=""container""> <div id=""a-box""> <p class=""title-text"">A</h3></p> </div> <div id=""x-box""> <p class=""title-text"">X<p> </div> <div id=""b-box""> <p class=""title-text"">B</p></div> <br> <div style='float: left;padding-left:30px;'><p>Press '1' for A</p></div><div style='float: right;padding-right:30px;'><p>Press '0' for B</p> </div> </div></div>","null","","","","","","","","","","","","","","","",""
"3661","","test","audio-keyboard-response","134","550929","0.0-9.0-1.52","5f5287a0af6c8c555f3015e1","condE","","resources/audio/wordStim/S3_AU_19_bxa_Step-2.wav","49","","","","","","resources/audio/wordStim/S3_AU_19_bxa_Step-2.wav","S3","19","bxa","2","MI","BL","S3-BL","1","1","true"
"null","","fixation","html-keyboard-response","135","551935","0.0-9.0-0.53","5f5287a0af6c8c555f3015e1","condE","","<div class=""vertical-center"" style='width:60%;'><p style='font-weight:bold;'>Does the middle word sound more like the first word (A) or the last word (B)?</p> <br> <div class=""container""> <div id=""a-box""> <p class=""title-text"">A</h3></p> </div> <div id=""x-box""> <p class=""title-text"">X<p> </div> <div id=""b-box""> <p class=""title-text"">B</p></div> <br> <div style='float: left;padding-left:30px;'><p>Press '1' for A</p></div><div style='float: right;padding-right:30px;'><p>Press '0' for B</p> </div> </div></div>","null","","","","","","","","","","","","","","","",""
"5429","","test","audio-keyboard-response","136","557367","0.0-9.0-1.53","5f5287a0af6c8c555f3015e1","condE","","resources/audio/wordStim/S3_AI_22_axb_Step-5.wav","48","","","","","","resources/audio/wordStim/S3_AI_22_axb_Step-5.wav","S3","22","axb","5","MI","BL","S3-BL","0","0","true"
"null","","fixation","html-keyboard-response","137","558373","0.0-9.0-0.54","5f5287a0af6c8c555f3015e1","condE","","<div class=""vertical-center"" style='width:60%;'><p style='font-weight:bold;'>Does the middle word sound more like the first word (A) or the last word (B)?</p> <br> <div class=""container""> <div id=""a-box""> <p class=""title-text"">A</h3></p> </div> <div id=""x-box""> <p class=""title-text"">X<p> </div> <div id=""b-box""> <p class=""title-text"">B</p></div> <br> <div style='float: left;padding-left:30px;'><p>Press '1' for A</p></div><div style='float: right;padding-right:30px;'><p>Press '0' for B</p> </div> </div></div>","null","","","","","","","","","","","","","","","",""
"3899","","test","audio-keyboard-response","138","562275","0.0-9.0-1.54","5f5287a0af6c8c555f3015e1","condE","","resources/audio/wordStim/S3_AU_20_axb_Step-6.wav","49","","","","","","resources/audio/wordStim/S3_AU_20_axb_Step-6.wav","S3","20","axb","6","MI","BL","S3-BL","0","1","false"
"null","","fixation","html-keyboard-response","139","563284","0.0-9.0-0.55","5f5287a0af6c8c555f3015e1","condE","","<div class=""vertical-center"" style='width:60%;'><p style='font-weight:bold;'>Does the middle word sound more like the first word (A) or the last word (B)?</p> <br> <div class=""container""> <div id=""a-box""> <p class=""title-text"">A</h3></p> </div> <div id=""x-box""> <p class=""title-text"">X<p> </div> <div id=""b-box""> <p class=""title-text"">B</p></div> <br> <div style='float: left;padding-left:30px;'><p>Press '1' for A</p></div><div style='float: right;padding-right:30px;'><p>Press '0' for B</p> </div> </div></div>","null","","","","","","","","","","","","","","","",""
"4349","","test","audio-keyboard-response","140","567636","0.0-9.0-1.55","5f5287a0af6c8c555f3015e1","condE","","resources/audio/wordStim/S3_AI_30_axb_Step-5.wav","49","","","","","","resources/audio/wordStim/S3_AI_30_axb_Step-5.wav","S3","30","axb","5","MI","BL","S3-BL","0","1","false"
"null","","fixation","html-keyboard-response","141","568643","0.0-9.0-0.56","5f5287a0af6c8c555f3015e1","condE","","<div class=""vertical-center"" style='width:60%;'><p style='font-weight:bold;'>Does the middle word sound more like the first word (A) or the last word (B)?</p> <br> <div class=""container""> <div id=""a-box""> <p class=""title-text"">A</h3></p> </div> <div id=""x-box""> <p class=""title-text"">X<p> </div> <div id=""b-box""> <p class=""title-text"">B</p></div> <br> <div style='float: left;padding-left:30px;'><p>Press '1' for A</p></div><div style='float: right;padding-right:30px;'><p>Press '0' for B</p> </div> </div></div>","null","","","","","","","","","","","","","","","",""
"5019","","test","audio-keyboard-response","142","573666","0.0-9.0-1.56","5f5287a0af6c8c555f3015e1","condE","","resources/audio/wordStim/S3_AU_18_axb_Step-8.wav","48","","","","","","resources/audio/wordStim/S3_AU_18_axb_Step-8.wav","S3","18","axb","8","MI","BL","S3-BL","0","0","true"
"null","","fixation","html-keyboard-response","143","574673","0.0-9.0-0.57","5f5287a0af6c8c555f3015e1","condE","","<div class=""vertical-center"" style='width:60%;'><p style='font-weight:bold;'>Does the middle word sound more like the first word (A) or the last word (B)?</p> <br> <div class=""container""> <div id=""a-box""> <p class=""title-text"">A</h3></p> </div> <div id=""x-box""> <p class=""title-text"">X<p> </div> <div id=""b-box""> <p class=""title-text"">B</p></div> <br> <div style='float: left;padding-left:30px;'><p>Press '1' for A</p></div><div style='float: right;padding-right:30px;'><p>Press '0' for B</p> </div> </div></div>","null","","","","","","","","","","","","","","","",""
"4389","","test","audio-keyboard-response","144","579061","0.0-9.0-1.57","5f5287a0af6c8c555f3015e1","condE","","resources/audio/wordStim/S3_AU_20_axb_Step-4.wav","49","","","","","","resources/audio/wordStim/S3_AU_20_axb_Step-4.wav","S3","20","axb","4","MI","BL","S3-BL","0","1","false"
"null","","fixation","html-keyboard-response","145","580066","0.0-9.0-0.58","5f5287a0af6c8c555f3015e1","condE","","<div class=""vertical-center"" style='width:60%;'><p style='font-weight:bold;'>Does the middle word sound more like the first word (A) or the last word (B)?</p> <br> <div class=""container""> <div id=""a-box""> <p class=""title-text"">A</h3></p> </div> <div id=""x-box""> <p class=""title-text"">X<p> </div> <div id=""b-box""> <p class=""title-text"">B</p></div> <br> <div style='float: left;padding-left:30px;'><p>Press '1' for A</p></div><div style='float: right;padding-right:30px;'><p>Press '0' for B</p> </div> </div></div>","null","","","","","","","","","","","","","","","",""
"4021","","test","audio-keyboard-response","146","584089","0.0-9.0-1.58","5f5287a0af6c8c555f3015e1","condE","","resources/audio/wordStim/S3_AI_22_axb_Step-4.wav","48","","","","","","resources/audio/wordStim/S3_AI_22_axb_Step-4.wav","S3","22","axb","4","MI","BL","S3-BL","0","0","true"
"null","","fixation","html-keyboard-response","147","585094","0.0-9.0-0.59","5f5287a0af6c8c555f3015e1","condE","","<div class=""vertical-center"" style='width:60%;'><p style='font-weight:bold;'>Does the middle word sound more like the first word (A) or the last word (B)?</p> <br> <div class=""container""> <div id=""a-box""> <p class=""title-text"">A</h3></p> </div> <div id=""x-box""> <p class=""title-text"">X<p> </div> <div id=""b-box""> <p class=""title-text"">B</p></div> <br> <div style='float: left;padding-left:30px;'><p>Press '1' for A</p></div><div style='float: right;padding-right:30px;'><p>Press '0' for B</p> </div> </div></div>","null","","","","","","","","","","","","","","","",""
"3939","","test","audio-keyboard-response","148","589031","0.0-9.0-1.59","5f5287a0af6c8c555f3015e1","condE","","resources/audio/wordStim/S3_AU_20_axb_Step-2.wav","49","","","","","","resources/audio/wordStim/S3_AU_20_axb_Step-2.wav","S3","20","axb","2","MI","BL","S3-BL","0","1","false"
"null","","fixation","html-keyboard-response","149","590039","0.0-9.0-0.60","5f5287a0af6c8c555f3015e1","condE","","<div class=""vertical-center"" style='width:60%;'><p style='font-weight:bold;'>Does the middle word sound more like the first word (A) or the last word (B)?</p> <br> <div class=""container""> <div id=""a-box""> <p class=""title-text"">A</h3></p> </div> <div id=""x-box""> <p class=""title-text"">X<p> </div> <div id=""b-box""> <p class=""title-text"">B</p></div> <br> <div style='float: left;padding-left:30px;'><p>Press '1' for A</p></div><div style='float: right;padding-right:30px;'><p>Press '0' for B</p> </div> </div></div>","null","","","","","","","","","","","","","","","",""
"4400","","test","audio-keyboard-response","150","594442","0.0-9.0-1.60","5f5287a0af6c8c555f3015e1","condE","","resources/audio/wordStim/S3_AU_20_axb_Step-5.wav","48","","","","","","resources/audio/wordStim/S3_AU_20_axb_Step-5.wav","S3","20","axb","5","MI","BL","S3-BL","0","0","true"
"null","","fixation","html-keyboard-response","151","595448","0.0-9.0-0.61","5f5287a0af6c8c555f3015e1","condE","","<div class=""vertical-center"" style='width:60%;'><p style='font-weight:bold;'>Does the middle word sound more like the first word (A) or the last word (B)?</p> <br> <div class=""container""> <div id=""a-box""> <p class=""title-text"">A</h3></p> </div> <div id=""x-box""> <p class=""title-text"">X<p> </div> <div id=""b-box""> <p class=""title-text"">B</p></div> <br> <div style='float: left;padding-left:30px;'><p>Press '1' for A</p></div><div style='float: right;padding-right:30px;'><p>Press '0' for B</p> </div> </div></div>","null","","","","","","","","","","","","","","","",""
"4309","","test","audio-keyboard-response","152","599759","0.0-9.0-1.61","5f5287a0af6c8c555f3015e1","condE","","resources/audio/wordStim/S3_AU_20_bxa_Step-3.wav","48","","","","","","resources/audio/wordStim/S3_AU_20_bxa_Step-3.wav","S3","20","bxa","3","MI","BL","S3-BL","1","0","false"
"null","","fixation","html-keyboard-response","153","600762","0.0-9.0-0.62","5f5287a0af6c8c555f3015e1","condE","","<div class=""vertical-center"" style='width:60%;'><p style='font-weight:bold;'>Does the middle word sound more like the first word (A) or the last word (B)?</p> <br> <div class=""container""> <div id=""a-box""> <p class=""title-text"">A</h3></p> </div> <div id=""x-box""> <p class=""title-text"">X<p> </div> <div id=""b-box""> <p class=""title-text"">B</p></div> <br> <div style='float: left;padding-left:30px;'><p>Press '1' for A</p></div><div style='float: right;padding-right:30px;'><p>Press '0' for B</p> </div> </div></div>","null","","","","","","","","","","","","","","","",""
"3739","","test","audio-keyboard-response","154","604500","0.0-9.0-1.62","5f5287a0af6c8c555f3015e1","condE","","resources/audio/wordStim/S3_AU_19_axb_Step-2.wav","49","","","","","","resources/audio/wordStim/S3_AU_19_axb_Step-2.wav","S3","19","axb","2","MI","BL","S3-BL","0","1","false"
"2654.5299999999115","","break","html-keyboard-response","155","607658","0.0-9.0-2.62-0.62","5f5287a0af6c8c555f3015e1","condE","","<div class=""vertical-center""><p>Feel free to take a break!</p><i>When you're ready to continue, press SPACE to begin the next trial.</i></p></div>","32","","","","","","","","","","","","","","","",""
"null","","fixation","html-keyboard-response","156","608161","0.0-9.0-0.63","5f5287a0af6c8c555f3015e1","condE","","<div class=""vertical-center"" style='width:60%;'><p style='font-weight:bold;'>Does the middle word sound more like the first word (A) or the last word (B)?</p> <br> <div class=""container""> <div id=""a-box""> <p class=""title-text"">A</h3></p> </div> <div id=""x-box""> <p class=""title-text"">X<p> </div> <div id=""b-box""> <p class=""title-text"">B</p></div> <br> <div style='float: left;padding-left:30px;'><p>Press '1' for A</p></div><div style='float: right;padding-right:30px;'><p>Press '0' for B</p> </div> </div></div>","null","","","","","","","","","","","","","","","",""
"3360","","test","audio-keyboard-response","157","611529","0.0-9.0-1.63","5f5287a0af6c8c555f3015e1","condE","","resources/audio/wordStim/S3_AU_20_bxa_Step-4.wav","49","","","","","","resources/audio/wordStim/S3_AU_20_bxa_Step-4.wav","S3","20","bxa","4","MI","BL","S3-BL","1","1","true"
"null","","fixation","html-keyboard-response","158","612532","0.0-9.0-0.64","5f5287a0af6c8c555f3015e1","condE","","<div class=""vertical-center"" style='width:60%;'><p style='font-weight:bold;'>Does the middle word sound more like the first word (A) or the last word (B)?</p> <br> <div class=""container""> <div id=""a-box""> <p class=""title-text"">A</h3></p> </div> <div id=""x-box""> <p class=""title-text"">X<p> </div> <div id=""b-box""> <p class=""title-text"">B</p></div> <br> <div style='float: left;padding-left:30px;'><p>Press '1' for A</p></div><div style='float: right;padding-right:30px;'><p>Press '0' for B</p> </div> </div></div>","null","","","","","","","","","","","","","","","",""
"3480","","test","audio-keyboard-response","159","616010","0.0-9.0-1.64","5f5287a0af6c8c555f3015e1","condE","","resources/audio/wordStim/S3_AU_19_axb_Step-3.wav","49","","","","","","resources/audio/wordStim/S3_AU_19_axb_Step-3.wav","S3","19","axb","3","MI","BL","S3-BL","0","1","false"
"null","","fixation","html-keyboard-response","160","617015","0.0-9.0-0.65","5f5287a0af6c8c555f3015e1","condE","","<div class=""vertical-center"" style='width:60%;'><p style='font-weight:bold;'>Does the middle word sound more like the first word (A) or the last word (B)?</p> <br> <div class=""container""> <div id=""a-box""> <p class=""title-text"">A</h3></p> </div> <div id=""x-box""> <p class=""title-text"">X<p> </div> <div id=""b-box""> <p class=""title-text"">B</p></div> <br> <div style='float: left;padding-left:30px;'><p>Press '1' for A</p></div><div style='float: right;padding-right:30px;'><p>Press '0' for B</p> </div> </div></div>","null","","","","","","","","","","","","","","","",""
"4539","","test","audio-keyboard-response","161","621557","0.0-9.0-1.65","5f5287a0af6c8c555f3015e1","condE","","resources/audio/wordStim/S3_AU_18_axb_Step-4.wav","49","","","","","","resources/audio/wordStim/S3_AU_18_axb_Step-4.wav","S3","18","axb","4","MI","BL","S3-BL","0","1","false"
"null","","fixation","html-keyboard-response","162","622564","0.0-9.0-0.66","5f5287a0af6c8c555f3015e1","condE","","<div class=""vertical-center"" style='width:60%;'><p style='font-weight:bold;'>Does the middle word sound more like the first word (A) or the last word (B)?</p> <br> <div class=""container""> <div id=""a-box""> <p class=""title-text"">A</h3></p> </div> <div id=""x-box""> <p class=""title-text"">X<p> </div> <div id=""b-box""> <p class=""title-text"">B</p></div> <br> <div style='float: left;padding-left:30px;'><p>Press '1' for A</p></div><div style='float: right;padding-right:30px;'><p>Press '0' for B</p> </div> </div></div>","null","","","","","","","","","","","","","","","",""
"4320","","test","audio-keyboard-response","163","626884","0.0-9.0-1.66","5f5287a0af6c8c555f3015e1","condE","","resources/audio/wordStim/S3_AI_22_axb_Step-8.wav","48","","","","","","resources/audio/wordStim/S3_AI_22_axb_Step-8.wav","S3","22","axb","8","MI","BL","S3-BL","0","0","true"
"null","","fixation","html-keyboard-response","164","627895","0.0-9.0-0.67","5f5287a0af6c8c555f3015e1","condE","","<div class=""vertical-center"" style='width:60%;'><p style='font-weight:bold;'>Does the middle word sound more like the first word (A) or the last word (B)?</p> <br> <div class=""container""> <div id=""a-box""> <p class=""title-text"">A</h3></p> </div> <div id=""x-box""> <p class=""title-text"">X<p> </div> <div id=""b-box""> <p class=""title-text"">B</p></div> <br> <div style='float: left;padding-left:30px;'><p>Press '1' for A</p></div><div style='float: right;padding-right:30px;'><p>Press '0' for B</p> </div> </div></div>","null","","","","","","","","","","","","","","","",""
"3869","","test","audio-keyboard-response","165","631768","0.0-9.0-1.67","5f5287a0af6c8c555f3015e1","condE","","resources/audio/wordStim/S3_AI_21_bxa_Step-7.wav","48","","","","","","resources/audio/wordStim/S3_AI_21_bxa_Step-7.wav","S3","21","bxa","7","MI","BL","S3-BL","1","0","false"
"null","","fixation","html-keyboard-response","166","632773","0.0-9.0-0.68","5f5287a0af6c8c555f3015e1","condE","","<div class=""vertical-center"" style='width:60%;'><p style='font-weight:bold;'>Does the middle word sound more like the first word (A) or the last word (B)?</p> <br> <div class=""container""> <div id=""a-box""> <p class=""title-text"">A</h3></p> </div> <div id=""x-box""> <p class=""title-text"">X<p> </div> <div id=""b-box""> <p class=""title-text"">B</p></div> <br> <div style='float: left;padding-left:30px;'><p>Press '1' for A</p></div><div style='float: right;padding-right:30px;'><p>Press '0' for B</p> </div> </div></div>","null","","","","","","","","","","","","","","","",""
"7368","","test","audio-keyboard-response","167","640144","0.0-9.0-1.68","5f5287a0af6c8c555f3015e1","condE","","resources/audio/wordStim/S3_AU_19_bxa_Step-3.wav","49","","","","","","resources/audio/wordStim/S3_AU_19_bxa_Step-3.wav","S3","19","bxa","3","MI","BL","S3-BL","1","1","true"
"null","","fixation","html-keyboard-response","168","641149","0.0-9.0-0.69","5f5287a0af6c8c555f3015e1","condE","","<div class=""vertical-center"" style='width:60%;'><p style='font-weight:bold;'>Does the middle word sound more like the first word (A) or the last word (B)?</p> <br> <div class=""container""> <div id=""a-box""> <p class=""title-text"">A</h3></p> </div> <div id=""x-box""> <p class=""title-text"">X<p> </div> <div id=""b-box""> <p class=""title-text"">B</p></div> <br> <div style='float: left;padding-left:30px;'><p>Press '1' for A</p></div><div style='float: right;padding-right:30px;'><p>Press '0' for B</p> </div> </div></div>","null","","","","","","","","","","","","","","","",""
"4949","","test","audio-keyboard-response","169","646101","0.0-9.0-1.69","5f5287a0af6c8c555f3015e1","condE","","resources/audio/wordStim/S3_AU_20_bxa_Step-6.wav","49","","","","","","resources/audio/wordStim/S3_AU_20_bxa_Step-6.wav","S3","20","bxa","6","MI","BL","S3-BL","1","1","true"
"null","","fixation","html-keyboard-response","170","647109","0.0-9.0-0.70","5f5287a0af6c8c555f3015e1","condE","","<div class=""vertical-center"" style='width:60%;'><p style='font-weight:bold;'>Does the middle word sound more like the first word (A) or the last word (B)?</p> <br> <div class=""container""> <div id=""a-box""> <p class=""title-text"">A</h3></p> </div> <div id=""x-box""> <p class=""title-text"">X<p> </div> <div id=""b-box""> <p class=""title-text"">B</p></div> <br> <div style='float: left;padding-left:30px;'><p>Press '1' for A</p></div><div style='float: right;padding-right:30px;'><p>Press '0' for B</p> </div> </div></div>","null","","","","","","","","","","","","","","","",""
"5149","","test","audio-keyboard-response","171","652262","0.0-9.0-1.70","5f5287a0af6c8c555f3015e1","condE","","resources/audio/wordStim/S3_AU_18_bxa_Step-3.wav","49","","","","","","resources/audio/wordStim/S3_AU_18_bxa_Step-3.wav","S3","18","bxa","3","MI","BL","S3-BL","1","1","true"
"null","","fixation","html-keyboard-response","172","653270","0.0-9.0-0.71","5f5287a0af6c8c555f3015e1","condE","","<div class=""vertical-center"" style='width:60%;'><p style='font-weight:bold;'>Does the middle word sound more like the first word (A) or the last word (B)?</p> <br> <div class=""container""> <div id=""a-box""> <p class=""title-text"">A</h3></p> </div> <div id=""x-box""> <p class=""title-text"">X<p> </div> <div id=""b-box""> <p class=""title-text"">B</p></div> <br> <div style='float: left;padding-left:30px;'><p>Press '1' for A</p></div><div style='float: right;padding-right:30px;'><p>Press '0' for B</p> </div> </div></div>","null","","","","","","","","","","","","","","","",""
"3061","","test","audio-keyboard-response","173","656330","0.0-9.0-1.71","5f5287a0af6c8c555f3015e1","condE","","resources/audio/wordStim/S3_AI_21_axb_Step-8.wav","49","","","","","","resources/audio/wordStim/S3_AI_21_axb_Step-8.wav","S3","21","axb","8","MI","BL","S3-BL","0","1","false"
"null","","fixation","html-keyboard-response","174","657342","0.0-9.0-0.72","5f5287a0af6c8c555f3015e1","condE","","<div class=""vertical-center"" style='width:60%;'><p style='font-weight:bold;'>Does the middle word sound more like the first word (A) or the last word (B)?</p> <br> <div class=""container""> <div id=""a-box""> <p class=""title-text"">A</h3></p> </div> <div id=""x-box""> <p class=""title-text"">X<p> </div> <div id=""b-box""> <p class=""title-text"">B</p></div> <br> <div style='float: left;padding-left:30px;'><p>Press '1' for A</p></div><div style='float: right;padding-right:30px;'><p>Press '0' for B</p> </div> </div></div>","null","","","","","","","","","","","","","","","",""
"3472","","test","audio-keyboard-response","175","660814","0.0-9.0-1.72","5f5287a0af6c8c555f3015e1","condE","","resources/audio/wordStim/S3_AI_22_bxa_Step-6.wav","49","","","","","","resources/audio/wordStim/S3_AI_22_bxa_Step-6.wav","S3","22","bxa","6","MI","BL","S3-BL","1","1","true"
"null","","fixation","html-keyboard-response","176","661822","0.0-9.0-0.73","5f5287a0af6c8c555f3015e1","condE","","<div class=""vertical-center"" style='width:60%;'><p style='font-weight:bold;'>Does the middle word sound more like the first word (A) or the last word (B)?</p> <br> <div class=""container""> <div id=""a-box""> <p class=""title-text"">A</h3></p> </div> <div id=""x-box""> <p class=""title-text"">X<p> </div> <div id=""b-box""> <p class=""title-text"">B</p></div> <br> <div style='float: left;padding-left:30px;'><p>Press '1' for A</p></div><div style='float: right;padding-right:30px;'><p>Press '0' for B</p> </div> </div></div>","null","","","","","","","","","","","","","","","",""
"4011","","test","audio-keyboard-response","177","665830","0.0-9.0-1.73","5f5287a0af6c8c555f3015e1","condE","","resources/audio/wordStim/S3_AI_22_bxa_Step-7.wav","48","","","","","","resources/audio/wordStim/S3_AI_22_bxa_Step-7.wav","S3","22","bxa","7","MI","BL","S3-BL","1","0","false"
"null","","fixation","html-keyboard-response","178","666838","0.0-9.0-0.74","5f5287a0af6c8c555f3015e1","condE","","<div class=""vertical-center"" style='width:60%;'><p style='font-weight:bold;'>Does the middle word sound more like the first word (A) or the last word (B)?</p> <br> <div class=""container""> <div id=""a-box""> <p class=""title-text"">A</h3></p> </div> <div id=""x-box""> <p class=""title-text"">X<p> </div> <div id=""b-box""> <p class=""title-text"">B</p></div> <br> <div style='float: left;padding-left:30px;'><p>Press '1' for A</p></div><div style='float: right;padding-right:30px;'><p>Press '0' for B</p> </div> </div></div>","null","","","","","","","","","","","","","","","",""
"3971","","test","audio-keyboard-response","179","670815","0.0-9.0-1.74","5f5287a0af6c8c555f3015e1","condE","","resources/audio/wordStim/S3_AI_21_axb_Step-4.wav","48","","","","","","resources/audio/wordStim/S3_AI_21_axb_Step-4.wav","S3","21","axb","4","MI","BL","S3-BL","0","0","true"
"null","","fixation","html-keyboard-response","180","671822","0.0-9.0-0.75","5f5287a0af6c8c555f3015e1","condE","","<div class=""vertical-center"" style='width:60%;'><p style='font-weight:bold;'>Does the middle word sound more like the first word (A) or the last word (B)?</p> <br> <div class=""container""> <div id=""a-box""> <p class=""title-text"">A</h3></p> </div> <div id=""x-box""> <p class=""title-text"">X<p> </div> <div id=""b-box""> <p class=""title-text"">B</p></div> <br> <div style='float: left;padding-left:30px;'><p>Press '1' for A</p></div><div style='float: right;padding-right:30px;'><p>Press '0' for B</p> </div> </div></div>","null","","","","","","","","","","","","","","","",""
"3981","","test","audio-keyboard-response","181","675806","0.0-9.0-1.75","5f5287a0af6c8c555f3015e1","condE","","resources/audio/wordStim/S3_AI_30_bxa_Step-2.wav","49","","","","","","resources/audio/wordStim/S3_AI_30_bxa_Step-2.wav","S3","30","bxa","2","MI","BL","S3-BL","1","1","true"
"null","","fixation","html-keyboard-response","182","676809","0.0-9.0-0.76","5f5287a0af6c8c555f3015e1","condE","","<div class=""vertical-center"" style='width:60%;'><p style='font-weight:bold;'>Does the middle word sound more like the first word (A) or the last word (B)?</p> <br> <div class=""container""> <div id=""a-box""> <p class=""title-text"">A</h3></p> </div> <div id=""x-box""> <p class=""title-text"">X<p> </div> <div id=""b-box""> <p class=""title-text"">B</p></div> <br> <div style='float: left;padding-left:30px;'><p>Press '1' for A</p></div><div style='float: right;padding-right:30px;'><p>Press '0' for B</p> </div> </div></div>","null","","","","","","","","","","","","","","","",""
"5280","","test","audio-keyboard-response","183","682095","0.0-9.0-1.76","5f5287a0af6c8c555f3015e1","condE","","resources/audio/wordStim/S3_AI_22_axb_Step-6.wav","48","","","","","","resources/audio/wordStim/S3_AI_22_axb_Step-6.wav","S3","22","axb","6","MI","BL","S3-BL","0","0","true"
"null","","fixation","html-keyboard-response","184","683104","0.0-9.0-0.77","5f5287a0af6c8c555f3015e1","condE","","<div class=""vertical-center"" style='width:60%;'><p style='font-weight:bold;'>Does the middle word sound more like the first word (A) or the last word (B)?</p> <br> <div class=""container""> <div id=""a-box""> <p class=""title-text"">A</h3></p> </div> <div id=""x-box""> <p class=""title-text"">X<p> </div> <div id=""b-box""> <p class=""title-text"">B</p></div> <br> <div style='float: left;padding-left:30px;'><p>Press '1' for A</p></div><div style='float: right;padding-right:30px;'><p>Press '0' for B</p> </div> </div></div>","null","","","","","","","","","","","","","","","",""
"3621","","test","audio-keyboard-response","185","686721","0.0-9.0-1.77","5f5287a0af6c8c555f3015e1","condE","","resources/audio/wordStim/S3_AI_21_axb_Step-6.wav","48","","","","","","resources/audio/wordStim/S3_AI_21_axb_Step-6.wav","S3","21","axb","6","MI","BL","S3-BL","0","0","true"
"null","","fixation","html-keyboard-response","186","687726","0.0-9.0-0.78","5f5287a0af6c8c555f3015e1","condE","","<div class=""vertical-center"" style='width:60%;'><p style='font-weight:bold;'>Does the middle word sound more like the first word (A) or the last word (B)?</p> <br> <div class=""container""> <div id=""a-box""> <p class=""title-text"">A</h3></p> </div> <div id=""x-box""> <p class=""title-text"">X<p> </div> <div id=""b-box""> <p class=""title-text"">B</p></div> <br> <div style='float: left;padding-left:30px;'><p>Press '1' for A</p></div><div style='float: right;padding-right:30px;'><p>Press '0' for B</p> </div> </div></div>","null","","","","","","","","","","","","","","","",""
"4280","","test","audio-keyboard-response","187","692007","0.0-9.0-1.78","5f5287a0af6c8c555f3015e1","condE","","resources/audio/wordStim/S3_AI_30_bxa_Step-4.wav","48","","","","","","resources/audio/wordStim/S3_AI_30_bxa_Step-4.wav","S3","30","bxa","4","MI","BL","S3-BL","1","0","false"
"null","","fixation","html-keyboard-response","188","693013","0.0-9.0-0.79","5f5287a0af6c8c555f3015e1","condE","","<div class=""vertical-center"" style='width:60%;'><p style='font-weight:bold;'>Does the middle word sound more like the first word (A) or the last word (B)?</p> <br> <div class=""container""> <div id=""a-box""> <p class=""title-text"">A</h3></p> </div> <div id=""x-box""> <p class=""title-text"">X<p> </div> <div id=""b-box""> <p class=""title-text"">B</p></div> <br> <div style='float: left;padding-left:30px;'><p>Press '1' for A</p></div><div style='float: right;padding-right:30px;'><p>Press '0' for B</p> </div> </div></div>","null","","","","","","","","","","","","","","","",""
"5029","","test","audio-keyboard-response","189","698039","0.0-9.0-1.79","5f5287a0af6c8c555f3015e1","condE","","resources/audio/wordStim/S3_AI_21_bxa_Step-2.wav","49","","","","","","resources/audio/wordStim/S3_AI_21_bxa_Step-2.wav","S3","21","bxa","2","MI","BL","S3-BL","1","1","true"
"null","","fixation","html-keyboard-response","190","699044","0.0-9.0-0.80","5f5287a0af6c8c555f3015e1","condE","","<div class=""vertical-center"" style='width:60%;'><p style='font-weight:bold;'>Does the middle word sound more like the first word (A) or the last word (B)?</p> <br> <div class=""container""> <div id=""a-box""> <p class=""title-text"">A</h3></p> </div> <div id=""x-box""> <p class=""title-text"">X<p> </div> <div id=""b-box""> <p class=""title-text"">B</p></div> <br> <div style='float: left;padding-left:30px;'><p>Press '1' for A</p></div><div style='float: right;padding-right:30px;'><p>Press '0' for B</p> </div> </div></div>","null","","","","","","","","","","","","","","","",""
"4760","","test","audio-keyboard-response","191","703804","0.0-9.0-1.80","5f5287a0af6c8c555f3015e1","condE","","resources/audio/wordStim/S3_AU_18_axb_Step-6.wav","49","","","","","","resources/audio/wordStim/S3_AU_18_axb_Step-6.wav","S3","18","axb","6","MI","BL","S3-BL","0","1","false"
"null","","fixation","html-keyboard-response","192","704809","0.0-9.0-0.81","5f5287a0af6c8c555f3015e1","condE","","<div class=""vertical-center"" style='width:60%;'><p style='font-weight:bold;'>Does the middle word sound more like the first word (A) or the last word (B)?</p> <br> <div class=""container""> <div id=""a-box""> <p class=""title-text"">A</h3></p> </div> <div id=""x-box""> <p class=""title-text"">X<p> </div> <div id=""b-box""> <p class=""title-text"">B</p></div> <br> <div style='float: left;padding-left:30px;'><p>Press '1' for A</p></div><div style='float: right;padding-right:30px;'><p>Press '0' for B</p> </div> </div></div>","null","","","","","","","","","","","","","","","",""
"3840","","test","audio-keyboard-response","193","708657","0.0-9.0-1.81","5f5287a0af6c8c555f3015e1","condE","","resources/audio/wordStim/S3_AI_30_axb_Step-2.wav","49","","","","","","resources/audio/wordStim/S3_AI_30_axb_Step-2.wav","S3","30","axb","2","MI","BL","S3-BL","0","1","false"
"null","","fixation","html-keyboard-response","194","709663","0.0-9.0-0.82","5f5287a0af6c8c555f3015e1","condE","","<div class=""vertical-center"" style='width:60%;'><p style='font-weight:bold;'>Does the middle word sound more like the first word (A) or the last word (B)?</p> <br> <div class=""container""> <div id=""a-box""> <p class=""title-text"">A</h3></p> </div> <div id=""x-box""> <p class=""title-text"">X<p> </div> <div id=""b-box""> <p class=""title-text"">B</p></div> <br> <div style='float: left;padding-left:30px;'><p>Press '1' for A</p></div><div style='float: right;padding-right:30px;'><p>Press '0' for B</p> </div> </div></div>","null","","","","","","","","","","","","","","","",""
"4232","","test","audio-keyboard-response","195","713894","0.0-9.0-1.82","5f5287a0af6c8c555f3015e1","condE","","resources/audio/wordStim/S3_AU_18_axb_Step-5.wav","48","","","","","","resources/audio/wordStim/S3_AU_18_axb_Step-5.wav","S3","18","axb","5","MI","BL","S3-BL","0","0","true"
"null","","fixation","html-keyboard-response","196","714901","0.0-9.0-0.83","5f5287a0af6c8c555f3015e1","condE","","<div class=""vertical-center"" style='width:60%;'><p style='font-weight:bold;'>Does the middle word sound more like the first word (A) or the last word (B)?</p> <br> <div class=""container""> <div id=""a-box""> <p class=""title-text"">A</h3></p> </div> <div id=""x-box""> <p class=""title-text"">X<p> </div> <div id=""b-box""> <p class=""title-text"">B</p></div> <br> <div style='float: left;padding-left:30px;'><p>Press '1' for A</p></div><div style='float: right;padding-right:30px;'><p>Press '0' for B</p> </div> </div></div>","null","","","","","","","","","","","","","","","",""
"4040","","test","audio-keyboard-response","197","718947","0.0-9.0-1.83","5f5287a0af6c8c555f3015e1","condE","","resources/audio/wordStim/S3_AU_20_axb_Step-8.wav","49","","","","","","resources/audio/wordStim/S3_AU_20_axb_Step-8.wav","S3","20","axb","8","MI","BL","S3-BL","0","1","false"
"4165.760000000009","","break","html-keyboard-response","198","723617","0.0-9.0-2.83-0.83","5f5287a0af6c8c555f3015e1","condE","","<div class=""vertical-center""><p>Feel free to take a break!</p><i>When you're ready to continue, press SPACE to begin the next trial.</i></p></div>","32","","","","","","","","","","","","","","","",""
"4523.334999999963","","","html-keyboard-response","199","728142","0.0-10.0","5f5287a0af6c8c555f3015e1","condE","","<div class=""vertical-center""><img src=""resources/images/BL_face_b.png"" style=""width:450px;height:300px;""><p>This is the speaker you're about to hear.</p><p> <br> <i>Press SPACE to continue.</i></p></div>","32","","","","","","","","","","","","","","","",""
"null","","fixation","html-keyboard-response","200","728647","0.0-11.0-0.0","5f5287a0af6c8c555f3015e1","condE","","<div class=""vertical-center"" style='width:60%;'><p style='font-weight:bold;'>Does the middle word sound more like the first word (A) or the last word (B)?</p> <br> <div class=""container""> <div id=""a-box""> <p class=""title-text"">A</h3></p> </div> <div id=""x-box""> <p class=""title-text"">X<p> </div> <div id=""b-box""> <p class=""title-text"">B</p></div> <br> <div style='float: left;padding-left:30px;'><p>Press '1' for A</p></div><div style='float: right;padding-right:30px;'><p>Press '0' for B</p> </div> </div></div>","null","","","","","","","","","","","","","","","",""
"5520","","test","audio-keyboard-response","201","734171","0.0-11.0-1.0","5f5287a0af6c8c555f3015e1","condE","","resources/audio/wordStim/S9_AU_11_axb_Step-8.wav","48","","","","","","resources/audio/wordStim/S9_AU_11_axb_Step-8.wav","S9","11","axb","8","CN","BL","S9-BL","0","0","true"
"null","","fixation","html-keyboard-response","202","735177","0.0-11.0-0.1","5f5287a0af6c8c555f3015e1","condE","","<div class=""vertical-center"" style='width:60%;'><p style='font-weight:bold;'>Does the middle word sound more like the first word (A) or the last word (B)?</p> <br> <div class=""container""> <div id=""a-box""> <p class=""title-text"">A</h3></p> </div> <div id=""x-box""> <p class=""title-text"">X<p> </div> <div id=""b-box""> <p class=""title-text"">B</p></div> <br> <div style='float: left;padding-left:30px;'><p>Press '1' for A</p></div><div style='float: right;padding-right:30px;'><p>Press '0' for B</p> </div> </div></div>","null","","","","","","","","","","","","","","","",""
"4320","","test","audio-keyboard-response","203","739501","0.0-11.0-1.1","5f5287a0af6c8c555f3015e1","condE","","resources/audio/wordStim/S9_AI_29_bxa_Step-5.wav","49","","","","","","resources/audio/wordStim/S9_AI_29_bxa_Step-5.wav","S9","29","bxa","5","CN","BL","S9-BL","1","1","true"
"null","","fixation","html-keyboard-response","204","740506","0.0-11.0-0.2","5f5287a0af6c8c555f3015e1","condE","","<div class=""vertical-center"" style='width:60%;'><p style='font-weight:bold;'>Does the middle word sound more like the first word (A) or the last word (B)?</p> <br> <div class=""container""> <div id=""a-box""> <p class=""title-text"">A</h3></p> </div> <div id=""x-box""> <p class=""title-text"">X<p> </div> <div id=""b-box""> <p class=""title-text"">B</p></div> <br> <div style='float: left;padding-left:30px;'><p>Press '1' for A</p></div><div style='float: right;padding-right:30px;'><p>Press '0' for B</p> </div> </div></div>","null","","","","","","","","","","","","","","","",""
"4451","","test","audio-keyboard-response","205","744956","0.0-11.0-1.2","5f5287a0af6c8c555f3015e1","condE","","resources/audio/wordStim/S9_AU_11_bxa_Step-5.wav","49","","","","","","resources/audio/wordStim/S9_AU_11_bxa_Step-5.wav","S9","11","bxa","5","CN","BL","S9-BL","1","1","true"
"null","","fixation","html-keyboard-response","206","745962","0.0-11.0-0.3","5f5287a0af6c8c555f3015e1","condE","","<div class=""vertical-center"" style='width:60%;'><p style='font-weight:bold;'>Does the middle word sound more like the first word (A) or the last word (B)?</p> <br> <div class=""container""> <div id=""a-box""> <p class=""title-text"">A</h3></p> </div> <div id=""x-box""> <p class=""title-text"">X<p> </div> <div id=""b-box""> <p class=""title-text"">B</p></div> <br> <div style='float: left;padding-left:30px;'><p>Press '1' for A</p></div><div style='float: right;padding-right:30px;'><p>Press '0' for B</p> </div> </div></div>","null","","","","","","","","","","","","","","","",""
"3579","","test","audio-keyboard-response","207","749544","0.0-11.0-1.3","5f5287a0af6c8c555f3015e1","condE","","resources/audio/wordStim/S9_AU_20_axb_Step-6.wav","48","","","","","","resources/audio/wordStim/S9_AU_20_axb_Step-6.wav","S9","20","axb","6","CN","BL","S9-BL","0","0","true"
"null","","fixation","html-keyboard-response","208","750551","0.0-11.0-0.4","5f5287a0af6c8c555f3015e1","condE","","<div class=""vertical-center"" style='width:60%;'><p style='font-weight:bold;'>Does the middle word sound more like the first word (A) or the last word (B)?</p> <br> <div class=""container""> <div id=""a-box""> <p class=""title-text"">A</h3></p> </div> <div id=""x-box""> <p class=""title-text"">X<p> </div> <div id=""b-box""> <p class=""title-text"">B</p></div> <br> <div style='float: left;padding-left:30px;'><p>Press '1' for A</p></div><div style='float: right;padding-right:30px;'><p>Press '0' for B</p> </div> </div></div>","null","","","","","","","","","","","","","","","",""
"4549","","test","audio-keyboard-response","209","755108","0.0-11.0-1.4","5f5287a0af6c8c555f3015e1","condE","","resources/audio/wordStim/S9_AU_11_axb_Step-2.wav","49","","","","","","resources/audio/wordStim/S9_AU_11_axb_Step-2.wav","S9","11","axb","2","CN","BL","S9-BL","0","1","false"
"null","","fixation","html-keyboard-response","210","756117","0.0-11.0-0.5","5f5287a0af6c8c555f3015e1","condE","","<div class=""vertical-center"" style='width:60%;'><p style='font-weight:bold;'>Does the middle word sound more like the first word (A) or the last word (B)?</p> <br> <div class=""container""> <div id=""a-box""> <p class=""title-text"">A</h3></p> </div> <div id=""x-box""> <p class=""title-text"">X<p> </div> <div id=""b-box""> <p class=""title-text"">B</p></div> <br> <div style='float: left;padding-left:30px;'><p>Press '1' for A</p></div><div style='float: right;padding-right:30px;'><p>Press '0' for B</p> </div> </div></div>","null","","","","","","","","","","","","","","","",""
"3899","","test","audio-keyboard-response","211","760028","0.0-11.0-1.5","5f5287a0af6c8c555f3015e1","condE","","resources/audio/wordStim/S9_AI_23_axb_Step-5.wav","49","","","","","","resources/audio/wordStim/S9_AI_23_axb_Step-5.wav","S9","23","axb","5","CN","BL","S9-BL","0","1","false"
"null","","fixation","html-keyboard-response","212","761033","0.0-11.0-0.6","5f5287a0af6c8c555f3015e1","condE","","<div class=""vertical-center"" style='width:60%;'><p style='font-weight:bold;'>Does the middle word sound more like the first word (A) or the last word (B)?</p> <br> <div class=""container""> <div id=""a-box""> <p class=""title-text"">A</h3></p> </div> <div id=""x-box""> <p class=""title-text"">X<p> </div> <div id=""b-box""> <p class=""title-text"">B</p></div> <br> <div style='float: left;padding-left:30px;'><p>Press '1' for A</p></div><div style='float: right;padding-right:30px;'><p>Press '0' for B</p> </div> </div></div>","null","","","","","","","","","","","","","","","",""
