"rt","url","trial_role","trial_type","trial_index","time_elapsed","internal_node_id","participantId","condition","view_history","stimulus","key_press","button_pressed","correct_answer","correct_response","success","vowel","wordStim","speaker","sentNum","order","step","speakerIdentity","raised_answer","key_response","raised_response"
"22266.74500000081","micr.con.consent.html","consent","external-html","0","32042","0.0-0.0","549ea92efdf99b4ffa5fa208","condA","","","","","","","","","","","","","","","","",""
"72573.90499999747","","instructions","instructions","1","104624","0.0-1.0","549ea92efdf99b4ffa5fa208","condA","[{""page_index"":0,""viewing_time"":51991.330000018934},{""page_index"":1,""viewing_time"":11707.78500000597},{""page_index"":2,""viewing_time"":8873.769999976503}]","","","","","","","","","","","","","","","",""
"null","","fixation","html-keyboard-response","2","105129","0.0-2.0-0.0","549ea92efdf99b4ffa5fa208","condA","","<div class=""vertical-center"" style=""font-size:60px;"">+</div>","null","","","","","","","","","","","","","",""
"4707.369999989169","","tonetest","audio-button-response","3","109840","0.0-2.0-1.0","549ea92efdf99b4ffa5fa208","condA","","../../src/audio/toneTest_1.wav","","2","2","true","","","","","","","","","","",""
"null","","fixation","html-keyboard-response","4","110349","0.0-2.0-0.1","549ea92efdf99b4ffa5fa208","condA","","<div class=""vertical-center"" style=""font-size:60px;"">+</div>","null","","","","","","","","","","","","","",""
"4420.389999984764","","tonetest","audio-button-response","5","114771","0.0-2.0-1.1","549ea92efdf99b4ffa5fa208","condA","","../../src/audio/toneTest_2.wav","","1","1","true","","","","","","","","","","",""
"null","","fixation","html-keyboard-response","6","115292","0.0-2.0-0.2","549ea92efdf99b4ffa5fa208","condA","","<div class=""vertical-center"" style=""font-size:60px;"">+</div>","null","","","","","","","","","","","","","",""
"4509.6100000082515","","tonetest","audio-button-response","7","119805","0.0-2.0-1.2","549ea92efdf99b4ffa5fa208","condA","","../../src/audio/toneTest_4.wav","","1","1","true","","","","","","","","","","",""
"null","","fixation","html-keyboard-response","8","120321","0.0-2.0-0.3","549ea92efdf99b4ffa5fa208","condA","","<div class=""vertical-center"" style=""font-size:60px;"">+</div>","null","","","","","","","","","","","","","",""
"4707.0349999994505","","tonetest","audio-button-response","9","125031","0.0-2.0-1.3","549ea92efdf99b4ffa5fa208","condA","","../../src/audio/toneTest_1.wav","","2","2","true","","","","","","","","","","",""
"null","","fixation","html-keyboard-response","10","125536","0.0-2.0-0.4","549ea92efdf99b4ffa5fa208","condA","","<div class=""vertical-center"" style=""font-size:60px;"">+</div>","null","","","","","","","","","","","","","",""
"4435.045000020182","","tonetest","audio-button-response","11","129973","0.0-2.0-1.4","549ea92efdf99b4ffa5fa208","condA","","../../src/audio/toneTest_5.wav","","0","0","true","","","","","","","","","","",""
"null","","fixation","html-keyboard-response","12","130483","0.0-2.0-0.5","549ea92efdf99b4ffa5fa208","condA","","<div class=""vertical-center"" style=""font-size:60px;"">+</div>","null","","","","","","","","","","","","","",""
"4626.695000013569","","tonetest","audio-button-response","13","135113","0.0-2.0-1.5","549ea92efdf99b4ffa5fa208","condA","","../../src/audio/toneTest_3.wav","","2","2","true","","","","","","","","","","",""
"4515.669999993406","","instructions","html-keyboard-response","14","139631","0.0-3.0","549ea92efdf99b4ffa5fa208","condA","","<div class=""vertical-center""><p><b>Your score was 6/6.</b></p><p>If you scored below 6, please ensure that you are wearing properly functioning headphones and in a quiet location free of distractions.</p><p><i>To continue to the main experiment, press SPACE.</i></p></div>","32","","","","","","","","","","","","","",""
"","","","fullscreen","15","143093","0.0-4.0","549ea92efdf99b4ffa5fa208","condA","","","","","","","true","","","","","","","","","",""
"41511.59499998903","","instructions","instructions","16","184608","0.0-5.0","549ea92efdf99b4ffa5fa208","condA","[{""page_index"":0,""viewing_time"":41510.72999997996}]","","","","","","","","","","","","","","","",""
"null","","fixation","html-keyboard-response","17","185114","0.0-6.0-0.0","549ea92efdf99b4ffa5fa208","condA","","<div class=""vertical-center"" style='width:60%;'><p style='font-weight:bold;'>Does the middle word sound more like the first word (A) or the last word (B)?</p> <br> <div class=""container""> <div id=""a-box""> <p class=""title-text"">A</h3></p> </div> <div id=""x-box""> <p class=""title-text"">X<p> </div> <div id=""b-box""> <p class=""title-text"">B</p></div> <br> <div style='float: left;padding-left:30px;'><p>Press '1' for A</p></div><div style='float: right;padding-right:30px;'><p>Press '0' for B</p> </div> </div></div>","null","","","","","","","","","","","","","",""
"7371","","practice","audio-keyboard-response","18","193265","0.0-6.0-1.0","549ea92efdf99b4ffa5fa208","condA","","resources/audio/practiceStim/S1_AI_21_axb_Step-6.wav","49","","","","","","","","","","","","","",""
"null","","fixation","html-keyboard-response","19","194287","0.0-6.0-0.1","549ea92efdf99b4ffa5fa208","condA","","<div class=""vertical-center"" style='width:60%;'><p style='font-weight:bold;'>Does the middle word sound more like the first word (A) or the last word (B)?</p> <br> <div class=""container""> <div id=""a-box""> <p class=""title-text"">A</h3></p> </div> <div id=""x-box""> <p class=""title-text"">X<p> </div> <div id=""b-box""> <p class=""title-text"">B</p></div> <br> <div style='float: left;padding-left:30px;'><p>Press '1' for A</p></div><div style='float: right;padding-right:30px;'><p>Press '0' for B</p> </div> </div></div>","null","","","","","","","","","","","","","",""
"5989","","practice","audio-keyboard-response","20","200281","0.0-6.0-1.1","549ea92efdf99b4ffa5fa208","condA","","resources/audio/practiceStim/S1_AI_21_bxa_Step-6.wav","48","","","","","","","","","","","","","",""
"null","","fixation","html-keyboard-response","21","201285","0.0-6.0-0.2","549ea92efdf99b4ffa5fa208","condA","","<div class=""vertical-center"" style='width:60%;'><p style='font-weight:bold;'>Does the middle word sound more like the first word (A) or the last word (B)?</p> <br> <div class=""container""> <div id=""a-box""> <p class=""title-text"">A</h3></p> </div> <div id=""x-box""> <p class=""title-text"">X<p> </div> <div id=""b-box""> <p class=""title-text"">B</p></div> <br> <div style='float: left;padding-left:30px;'><p>Press '1' for A</p></div><div style='float: right;padding-right:30px;'><p>Press '0' for B</p> </div> </div></div>","null","","","","","","","","","","","","","",""
"3659","","practice","audio-keyboard-response","22","204945","0.0-6.0-1.2","549ea92efdf99b4ffa5fa208","condA","","resources/audio/practiceStim/S1_AU_14_bxa_Step-6.wav","48","","","","","","","","","","","","","",""
"null","","fixation","html-keyboard-response","23","205967","0.0-6.0-0.3","549ea92efdf99b4ffa5fa208","condA","","<div class=""vertical-center"" style='width:60%;'><p style='font-weight:bold;'>Does the middle word sound more like the first word (A) or the last word (B)?</p> <br> <div class=""container""> <div id=""a-box""> <p class=""title-text"">A</h3></p> </div> <div id=""x-box""> <p class=""title-text"">X<p> </div> <div id=""b-box""> <p class=""title-text"">B</p></div> <br> <div style='float: left;padding-left:30px;'><p>Press '1' for A</p></div><div style='float: right;padding-right:30px;'><p>Press '0' for B</p> </div> </div></div>","null","","","","","","","","","","","","","",""
"2949","","practice","audio-keyboard-response","24","208925","0.0-6.0-1.3","549ea92efdf99b4ffa5fa208","condA","","resources/audio/practiceStim/S1_AU_14_axb_Step-6.wav","49","","","","","","","","","","","","","",""
"1440.984999993816","","instructions","instructions","25","210871","0.0-7.0","549ea92efdf99b4ffa5fa208","condA","[{""page_index"":0,""viewing_time"":1440.8150000090245}]","","","","","","","","","","","","","","","",""
"null","","fixation","html-keyboard-response","26","211379","0.0-8.0-0.0","549ea92efdf99b4ffa5fa208","condA","","<div class=""vertical-center"" style='width:60%;'><p style='font-weight:bold;'>Does the middle word sound more like the first word (A) or the last word (B)?</p> <br> <div class=""container""> <div id=""a-box""> <p class=""title-text"">A</h3></p> </div> <div id=""x-box""> <p class=""title-text"">X<p> </div> <div id=""b-box""> <p class=""title-text"">B</p></div> <br> <div style='float: left;padding-left:30px;'><p>Press '1' for A</p></div><div style='float: right;padding-right:30px;'><p>Press '0' for B</p> </div> </div></div>","null","","","","","","","","","","","","","",""
"3541","","test","audio-keyboard-response","27","214932","0.0-8.0-1.0","549ea92efdf99b4ffa5fa208","condA","","resources/audio/wordStim/S9_AI_23_axb_Step-10.wav","48","","","","","AI","resources/audio/wordStim/S9_AI_23_axb_Step-10.wav","S9","23","axb","10","CN","0","0","true"
"null","","fixation","html-keyboard-response","28","215945","0.0-8.0-0.1","549ea92efdf99b4ffa5fa208","condA","","<div class=""vertical-center"" style='width:60%;'><p style='font-weight:bold;'>Does the middle word sound more like the first word (A) or the last word (B)?</p> <br> <div class=""container""> <div id=""a-box""> <p class=""title-text"">A</h3></p> </div> <div id=""x-box""> <p class=""title-text"">X<p> </div> <div id=""b-box""> <p class=""title-text"">B</p></div> <br> <div style='float: left;padding-left:30px;'><p>Press '1' for A</p></div><div style='float: right;padding-right:30px;'><p>Press '0' for B</p> </div> </div></div>","null","","","","","","","","","","","","","",""
"4131","","test","audio-keyboard-response","29","220074","0.0-8.0-1.1","549ea92efdf99b4ffa5fa208","condA","","resources/audio/wordStim/S3_AU_17_axb_Step-3.wav","49","","","","","AU","resources/audio/wordStim/S3_AU_17_axb_Step-3.wav","S3","17","axb","3","MI","0","1","false"
"null","","fixation","html-keyboard-response","30","221090","0.0-8.0-0.2","549ea92efdf99b4ffa5fa208","condA","","<div class=""vertical-center"" style='width:60%;'><p style='font-weight:bold;'>Does the middle word sound more like the first word (A) or the last word (B)?</p> <br> <div class=""container""> <div id=""a-box""> <p class=""title-text"">A</h3></p> </div> <div id=""x-box""> <p class=""title-text"">X<p> </div> <div id=""b-box""> <p class=""title-text"">B</p></div> <br> <div style='float: left;padding-left:30px;'><p>Press '1' for A</p></div><div style='float: right;padding-right:30px;'><p>Press '0' for B</p> </div> </div></div>","null","","","","","","","","","","","","","",""
"2859","","test","audio-keyboard-response","31","223952","0.0-8.0-1.2","549ea92efdf99b4ffa5fa208","condA","","resources/audio/wordStim/S3_AI_25_bxa_Step-2.wav","48","","","","","AI","resources/audio/wordStim/S3_AI_25_bxa_Step-2.wav","S3","25","bxa","2","MI","1","0","false"
"null","","fixation","html-keyboard-response","32","224983","0.0-8.0-0.3","549ea92efdf99b4ffa5fa208","condA","","<div class=""vertical-center"" style='width:60%;'><p style='font-weight:bold;'>Does the middle word sound more like the first word (A) or the last word (B)?</p> <br> <div class=""container""> <div id=""a-box""> <p class=""title-text"">A</h3></p> </div> <div id=""x-box""> <p class=""title-text"">X<p> </div> <div id=""b-box""> <p class=""title-text"">B</p></div> <br> <div style='float: left;padding-left:30px;'><p>Press '1' for A</p></div><div style='float: right;padding-right:30px;'><p>Press '0' for B</p> </div> </div></div>","null","","","","","","","","","","","","","",""
"3061","","test","audio-keyboard-response","33","228046","0.0-8.0-1.3","549ea92efdf99b4ffa5fa208","condA","","resources/audio/wordStim/S9_AU_16_bxa_Step-6.wav","49","","","","","AU","resources/audio/wordStim/S9_AU_16_bxa_Step-6.wav","S9","16","bxa","6","CN","1","1","true"
"null","","fixation","html-keyboard-response","34","229063","0.0-8.0-0.4","549ea92efdf99b4ffa5fa208","condA","","<div class=""vertical-center"" style='width:60%;'><p style='font-weight:bold;'>Does the middle word sound more like the first word (A) or the last word (B)?</p> <br> <div class=""container""> <div id=""a-box""> <p class=""title-text"">A</h3></p> </div> <div id=""x-box""> <p class=""title-text"">X<p> </div> <div id=""b-box""> <p class=""title-text"">B</p></div> <br> <div style='float: left;padding-left:30px;'><p>Press '1' for A</p></div><div style='float: right;padding-right:30px;'><p>Press '0' for B</p> </div> </div></div>","null","","","","","","","","","","","","","",""
"3891","","test","audio-keyboard-response","35","232955","0.0-8.0-1.4","549ea92efdf99b4ffa5fa208","condA","","resources/audio/wordStim/S9_AU_20_bxa_Step-6.wav","49","","","","","AU","resources/audio/wordStim/S9_AU_20_bxa_Step-6.wav","S9","20","bxa","6","CN","1","1","true"
"null","","fixation","html-keyboard-response","36","233968","0.0-8.0-0.5","549ea92efdf99b4ffa5fa208","condA","","<div class=""vertical-center"" style='width:60%;'><p style='font-weight:bold;'>Does the middle word sound more like the first word (A) or the last word (B)?</p> <br> <div class=""container""> <div id=""a-box""> <p class=""title-text"">A</h3></p> </div> <div id=""x-box""> <p class=""title-text"">X<p> </div> <div id=""b-box""> <p class=""title-text"">B</p></div> <br> <div style='float: left;padding-left:30px;'><p>Press '1' for A</p></div><div style='float: right;padding-right:30px;'><p>Press '0' for B</p> </div> </div></div>","null","","","","","","","","","","","","","",""
"2768","","test","audio-keyboard-response","37","236736","0.0-8.0-1.5","549ea92efdf99b4ffa5fa208","condA","","resources/audio/wordStim/S9_AU_16_axb_Step-9.wav","48","","","","","AU","resources/audio/wordStim/S9_AU_16_axb_Step-9.wav","S9","16","axb","9","CN","0","0","true"
"null","","fixation","html-keyboard-response","38","237754","0.0-8.0-0.6","549ea92efdf99b4ffa5fa208","condA","","<div class=""vertical-center"" style='width:60%;'><p style='font-weight:bold;'>Does the middle word sound more like the first word (A) or the last word (B)?</p> <br> <div class=""container""> <div id=""a-box""> <p class=""title-text"">A</h3></p> </div> <div id=""x-box""> <p class=""title-text"">X<p> </div> <div id=""b-box""> <p class=""title-text"">B</p></div> <br> <div style='float: left;padding-left:30px;'><p>Press '1' for A</p></div><div style='float: right;padding-right:30px;'><p>Press '0' for B</p> </div> </div></div>","null","","","","","","","","","","","","","",""
"3739","","test","audio-keyboard-response","39","241503","0.0-8.0-1.6","549ea92efdf99b4ffa5fa208","condA","","resources/audio/wordStim/S3_AI_28_bxa_Step-6.wav","48","","","","","AI","resources/audio/wordStim/S3_AI_28_bxa_Step-6.wav","S3","28","bxa","6","MI","1","0","false"
"null","","fixation","html-keyboard-response","40","242522","0.0-8.0-0.7","549ea92efdf99b4ffa5fa208","condA","","<div class=""vertical-center"" style='width:60%;'><p style='font-weight:bold;'>Does the middle word sound more like the first word (A) or the last word (B)?</p> <br> <div class=""container""> <div id=""a-box""> <p class=""title-text"">A</h3></p> </div> <div id=""x-box""> <p class=""title-text"">X<p> </div> <div id=""b-box""> <p class=""title-text"">B</p></div> <br> <div style='float: left;padding-left:30px;'><p>Press '1' for A</p></div><div style='float: right;padding-right:30px;'><p>Press '0' for B</p> </div> </div></div>","null","","","","","","","","","","","","","",""
"3339","","test","audio-keyboard-response","41","245867","0.0-8.0-1.7","549ea92efdf99b4ffa5fa208","condA","","resources/audio/wordStim/S9_AI_29_axb_Step-9.wav","48","","","","","AI","resources/audio/wordStim/S9_AI_29_axb_Step-9.wav","S9","29","axb","9","CN","0","0","true"
"null","","fixation","html-keyboard-response","42","246883","0.0-8.0-0.8","549ea92efdf99b4ffa5fa208","condA","","<div class=""vertical-center"" style='width:60%;'><p style='font-weight:bold;'>Does the middle word sound more like the first word (A) or the last word (B)?</p> <br> <div class=""container""> <div id=""a-box""> <p class=""title-text"">A</h3></p> </div> <div id=""x-box""> <p class=""title-text"">X<p> </div> <div id=""b-box""> <p class=""title-text"">B</p></div> <br> <div style='float: left;padding-left:30px;'><p>Press '1' for A</p></div><div style='float: right;padding-right:30px;'><p>Press '0' for B</p> </div> </div></div>","null","","","","","","","","","","","","","",""
"3029","","test","audio-keyboard-response","43","249917","0.0-8.0-1.8","549ea92efdf99b4ffa5fa208","condA","","resources/audio/wordStim/S9_AI_25_axb_Step-5.wav","49","","","","","AI","resources/audio/wordStim/S9_AI_25_axb_Step-5.wav","S9","25","axb","5","CN","0","1","false"
"null","","fixation","html-keyboard-response","44","250934","0.0-8.0-0.9","549ea92efdf99b4ffa5fa208","condA","","<div class=""vertical-center"" style='width:60%;'><p style='font-weight:bold;'>Does the middle word sound more like the first word (A) or the last word (B)?</p> <br> <div class=""container""> <div id=""a-box""> <p class=""title-text"">A</h3></p> </div> <div id=""x-box""> <p class=""title-text"">X<p> </div> <div id=""b-box""> <p class=""title-text"">B</p></div> <br> <div style='float: left;padding-left:30px;'><p>Press '1' for A</p></div><div style='float: right;padding-right:30px;'><p>Press '0' for B</p> </div> </div></div>","null","","","","","","","","","","","","","",""
"3451","","test","audio-keyboard-response","45","254393","0.0-8.0-1.9","549ea92efdf99b4ffa5fa208","condA","","resources/audio/wordStim/S3_AU_18_bxa_Step-6.wav","48","","","","","AU","resources/audio/wordStim/S3_AU_18_bxa_Step-6.wav","S3","18","bxa","6","MI","1","0","false"
"null","","fixation","html-keyboard-response","46","255417","0.0-8.0-0.10","549ea92efdf99b4ffa5fa208","condA","","<div class=""vertical-center"" style='width:60%;'><p style='font-weight:bold;'>Does the middle word sound more like the first word (A) or the last word (B)?</p> <br> <div class=""container""> <div id=""a-box""> <p class=""title-text"">A</h3></p> </div> <div id=""x-box""> <p class=""title-text"">X<p> </div> <div id=""b-box""> <p class=""title-text"">B</p></div> <br> <div style='float: left;padding-left:30px;'><p>Press '1' for A</p></div><div style='float: right;padding-right:30px;'><p>Press '0' for B</p> </div> </div></div>","null","","","","","","","","","","","","","",""
"2701","","test","audio-keyboard-response","47","258123","0.0-8.0-1.10","549ea92efdf99b4ffa5fa208","condA","","resources/audio/wordStim/S9_AU_13_bxa_Step-6.wav","48","","","","","AU","resources/audio/wordStim/S9_AU_13_bxa_Step-6.wav","S9","13","bxa","6","CN","1","0","false"
"null","","fixation","html-keyboard-response","48","259144","0.0-8.0-0.11","549ea92efdf99b4ffa5fa208","condA","","<div class=""vertical-center"" style='width:60%;'><p style='font-weight:bold;'>Does the middle word sound more like the first word (A) or the last word (B)?</p> <br> <div class=""container""> <div id=""a-box""> <p class=""title-text"">A</h3></p> </div> <div id=""x-box""> <p class=""title-text"">X<p> </div> <div id=""b-box""> <p class=""title-text"">B</p></div> <br> <div style='float: left;padding-left:30px;'><p>Press '1' for A</p></div><div style='float: right;padding-right:30px;'><p>Press '0' for B</p> </div> </div></div>","null","","","","","","","","","","","","","",""
"3061","","test","audio-keyboard-response","49","262211","0.0-8.0-1.11","549ea92efdf99b4ffa5fa208","condA","","resources/audio/wordStim/S9_AU_17_bxa_Step-4.wav","49","","","","","AU","resources/audio/wordStim/S9_AU_17_bxa_Step-4.wav","S9","17","bxa","4","CN","1","1","true"
"null","","fixation","html-keyboard-response","50","263233","0.0-8.0-0.12","549ea92efdf99b4ffa5fa208","condA","","<div class=""vertical-center"" style='width:60%;'><p style='font-weight:bold;'>Does the middle word sound more like the first word (A) or the last word (B)?</p> <br> <div class=""container""> <div id=""a-box""> <p class=""title-text"">A</h3></p> </div> <div id=""x-box""> <p class=""title-text"">X<p> </div> <div id=""b-box""> <p class=""title-text"">B</p></div> <br> <div style='float: left;padding-left:30px;'><p>Press '1' for A</p></div><div style='float: right;padding-right:30px;'><p>Press '0' for B</p> </div> </div></div>","null","","","","","","","","","","","","","",""
"3699","","test","audio-keyboard-response","51","266932","0.0-8.0-1.12","549ea92efdf99b4ffa5fa208","condA","","resources/audio/wordStim/S3_AU_17_axb_Step-7.wav","49","","","","","AU","resources/audio/wordStim/S3_AU_17_axb_Step-7.wav","S3","17","axb","7","MI","0","1","false"
"null","","fixation","html-keyboard-response","52","267965","0.0-8.0-0.13","549ea92efdf99b4ffa5fa208","condA","","<div class=""vertical-center"" style='width:60%;'><p style='font-weight:bold;'>Does the middle word sound more like the first word (A) or the last word (B)?</p> <br> <div class=""container""> <div id=""a-box""> <p class=""title-text"">A</h3></p> </div> <div id=""x-box""> <p class=""title-text"">X<p> </div> <div id=""b-box""> <p class=""title-text"">B</p></div> <br> <div style='float: left;padding-left:30px;'><p>Press '1' for A</p></div><div style='float: right;padding-right:30px;'><p>Press '0' for B</p> </div> </div></div>","null","","","","","","","","","","","","","",""
"2528","","test","audio-keyboard-response","53","270501","0.0-8.0-1.13","549ea92efdf99b4ffa5fa208","condA","","resources/audio/wordStim/S3_AU_15_bxa_Step-6.wav","48","","","","","AU","resources/audio/wordStim/S3_AU_15_bxa_Step-6.wav","S3","15","bxa","6","MI","1","0","false"
"null","","fixation","html-keyboard-response","54","271506","0.0-8.0-0.14","549ea92efdf99b4ffa5fa208","condA","","<div class=""vertical-center"" style='width:60%;'><p style='font-weight:bold;'>Does the middle word sound more like the first word (A) or the last word (B)?</p> <br> <div class=""container""> <div id=""a-box""> <p class=""title-text"">A</h3></p> </div> <div id=""x-box""> <p class=""title-text"">X<p> </div> <div id=""b-box""> <p class=""title-text"">B</p></div> <br> <div style='float: left;padding-left:30px;'><p>Press '1' for A</p></div><div style='float: right;padding-right:30px;'><p>Press '0' for B</p> </div> </div></div>","null","","","","","","","","","","","","","",""
"3000","","test","audio-keyboard-response","55","274510","0.0-8.0-1.14","549ea92efdf99b4ffa5fa208","condA","","resources/audio/wordStim/S3_AI_30_axb_Step-10.wav","49","","","","","AI","resources/audio/wordStim/S3_AI_30_axb_Step-10.wav","S3","30","axb","10","MI","0","1","false"
"null","","fixation","html-keyboard-response","56","275521","0.0-8.0-0.15","549ea92efdf99b4ffa5fa208","condA","","<div class=""vertical-center"" style='width:60%;'><p style='font-weight:bold;'>Does the middle word sound more like the first word (A) or the last word (B)?</p> <br> <div class=""container""> <div id=""a-box""> <p class=""title-text"">A</h3></p> </div> <div id=""x-box""> <p class=""title-text"">X<p> </div> <div id=""b-box""> <p class=""title-text"">B</p></div> <br> <div style='float: left;padding-left:30px;'><p>Press '1' for A</p></div><div style='float: right;padding-right:30px;'><p>Press '0' for B</p> </div> </div></div>","null","","","","","","","","","","","","","",""
"3411","","test","audio-keyboard-response","57","278930","0.0-8.0-1.15","549ea92efdf99b4ffa5fa208","condA","","resources/audio/wordStim/S9_AU_18_axb_Step-10.wav","49","","","","","AU","resources/audio/wordStim/S9_AU_18_axb_Step-10.wav","S9","18","axb","10","CN","0","1","false"
"null","","fixation","html-keyboard-response","58","279941","0.0-8.0-0.16","549ea92efdf99b4ffa5fa208","condA","","<div class=""vertical-center"" style='width:60%;'><p style='font-weight:bold;'>Does the middle word sound more like the first word (A) or the last word (B)?</p> <br> <div class=""container""> <div id=""a-box""> <p class=""title-text"">A</h3></p> </div> <div id=""x-box""> <p class=""title-text"">X<p> </div> <div id=""b-box""> <p class=""title-text"">B</p></div> <br> <div style='float: left;padding-left:30px;'><p>Press '1' for A</p></div><div style='float: right;padding-right:30px;'><p>Press '0' for B</p> </div> </div></div>","null","","","","","","","","","","","","","",""
"2840","","test","audio-keyboard-response","59","282783","0.0-8.0-1.16","549ea92efdf99b4ffa5fa208","condA","","resources/audio/wordStim/S9_AI_29_bxa_Step-4.wav","48","","","","","AI","resources/audio/wordStim/S9_AI_29_bxa_Step-4.wav","S9","29","bxa","4","CN","1","0","false"
"null","","fixation","html-keyboard-response","60","283822","0.0-8.0-0.17","549ea92efdf99b4ffa5fa208","condA","","<div class=""vertical-center"" style='width:60%;'><p style='font-weight:bold;'>Does the middle word sound more like the first word (A) or the last word (B)?</p> <br> <div class=""container""> <div id=""a-box""> <p class=""title-text"">A</h3></p> </div> <div id=""x-box""> <p class=""title-text"">X<p> </div> <div id=""b-box""> <p class=""title-text"">B</p></div> <br> <div style='float: left;padding-left:30px;'><p>Press '1' for A</p></div><div style='float: right;padding-right:30px;'><p>Press '0' for B</p> </div> </div></div>","null","","","","","","","","","","","","","",""
"3309","","test","audio-keyboard-response","61","287142","0.0-8.0-1.17","549ea92efdf99b4ffa5fa208","condA","","resources/audio/wordStim/S9_AI_22_bxa_Step-6.wav","49","","","","","AI","resources/audio/wordStim/S9_AI_22_bxa_Step-6.wav","S9","22","bxa","6","CN","1","1","true"
"null","","fixation","html-keyboard-response","62","288150","0.0-8.0-0.18","549ea92efdf99b4ffa5fa208","condA","","<div class=""vertical-center"" style='width:60%;'><p style='font-weight:bold;'>Does the middle word sound more like the first word (A) or the last word (B)?</p> <br> <div class=""container""> <div id=""a-box""> <p class=""title-text"">A</h3></p> </div> <div id=""x-box""> <p class=""title-text"">X<p> </div> <div id=""b-box""> <p class=""title-text"">B</p></div> <br> <div style='float: left;padding-left:30px;'><p>Press '1' for A</p></div><div style='float: right;padding-right:30px;'><p>Press '0' for B</p> </div> </div></div>","null","","","","","","","","","","","","","",""
"3011","","test","audio-keyboard-response","63","291161","0.0-8.0-1.18","549ea92efdf99b4ffa5fa208","condA","","resources/audio/wordStim/S3_AI_29_bxa_Step-8.wav","48","","","","","AI","resources/audio/wordStim/S3_AI_29_bxa_Step-8.wav","S3","29","bxa","8","MI","1","0","false"
"null","","fixation","html-keyboard-response","64","292181","0.0-8.0-0.19","549ea92efdf99b4ffa5fa208","condA","","<div class=""vertical-center"" style='width:60%;'><p style='font-weight:bold;'>Does the middle word sound more like the first word (A) or the last word (B)?</p> <br> <div class=""container""> <div id=""a-box""> <p class=""title-text"">A</h3></p> </div> <div id=""x-box""> <p class=""title-text"">X<p> </div> <div id=""b-box""> <p class=""title-text"">B</p></div> <br> <div style='float: left;padding-left:30px;'><p>Press '1' for A</p></div><div style='float: right;padding-right:30px;'><p>Press '0' for B</p> </div> </div></div>","null","","","","","","","","","","","","","",""
"2800","","test","audio-keyboard-response","65","294993","0.0-8.0-1.19","549ea92efdf99b4ffa5fa208","condA","","resources/audio/wordStim/S3_AI_23_axb_Step-5.wav","49","","","","","AI","resources/audio/wordStim/S3_AI_23_axb_Step-5.wav","S3","23","axb","5","MI","0","1","false"
"null","","fixation","html-keyboard-response","66","296013","0.0-8.0-0.20","549ea92efdf99b4ffa5fa208","condA","","<div class=""vertical-center"" style='width:60%;'><p style='font-weight:bold;'>Does the middle word sound more like the first word (A) or the last word (B)?</p> <br> <div class=""container""> <div id=""a-box""> <p class=""title-text"">A</h3></p> </div> <div id=""x-box""> <p class=""title-text"">X<p> </div> <div id=""b-box""> <p class=""title-text"">B</p></div> <br> <div style='float: left;padding-left:30px;'><p>Press '1' for A</p></div><div style='float: right;padding-right:30px;'><p>Press '0' for B</p> </div> </div></div>","null","","","","","","","","","","","","","",""
"3171","","test","audio-keyboard-response","67","299185","0.0-8.0-1.20","549ea92efdf99b4ffa5fa208","condA","","resources/audio/wordStim/S9_AU_18_axb_Step-5.wav","49","","","","","AU","resources/audio/wordStim/S9_AU_18_axb_Step-5.wav","S9","18","axb","5","CN","0","1","false"
"null","","fixation","html-keyboard-response","68","300203","0.0-8.0-0.21","549ea92efdf99b4ffa5fa208","condA","","<div class=""vertical-center"" style='width:60%;'><p style='font-weight:bold;'>Does the middle word sound more like the first word (A) or the last word (B)?</p> <br> <div class=""container""> <div id=""a-box""> <p class=""title-text"">A</h3></p> </div> <div id=""x-box""> <p class=""title-text"">X<p> </div> <div id=""b-box""> <p class=""title-text"">B</p></div> <br> <div style='float: left;padding-left:30px;'><p>Press '1' for A</p></div><div style='float: right;padding-right:30px;'><p>Press '0' for B</p> </div> </div></div>","null","","","","","","","","","","","","","",""
"3288","","test","audio-keyboard-response","69","303504","0.0-8.0-1.21","549ea92efdf99b4ffa5fa208","condA","","resources/audio/wordStim/S3_AU_18_axb_Step-7.wav","49","","","","","AU","resources/audio/wordStim/S3_AU_18_axb_Step-7.wav","S3","18","axb","7","MI","0","1","false"
"null","","fixation","html-keyboard-response","70","304527","0.0-8.0-0.22","549ea92efdf99b4ffa5fa208","condA","","<div class=""vertical-center"" style='width:60%;'><p style='font-weight:bold;'>Does the middle word sound more like the first word (A) or the last word (B)?</p> <br> <div class=""container""> <div id=""a-box""> <p class=""title-text"">A</h3></p> </div> <div id=""x-box""> <p class=""title-text"">X<p> </div> <div id=""b-box""> <p class=""title-text"">B</p></div> <br> <div style='float: left;padding-left:30px;'><p>Press '1' for A</p></div><div style='float: right;padding-right:30px;'><p>Press '0' for B</p> </div> </div></div>","null","","","","","","","","","","","","","",""
"2819","","test","audio-keyboard-response","71","307348","0.0-8.0-1.22","549ea92efdf99b4ffa5fa208","condA","","resources/audio/wordStim/S9_AU_19_axb_Step-10.wav","48","","","","","AU","resources/audio/wordStim/S9_AU_19_axb_Step-10.wav","S9","19","axb","10","CN","0","0","true"
"null","","fixation","html-keyboard-response","72","308368","0.0-8.0-0.23","549ea92efdf99b4ffa5fa208","condA","","<div class=""vertical-center"" style='width:60%;'><p style='font-weight:bold;'>Does the middle word sound more like the first word (A) or the last word (B)?</p> <br> <div class=""container""> <div id=""a-box""> <p class=""title-text"">A</h3></p> </div> <div id=""x-box""> <p class=""title-text"">X<p> </div> <div id=""b-box""> <p class=""title-text"">B</p></div> <br> <div style='float: left;padding-left:30px;'><p>Press '1' for A</p></div><div style='float: right;padding-right:30px;'><p>Press '0' for B</p> </div> </div></div>","null","","","","","","","","","","","","","",""
"2688","","test","audio-keyboard-response","73","311054","0.0-8.0-1.23","549ea92efdf99b4ffa5fa208","condA","","resources/audio/wordStim/S9_AI_25_bxa_Step-2.wav","48","","","","","AI","resources/audio/wordStim/S9_AI_25_bxa_Step-2.wav","S9","25","bxa","2","CN","1","0","false"
"null","","fixation","html-keyboard-response","74","312072","0.0-8.0-0.24","549ea92efdf99b4ffa5fa208","condA","","<div class=""vertical-center"" style='width:60%;'><p style='font-weight:bold;'>Does the middle word sound more like the first word (A) or the last word (B)?</p> <br> <div class=""container""> <div id=""a-box""> <p class=""title-text"">A</h3></p> </div> <div id=""x-box""> <p class=""title-text"">X<p> </div> <div id=""b-box""> <p class=""title-text"">B</p></div> <br> <div style='float: left;padding-left:30px;'><p>Press '1' for A</p></div><div style='float: right;padding-right:30px;'><p>Press '0' for B</p> </div> </div></div>","null","","","","","","","","","","","","","",""
"2869","","test","audio-keyboard-response","75","314948","0.0-8.0-1.24","549ea92efdf99b4ffa5fa208","condA","","resources/audio/wordStim/S9_AI_30_bxa_Step-2.wav","48","","","","","AI","resources/audio/wordStim/S9_AI_30_bxa_Step-2.wav","S9","30","bxa","2","CN","1","0","false"
"null","","fixation","html-keyboard-response","76","315953","0.0-8.0-0.25","549ea92efdf99b4ffa5fa208","condA","","<div class=""vertical-center"" style='width:60%;'><p style='font-weight:bold;'>Does the middle word sound more like the first word (A) or the last word (B)?</p> <br> <div class=""container""> <div id=""a-box""> <p class=""title-text"">A</h3></p> </div> <div id=""x-box""> <p class=""title-text"">X<p> </div> <div id=""b-box""> <p class=""title-text"">B</p></div> <br> <div style='float: left;padding-left:30px;'><p>Press '1' for A</p></div><div style='float: right;padding-right:30px;'><p>Press '0' for B</p> </div> </div></div>","null","","","","","","","","","","","","","",""
"3019","","test","audio-keyboard-response","77","318981","0.0-8.0-1.25","549ea92efdf99b4ffa5fa208","condA","","resources/audio/wordStim/S3_AU_19_axb_Step-5.wav","49","","","","","AU","resources/audio/wordStim/S3_AU_19_axb_Step-5.wav","S3","19","axb","5","MI","0","1","false"
"null","","fixation","html-keyboard-response","78","319993","0.0-8.0-0.26","549ea92efdf99b4ffa5fa208","condA","","<div class=""vertical-center"" style='width:60%;'><p style='font-weight:bold;'>Does the middle word sound more like the first word (A) or the last word (B)?</p> <br> <div class=""container""> <div id=""a-box""> <p class=""title-text"">A</h3></p> </div> <div id=""x-box""> <p class=""title-text"">X<p> </div> <div id=""b-box""> <p class=""title-text"">B</p></div> <br> <div style='float: left;padding-left:30px;'><p>Press '1' for A</p></div><div style='float: right;padding-right:30px;'><p>Press '0' for B</p> </div> </div></div>","null","","","","","","","","","","","","","",""
"3149","","test","audio-keyboard-response","79","323150","0.0-8.0-1.26","549ea92efdf99b4ffa5fa208","condA","","resources/audio/wordStim/S3_AU_17_bxa_Step-2.wav","48","","","","","AU","resources/audio/wordStim/S3_AU_17_bxa_Step-2.wav","S3","17","bxa","2","MI","1","0","false"
"3353.644999995595","","break","html-keyboard-response","80","327019","0.0-8.0-2.26-0.26","549ea92efdf99b4ffa5fa208","condA","","<div class=""vertical-center""><p>Feel free to take a break!</p><i>When you're ready to continue, press SPACE to begin the next trial.</i></p></div>","32","","","","","","","","","","","","","",""
"null","","fixation","html-keyboard-response","81","327542","0.0-8.0-0.27","549ea92efdf99b4ffa5fa208","condA","","<div class=""vertical-center"" style='width:60%;'><p style='font-weight:bold;'>Does the middle word sound more like the first word (A) or the last word (B)?</p> <br> <div class=""container""> <div id=""a-box""> <p class=""title-text"">A</h3></p> </div> <div id=""x-box""> <p class=""title-text"">X<p> </div> <div id=""b-box""> <p class=""title-text"">B</p></div> <br> <div style='float: left;padding-left:30px;'><p>Press '1' for A</p></div><div style='float: right;padding-right:30px;'><p>Press '0' for B</p> </div> </div></div>","null","","","","","","","","","","","","","",""
"3509","","test","audio-keyboard-response","82","331063","0.0-8.0-1.27","549ea92efdf99b4ffa5fa208","condA","","resources/audio/wordStim/S3_AU_18_bxa_Step-4.wav","49","","","","","AU","resources/audio/wordStim/S3_AU_18_bxa_Step-4.wav","S3","18","bxa","4","MI","1","1","true"
"null","","fixation","html-keyboard-response","83","332097","0.0-8.0-0.28","549ea92efdf99b4ffa5fa208","condA","","<div class=""vertical-center"" style='width:60%;'><p style='font-weight:bold;'>Does the middle word sound more like the first word (A) or the last word (B)?</p> <br> <div class=""container""> <div id=""a-box""> <p class=""title-text"">A</h3></p> </div> <div id=""x-box""> <p class=""title-text"">X<p> </div> <div id=""b-box""> <p class=""title-text"">B</p></div> <br> <div style='float: left;padding-left:30px;'><p>Press '1' for A</p></div><div style='float: right;padding-right:30px;'><p>Press '0' for B</p> </div> </div></div>","null","","","","","","","","","","","","","",""
"2611","","test","audio-keyboard-response","84","334706","0.0-8.0-1.28","549ea92efdf99b4ffa5fa208","condA","","resources/audio/wordStim/S3_AU_20_axb_Step-7.wav","49","","","","","AU","resources/audio/wordStim/S3_AU_20_axb_Step-7.wav","S3","20","axb","7","MI","0","1","false"
"null","","fixation","html-keyboard-response","85","335718","0.0-8.0-0.29","549ea92efdf99b4ffa5fa208","condA","","<div class=""vertical-center"" style='width:60%;'><p style='font-weight:bold;'>Does the middle word sound more like the first word (A) or the last word (B)?</p> <br> <div class=""container""> <div id=""a-box""> <p class=""title-text"">A</h3></p> </div> <div id=""x-box""> <p class=""title-text"">X<p> </div> <div id=""b-box""> <p class=""title-text"">B</p></div> <br> <div style='float: left;padding-left:30px;'><p>Press '1' for A</p></div><div style='float: right;padding-right:30px;'><p>Press '0' for B</p> </div> </div></div>","null","","","","","","","","","","","","","",""
"2579","","test","audio-keyboard-response","86","338302","0.0-8.0-1.29","549ea92efdf99b4ffa5fa208","condA","","resources/audio/wordStim/S9_AU_20_axb_Step-3.wav","48","","","","","AU","resources/audio/wordStim/S9_AU_20_axb_Step-3.wav","S9","20","axb","3","CN","0","0","true"
"null","","fixation","html-keyboard-response","87","339313","0.0-8.0-0.30","549ea92efdf99b4ffa5fa208","condA","","<div class=""vertical-center"" style='width:60%;'><p style='font-weight:bold;'>Does the middle word sound more like the first word (A) or the last word (B)?</p> <br> <div class=""container""> <div id=""a-box""> <p class=""title-text"">A</h3></p> </div> <div id=""x-box""> <p class=""title-text"">X<p> </div> <div id=""b-box""> <p class=""title-text"">B</p></div> <br> <div style='float: left;padding-left:30px;'><p>Press '1' for A</p></div><div style='float: right;padding-right:30px;'><p>Press '0' for B</p> </div> </div></div>","null","","","","","","","","","","","","","",""
"3000","","test","audio-keyboard-response","88","342316","0.0-8.0-1.30","549ea92efdf99b4ffa5fa208","condA","","resources/audio/wordStim/S9_AU_17_axb_Step-7.wav","49","","","","","AU","resources/audio/wordStim/S9_AU_17_axb_Step-7.wav","S9","17","axb","7","CN","0","1","false"
"null","","fixation","html-keyboard-response","89","343325","0.0-8.0-0.31","549ea92efdf99b4ffa5fa208","condA","","<div class=""vertical-center"" style='width:60%;'><p style='font-weight:bold;'>Does the middle word sound more like the first word (A) or the last word (B)?</p> <br> <div class=""container""> <div id=""a-box""> <p class=""title-text"">A</h3></p> </div> <div id=""x-box""> <p class=""title-text"">X<p> </div> <div id=""b-box""> <p class=""title-text"">B</p></div> <br> <div style='float: left;padding-left:30px;'><p>Press '1' for A</p></div><div style='float: right;padding-right:30px;'><p>Press '0' for B</p> </div> </div></div>","null","","","","","","","","","","","","","",""
"2888","","test","audio-keyboard-response","90","346220","0.0-8.0-1.31","549ea92efdf99b4ffa5fa208","condA","","resources/audio/wordStim/S9_AI_29_axb_Step-3.wav","49","","","","","AI","resources/audio/wordStim/S9_AI_29_axb_Step-3.wav","S9","29","axb","3","CN","0","1","false"
"null","","fixation","html-keyboard-response","91","347236","0.0-8.0-0.32","549ea92efdf99b4ffa5fa208","condA","","<div class=""vertical-center"" style='width:60%;'><p style='font-weight:bold;'>Does the middle word sound more like the first word (A) or the last word (B)?</p> <br> <div class=""container""> <div id=""a-box""> <p class=""title-text"">A</h3></p> </div> <div id=""x-box""> <p class=""title-text"">X<p> </div> <div id=""b-box""> <p class=""title-text"">B</p></div> <br> <div style='float: left;padding-left:30px;'><p>Press '1' for A</p></div><div style='float: right;padding-right:30px;'><p>Press '0' for B</p> </div> </div></div>","null","","","","","","","","","","","","","",""
"3429","","test","audio-keyboard-response","92","350673","0.0-8.0-1.32","549ea92efdf99b4ffa5fa208","condA","","resources/audio/wordStim/S3_AU_16_axb_Step-5.wav","49","","","","","AU","resources/audio/wordStim/S3_AU_16_axb_Step-5.wav","S3","16","axb","5","MI","0","1","false"
"null","","fixation","html-keyboard-response","93","351692","0.0-8.0-0.33","549ea92efdf99b4ffa5fa208","condA","","<div class=""vertical-center"" style='width:60%;'><p style='font-weight:bold;'>Does the middle word sound more like the first word (A) or the last word (B)?</p> <br> <div class=""container""> <div id=""a-box""> <p class=""title-text"">A</h3></p> </div> <div id=""x-box""> <p class=""title-text"">X<p> </div> <div id=""b-box""> <p class=""title-text"">B</p></div> <br> <div style='float: left;padding-left:30px;'><p>Press '1' for A</p></div><div style='float: right;padding-right:30px;'><p>Press '0' for B</p> </div> </div></div>","null","","","","","","","","","","","","","",""
"2712","","test","audio-keyboard-response","94","354403","0.0-8.0-1.33","549ea92efdf99b4ffa5fa208","condA","","resources/audio/wordStim/S3_AI_23_axb_Step-9.wav","49","","","","","AI","resources/audio/wordStim/S3_AI_23_axb_Step-9.wav","S3","23","axb","9","MI","0","1","false"
"null","","fixation","html-keyboard-response","95","355411","0.0-8.0-0.34","549ea92efdf99b4ffa5fa208","condA","","<div class=""vertical-center"" style='width:60%;'><p style='font-weight:bold;'>Does the middle word sound more like the first word (A) or the last word (B)?</p> <br> <div class=""container""> <div id=""a-box""> <p class=""title-text"">A</h3></p> </div> <div id=""x-box""> <p class=""title-text"">X<p> </div> <div id=""b-box""> <p class=""title-text"">B</p></div> <br> <div style='float: left;padding-left:30px;'><p>Press '1' for A</p></div><div style='float: right;padding-right:30px;'><p>Press '0' for B</p> </div> </div></div>","null","","","","","","","","","","","","","",""
"2392","","test","audio-keyboard-response","96","357806","0.0-8.0-1.34","549ea92efdf99b4ffa5fa208","condA","","resources/audio/wordStim/S3_AI_21_bxa_Step-6.wav","48","","","","","AI","resources/audio/wordStim/S3_AI_21_bxa_Step-6.wav","S3","21","bxa","6","MI","1","0","false"
"null","","fixation","html-keyboard-response","97","358822","0.0-8.0-0.35","549ea92efdf99b4ffa5fa208","condA","","<div class=""vertical-center"" style='width:60%;'><p style='font-weight:bold;'>Does the middle word sound more like the first word (A) or the last word (B)?</p> <br> <div class=""container""> <div id=""a-box""> <p class=""title-text"">A</h3></p> </div> <div id=""x-box""> <p class=""title-text"">X<p> </div> <div id=""b-box""> <p class=""title-text"">B</p></div> <br> <div style='float: left;padding-left:30px;'><p>Press '1' for A</p></div><div style='float: right;padding-right:30px;'><p>Press '0' for B</p> </div> </div></div>","null","","","","","","","","","","","","","",""
"4069","","test","audio-keyboard-response","98","362900","0.0-8.0-1.35","549ea92efdf99b4ffa5fa208","condA","","resources/audio/wordStim/S3_AU_16_axb_Step-3.wav","49","","","","","AU","resources/audio/wordStim/S3_AU_16_axb_Step-3.wav","S3","16","axb","3","MI","0","1","false"
"null","","fixation","html-keyboard-response","99","363923","0.0-8.0-0.36","549ea92efdf99b4ffa5fa208","condA","","<div class=""vertical-center"" style='width:60%;'><p style='font-weight:bold;'>Does the middle word sound more like the first word (A) or the last word (B)?</p> <br> <div class=""container""> <div id=""a-box""> <p class=""title-text"">A</h3></p> </div> <div id=""x-box""> <p class=""title-text"">X<p> </div> <div id=""b-box""> <p class=""title-text"">B</p></div> <br> <div style='float: left;padding-left:30px;'><p>Press '1' for A</p></div><div style='float: right;padding-right:30px;'><p>Press '0' for B</p> </div> </div></div>","null","","","","","","","","","","","","","",""
"3080","","test","audio-keyboard-response","100","367004","0.0-8.0-1.36","549ea92efdf99b4ffa5fa208","condA","","resources/audio/wordStim/S9_AI_27_axb_Step-7.wav","48","","","","","AI","resources/audio/wordStim/S9_AI_27_axb_Step-7.wav","S9","27","axb","7","CN","0","0","true"
"null","","fixation","html-keyboard-response","101","368032","0.0-8.0-0.37","549ea92efdf99b4ffa5fa208","condA","","<div class=""vertical-center"" style='width:60%;'><p style='font-weight:bold;'>Does the middle word sound more like the first word (A) or the last word (B)?</p> <br> <div class=""container""> <div id=""a-box""> <p class=""title-text"">A</h3></p> </div> <div id=""x-box""> <p class=""title-text"">X<p> </div> <div id=""b-box""> <p class=""title-text"">B</p></div> <br> <div style='float: left;padding-left:30px;'><p>Press '1' for A</p></div><div style='float: right;padding-right:30px;'><p>Press '0' for B</p> </div> </div></div>","null","","","","","","","","","","","","","",""
"2891","","test","audio-keyboard-response","102","370933","0.0-8.0-1.37","549ea92efdf99b4ffa5fa208","condA","","resources/audio/wordStim/S9_AI_27_bxa_Step-8.wav","49","","","","","AI","resources/audio/wordStim/S9_AI_27_bxa_Step-8.wav","S9","27","bxa","8","CN","1","1","true"
"null","","fixation","html-keyboard-response","103","371965","0.0-8.0-0.38","549ea92efdf99b4ffa5fa208","condA","","<div class=""vertical-center"" style='width:60%;'><p style='font-weight:bold;'>Does the middle word sound more like the first word (A) or the last word (B)?</p> <br> <div class=""container""> <div id=""a-box""> <p class=""title-text"">A</h3></p> </div> <div id=""x-box""> <p class=""title-text"">X<p> </div> <div id=""b-box""> <p class=""title-text"">B</p></div> <br> <div style='float: left;padding-left:30px;'><p>Press '1' for A</p></div><div style='float: right;padding-right:30px;'><p>Press '0' for B</p> </div> </div></div>","null","","","","","","","","","","","","","",""
"3248","","test","audio-keyboard-response","104","375224","0.0-8.0-1.38","549ea92efdf99b4ffa5fa208","condA","","resources/audio/wordStim/S9_AI_25_axb_Step-9.wav","48","","","","","AI","resources/audio/wordStim/S9_AI_25_axb_Step-9.wav","S9","25","axb","9","CN","0","0","true"
"null","","fixation","html-keyboard-response","105","376243","0.0-8.0-0.39","549ea92efdf99b4ffa5fa208","condA","","<div class=""vertical-center"" style='width:60%;'><p style='font-weight:bold;'>Does the middle word sound more like the first word (A) or the last word (B)?</p> <br> <div class=""container""> <div id=""a-box""> <p class=""title-text"">A</h3></p> </div> <div id=""x-box""> <p class=""title-text"">X<p> </div> <div id=""b-box""> <p class=""title-text"">B</p></div> <br> <div style='float: left;padding-left:30px;'><p>Press '1' for A</p></div><div style='float: right;padding-right:30px;'><p>Press '0' for B</p> </div> </div></div>","null","","","","","","","","","","","","","",""
"3320","","test","audio-keyboard-response","106","379565","0.0-8.0-1.39","549ea92efdf99b4ffa5fa208","condA","","resources/audio/wordStim/S3_AI_29_bxa_Step-4.wav","48","","","","","AI","resources/audio/wordStim/S3_AI_29_bxa_Step-4.wav","S3","29","bxa","4","MI","1","0","false"
"null","","fixation","html-keyboard-response","107","380591","0.0-8.0-0.40","549ea92efdf99b4ffa5fa208","condA","","<div class=""vertical-center"" style='width:60%;'><p style='font-weight:bold;'>Does the middle word sound more like the first word (A) or the last word (B)?</p> <br> <div class=""container""> <div id=""a-box""> <p class=""title-text"">A</h3></p> </div> <div id=""x-box""> <p class=""title-text"">X<p> </div> <div id=""b-box""> <p class=""title-text"">B</p></div> <br> <div style='float: left;padding-left:30px;'><p>Press '1' for A</p></div><div style='float: right;padding-right:30px;'><p>Press '0' for B</p> </div> </div></div>","null","","","","","","","","","","","","","",""
"2960","","test","audio-keyboard-response","108","383562","0.0-8.0-1.40","549ea92efdf99b4ffa5fa208","condA","","resources/audio/wordStim/S9_AI_29_axb_Step-7.wav","48","","","","","AI","resources/audio/wordStim/S9_AI_29_axb_Step-7.wav","S9","29","axb","7","CN","0","0","true"
"null","","fixation","html-keyboard-response","109","384572","0.0-8.0-0.41","549ea92efdf99b4ffa5fa208","condA","","<div class=""vertical-center"" style='width:60%;'><p style='font-weight:bold;'>Does the middle word sound more like the first word (A) or the last word (B)?</p> <br> <div class=""container""> <div id=""a-box""> <p class=""title-text"">A</h3></p> </div> <div id=""x-box""> <p class=""title-text"">X<p> </div> <div id=""b-box""> <p class=""title-text"">B</p></div> <br> <div style='float: left;padding-left:30px;'><p>Press '1' for A</p></div><div style='float: right;padding-right:30px;'><p>Press '0' for B</p> </div> </div></div>","null","","","","","","","","","","","","","",""
"2752","","test","audio-keyboard-response","110","387329","0.0-8.0-1.41","549ea92efdf99b4ffa5fa208","condA","","resources/audio/wordStim/S3_AU_15_bxa_Step-8.wav","49","","","","","AU","resources/audio/wordStim/S3_AU_15_bxa_Step-8.wav","S3","15","bxa","8","MI","1","1","true"
"null","","fixation","html-keyboard-response","111","388334","0.0-8.0-0.42","549ea92efdf99b4ffa5fa208","condA","","<div class=""vertical-center"" style='width:60%;'><p style='font-weight:bold;'>Does the middle word sound more like the first word (A) or the last word (B)?</p> <br> <div class=""container""> <div id=""a-box""> <p class=""title-text"">A</h3></p> </div> <div id=""x-box""> <p class=""title-text"">X<p> </div> <div id=""b-box""> <p class=""title-text"">B</p></div> <br> <div style='float: left;padding-left:30px;'><p>Press '1' for A</p></div><div style='float: right;padding-right:30px;'><p>Press '0' for B</p> </div> </div></div>","null","","","","","","","","","","","","","",""
"2691","","test","audio-keyboard-response","112","391027","0.0-8.0-1.42","549ea92efdf99b4ffa5fa208","condA","","resources/audio/wordStim/S3_AI_25_bxa_Step-6.wav","49","","","","","AI","resources/audio/wordStim/S3_AI_25_bxa_Step-6.wav","S3","25","bxa","6","MI","1","1","true"
"null","","fixation","html-keyboard-response","113","392039","0.0-8.0-0.43","549ea92efdf99b4ffa5fa208","condA","","<div class=""vertical-center"" style='width:60%;'><p style='font-weight:bold;'>Does the middle word sound more like the first word (A) or the last word (B)?</p> <br> <div class=""container""> <div id=""a-box""> <p class=""title-text"">A</h3></p> </div> <div id=""x-box""> <p class=""title-text"">X<p> </div> <div id=""b-box""> <p class=""title-text"">B</p></div> <br> <div style='float: left;padding-left:30px;'><p>Press '1' for A</p></div><div style='float: right;padding-right:30px;'><p>Press '0' for B</p> </div> </div></div>","null","","","","","","","","","","","","","",""
"2899","","test","audio-keyboard-response","114","394938","0.0-8.0-1.43","549ea92efdf99b4ffa5fa208","condA","","resources/audio/wordStim/S3_AI_23_axb_Step-3.wav","49","","","","","AI","resources/audio/wordStim/S3_AI_23_axb_Step-3.wav","S3","23","axb","3","MI","0","1","false"
"null","","fixation","html-keyboard-response","115","395948","0.0-8.0-0.44","549ea92efdf99b4ffa5fa208","condA","","<div class=""vertical-center"" style='width:60%;'><p style='font-weight:bold;'>Does the middle word sound more like the first word (A) or the last word (B)?</p> <br> <div class=""container""> <div id=""a-box""> <p class=""title-text"">A</h3></p> </div> <div id=""x-box""> <p class=""title-text"">X<p> </div> <div id=""b-box""> <p class=""title-text"">B</p></div> <br> <div style='float: left;padding-left:30px;'><p>Press '1' for A</p></div><div style='float: right;padding-right:30px;'><p>Press '0' for B</p> </div> </div></div>","null","","","","","","","","","","","","","",""
"2869","","test","audio-keyboard-response","116","398822","0.0-8.0-1.44","549ea92efdf99b4ffa5fa208","condA","","resources/audio/wordStim/S9_AI_27_axb_Step-9.wav","49","","","","","AI","resources/audio/wordStim/S9_AI_27_axb_Step-9.wav","S9","27","axb","9","CN","0","1","false"
"null","","fixation","html-keyboard-response","117","399837","0.0-8.0-0.45","549ea92efdf99b4ffa5fa208","condA","","<div class=""vertical-center"" style='width:60%;'><p style='font-weight:bold;'>Does the middle word sound more like the first word (A) or the last word (B)?</p> <br> <div class=""container""> <div id=""a-box""> <p class=""title-text"">A</h3></p> </div> <div id=""x-box""> <p class=""title-text"">X<p> </div> <div id=""b-box""> <p class=""title-text"">B</p></div> <br> <div style='float: left;padding-left:30px;'><p>Press '1' for A</p></div><div style='float: right;padding-right:30px;'><p>Press '0' for B</p> </div> </div></div>","null","","","","","","","","","","","","","",""
"2579","","test","audio-keyboard-response","118","402416","0.0-8.0-1.45","549ea92efdf99b4ffa5fa208","condA","","resources/audio/wordStim/S9_AU_20_bxa_Step-8.wav","48","","","","","AU","resources/audio/wordStim/S9_AU_20_bxa_Step-8.wav","S9","20","bxa","8","CN","1","0","false"
"null","","fixation","html-keyboard-response","119","403428","0.0-8.0-0.46","549ea92efdf99b4ffa5fa208","condA","","<div class=""vertical-center"" style='width:60%;'><p style='font-weight:bold;'>Does the middle word sound more like the first word (A) or the last word (B)?</p> <br> <div class=""container""> <div id=""a-box""> <p class=""title-text"">A</h3></p> </div> <div id=""x-box""> <p class=""title-text"">X<p> </div> <div id=""b-box""> <p class=""title-text"">B</p></div> <br> <div style='float: left;padding-left:30px;'><p>Press '1' for A</p></div><div style='float: right;padding-right:30px;'><p>Press '0' for B</p> </div> </div></div>","null","","","","","","","","","","","","","",""
"3621","","test","audio-keyboard-response","120","407052","0.0-8.0-1.46","549ea92efdf99b4ffa5fa208","condA","","resources/audio/wordStim/S9_AI_22_bxa_Step-8.wav","49","","","","","AI","resources/audio/wordStim/S9_AI_22_bxa_Step-8.wav","S9","22","bxa","8","CN","1","1","true"
"null","","fixation","html-keyboard-response","121","408069","0.0-8.0-0.47","549ea92efdf99b4ffa5fa208","condA","","<div class=""vertical-center"" style='width:60%;'><p style='font-weight:bold;'>Does the middle word sound more like the first word (A) or the last word (B)?</p> <br> <div class=""container""> <div id=""a-box""> <p class=""title-text"">A</h3></p> </div> <div id=""x-box""> <p class=""title-text"">X<p> </div> <div id=""b-box""> <p class=""title-text"">B</p></div> <br> <div style='float: left;padding-left:30px;'><p>Press '1' for A</p></div><div style='float: right;padding-right:30px;'><p>Press '0' for B</p> </div> </div></div>","null","","","","","","","","","","","","","",""
"2589","","test","audio-keyboard-response","122","410669","0.0-8.0-1.47","549ea92efdf99b4ffa5fa208","condA","","resources/audio/wordStim/S9_AU_16_bxa_Step-2.wav","48","","","","","AU","resources/audio/wordStim/S9_AU_16_bxa_Step-2.wav","S9","16","bxa","2","CN","1","0","false"
"null","","fixation","html-keyboard-response","123","411687","0.0-8.0-0.48","549ea92efdf99b4ffa5fa208","condA","","<div class=""vertical-center"" style='width:60%;'><p style='font-weight:bold;'>Does the middle word sound more like the first word (A) or the last word (B)?</p> <br> <div class=""container""> <div id=""a-box""> <p class=""title-text"">A</h3></p> </div> <div id=""x-box""> <p class=""title-text"">X<p> </div> <div id=""b-box""> <p class=""title-text"">B</p></div> <br> <div style='float: left;padding-left:30px;'><p>Press '1' for A</p></div><div style='float: right;padding-right:30px;'><p>Press '0' for B</p> </div> </div></div>","null","","","","","","","","","","","","","",""
"2869","","test","audio-keyboard-response","124","414560","0.0-8.0-1.48","549ea92efdf99b4ffa5fa208","condA","","resources/audio/wordStim/S9_AU_14_axb_Step-9.wav","48","","","","","AU","resources/audio/wordStim/S9_AU_14_axb_Step-9.wav","S9","14","axb","9","CN","0","0","true"
"null","","fixation","html-keyboard-response","125","415582","0.0-8.0-0.49","549ea92efdf99b4ffa5fa208","condA","","<div class=""vertical-center"" style='width:60%;'><p style='font-weight:bold;'>Does the middle word sound more like the first word (A) or the last word (B)?</p> <br> <div class=""container""> <div id=""a-box""> <p class=""title-text"">A</h3></p> </div> <div id=""x-box""> <p class=""title-text"">X<p> </div> <div id=""b-box""> <p class=""title-text"">B</p></div> <br> <div style='float: left;padding-left:30px;'><p>Press '1' for A</p></div><div style='float: right;padding-right:30px;'><p>Press '0' for B</p> </div> </div></div>","null","","","","","","","","","","","","","",""
"2331","","test","audio-keyboard-response","126","417924","0.0-8.0-1.49","549ea92efdf99b4ffa5fa208","condA","","resources/audio/wordStim/S3_AI_21_axb_Step-7.wav","48","","","","","AI","resources/audio/wordStim/S3_AI_21_axb_Step-7.wav","S3","21","axb","7","MI","0","0","true"
"null","","fixation","html-keyboard-response","127","418932","0.0-8.0-0.50","549ea92efdf99b4ffa5fa208","condA","","<div class=""vertical-center"" style='width:60%;'><p style='font-weight:bold;'>Does the middle word sound more like the first word (A) or the last word (B)?</p> <br> <div class=""container""> <div id=""a-box""> <p class=""title-text"">A</h3></p> </div> <div id=""x-box""> <p class=""title-text"">X<p> </div> <div id=""b-box""> <p class=""title-text"">B</p></div> <br> <div style='float: left;padding-left:30px;'><p>Press '1' for A</p></div><div style='float: right;padding-right:30px;'><p>Press '0' for B</p> </div> </div></div>","null","","","","","","","","","","","","","",""
"3032","","test","audio-keyboard-response","128","421966","0.0-8.0-1.50","549ea92efdf99b4ffa5fa208","condA","","resources/audio/wordStim/S3_AU_14_bxa_Step-6.wav","49","","","","","AU","resources/audio/wordStim/S3_AU_14_bxa_Step-6.wav","S3","14","bxa","6","MI","1","1","true"
"null","","fixation","html-keyboard-response","129","422973","0.0-8.0-0.51","549ea92efdf99b4ffa5fa208","condA","","<div class=""vertical-center"" style='width:60%;'><p style='font-weight:bold;'>Does the middle word sound more like the first word (A) or the last word (B)?</p> <br> <div class=""container""> <div id=""a-box""> <p class=""title-text"">A</h3></p> </div> <div id=""x-box""> <p class=""title-text"">X<p> </div> <div id=""b-box""> <p class=""title-text"">B</p></div> <br> <div style='float: left;padding-left:30px;'><p>Press '1' for A</p></div><div style='float: right;padding-right:30px;'><p>Press '0' for B</p> </div> </div></div>","null","","","","","","","","","","","","","",""
"2981","","test","audio-keyboard-response","130","425957","0.0-8.0-1.51","549ea92efdf99b4ffa5fa208","condA","","resources/audio/wordStim/S9_AU_20_axb_Step-10.wav","49","","","","","AU","resources/audio/wordStim/S9_AU_20_axb_Step-10.wav","S9","20","axb","10","CN","0","1","false"
"null","","fixation","html-keyboard-response","131","426971","0.0-8.0-0.52","549ea92efdf99b4ffa5fa208","condA","","<div class=""vertical-center"" style='width:60%;'><p style='font-weight:bold;'>Does the middle word sound more like the first word (A) or the last word (B)?</p> <br> <div class=""container""> <div id=""a-box""> <p class=""title-text"">A</h3></p> </div> <div id=""x-box""> <p class=""title-text"">X<p> </div> <div id=""b-box""> <p class=""title-text"">B</p></div> <br> <div style='float: left;padding-left:30px;'><p>Press '1' for A</p></div><div style='float: right;padding-right:30px;'><p>Press '0' for B</p> </div> </div></div>","null","","","","","","","","","","","","","",""
"2560","","test","audio-keyboard-response","132","429542","0.0-8.0-1.52","549ea92efdf99b4ffa5fa208","condA","","resources/audio/wordStim/S3_AU_15_bxa_Step-2.wav","48","","","","","AU","resources/audio/wordStim/S3_AU_15_bxa_Step-2.wav","S3","15","bxa","2","MI","1","0","false"
"null","","fixation","html-keyboard-response","133","430558","0.0-8.0-0.53","549ea92efdf99b4ffa5fa208","condA","","<div class=""vertical-center"" style='width:60%;'><p style='font-weight:bold;'>Does the middle word sound more like the first word (A) or the last word (B)?</p> <br> <div class=""container""> <div id=""a-box""> <p class=""title-text"">A</h3></p> </div> <div id=""x-box""> <p class=""title-text"">X<p> </div> <div id=""b-box""> <p class=""title-text"">B</p></div> <br> <div style='float: left;padding-left:30px;'><p>Press '1' for A</p></div><div style='float: right;padding-right:30px;'><p>Press '0' for B</p> </div> </div></div>","null","","","","","","","","","","","","","",""
"2800","","test","audio-keyboard-response","134","433356","0.0-8.0-1.53","549ea92efdf99b4ffa5fa208","condA","","resources/audio/wordStim/S9_AU_16_axb_Step-5.wav","49","","","","","AU","resources/audio/wordStim/S9_AU_16_axb_Step-5.wav","S9","16","axb","5","CN","0","1","false"
"8265.885000000708","","break","html-keyboard-response","135","442131","0.0-8.0-2.53-0.53","549ea92efdf99b4ffa5fa208","condA","","<div class=""vertical-center""><p>Feel free to take a break!</p><i>When you're ready to continue, press SPACE to begin the next trial.</i></p></div>","32","","","","","","","","","","","","","",""
"null","","fixation","html-keyboard-response","136","442647","0.0-8.0-0.54","549ea92efdf99b4ffa5fa208","condA","","<div class=""vertical-center"" style='width:60%;'><p style='font-weight:bold;'>Does the middle word sound more like the first word (A) or the last word (B)?</p> <br> <div class=""container""> <div id=""a-box""> <p class=""title-text"">A</h3></p> </div> <div id=""x-box""> <p class=""title-text"">X<p> </div> <div id=""b-box""> <p class=""title-text"">B</p></div> <br> <div style='float: left;padding-left:30px;'><p>Press '1' for A</p></div><div style='float: right;padding-right:30px;'><p>Press '0' for B</p> </div> </div></div>","null","","","","","","","","","","","","","",""
"3269","","test","audio-keyboard-response","137","445920","0.0-8.0-1.54","549ea92efdf99b4ffa5fa208","condA","","resources/audio/wordStim/S3_AU_18_bxa_Step-2.wav","48","","","","","AU","resources/audio/wordStim/S3_AU_18_bxa_Step-2.wav","S3","18","bxa","2","MI","1","0","false"
"null","","fixation","html-keyboard-response","138","446932","0.0-8.0-0.55","549ea92efdf99b4ffa5fa208","condA","","<div class=""vertical-center"" style='width:60%;'><p style='font-weight:bold;'>Does the middle word sound more like the first word (A) or the last word (B)?</p> <br> <div class=""container""> <div id=""a-box""> <p class=""title-text"">A</h3></p> </div> <div id=""x-box""> <p class=""title-text"">X<p> </div> <div id=""b-box""> <p class=""title-text"">B</p></div> <br> <div style='float: left;padding-left:30px;'><p>Press '1' for A</p></div><div style='float: right;padding-right:30px;'><p>Press '0' for B</p> </div> </div></div>","null","","","","","","","","","","","","","",""
"3131","","test","audio-keyboard-response","139","450064","0.0-8.0-1.55","549ea92efdf99b4ffa5fa208","condA","","resources/audio/wordStim/S9_AI_24_axb_Step-7.wav","49","","","","","AI","resources/audio/wordStim/S9_AI_24_axb_Step-7.wav","S9","24","axb","7","CN","0","1","false"
"null","","fixation","html-keyboard-response","140","451089","0.0-8.0-0.56","549ea92efdf99b4ffa5fa208","condA","","<div class=""vertical-center"" style='width:60%;'><p style='font-weight:bold;'>Does the middle word sound more like the first word (A) or the last word (B)?</p> <br> <div class=""container""> <div id=""a-box""> <p class=""title-text"">A</h3></p> </div> <div id=""x-box""> <p class=""title-text"">X<p> </div> <div id=""b-box""> <p class=""title-text"">B</p></div> <br> <div style='float: left;padding-left:30px;'><p>Press '1' for A</p></div><div style='float: right;padding-right:30px;'><p>Press '0' for B</p> </div> </div></div>","null","","","","","","","","","","","","","",""
"2829","","test","audio-keyboard-response","141","453923","0.0-8.0-1.56","549ea92efdf99b4ffa5fa208","condA","","resources/audio/wordStim/S3_AU_20_axb_Step-3.wav","49","","","","","AU","resources/audio/wordStim/S3_AU_20_axb_Step-3.wav","S3","20","axb","3","MI","0","1","false"
"null","","fixation","html-keyboard-response","142","454938","0.0-8.0-0.57","549ea92efdf99b4ffa5fa208","condA","","<div class=""vertical-center"" style='width:60%;'><p style='font-weight:bold;'>Does the middle word sound more like the first word (A) or the last word (B)?</p> <br> <div class=""container""> <div id=""a-box""> <p class=""title-text"">A</h3></p> </div> <div id=""x-box""> <p class=""title-text"">X<p> </div> <div id=""b-box""> <p class=""title-text"">B</p></div> <br> <div style='float: left;padding-left:30px;'><p>Press '1' for A</p></div><div style='float: right;padding-right:30px;'><p>Press '0' for B</p> </div> </div></div>","null","","","","","","","","","","","","","",""
"2640","","test","audio-keyboard-response","143","457580","0.0-8.0-1.57","549ea92efdf99b4ffa5fa208","condA","","resources/audio/wordStim/S3_AI_23_bxa_Step-4.wav","49","","","","","AI","resources/audio/wordStim/S3_AI_23_bxa_Step-4.wav","S3","23","bxa","4","MI","1","1","true"
"null","","fixation","html-keyboard-response","144","458606","0.0-8.0-0.58","549ea92efdf99b4ffa5fa208","condA","","<div class=""vertical-center"" style='width:60%;'><p style='font-weight:bold;'>Does the middle word sound more like the first word (A) or the last word (B)?</p> <br> <div class=""container""> <div id=""a-box""> <p class=""title-text"">A</h3></p> </div> <div id=""x-box""> <p class=""title-text"">X<p> </div> <div id=""b-box""> <p class=""title-text"">B</p></div> <br> <div style='float: left;padding-left:30px;'><p>Press '1' for A</p></div><div style='float: right;padding-right:30px;'><p>Press '0' for B</p> </div> </div></div>","null","","","","","","","","","","","","","",""
"2499","","test","audio-keyboard-response","145","461106","0.0-8.0-1.58","549ea92efdf99b4ffa5fa208","condA","","resources/audio/wordStim/S3_AI_25_bxa_Step-4.wav","49","","","","","AI","resources/audio/wordStim/S3_AI_25_bxa_Step-4.wav","S3","25","bxa","4","MI","1","1","true"
"null","","fixation","html-keyboard-response","146","462127","0.0-8.0-0.59","549ea92efdf99b4ffa5fa208","condA","","<div class=""vertical-center"" style='width:60%;'><p style='font-weight:bold;'>Does the middle word sound more like the first word (A) or the last word (B)?</p> <br> <div class=""container""> <div id=""a-box""> <p class=""title-text"">A</h3></p> </div> <div id=""x-box""> <p class=""title-text"">X<p> </div> <div id=""b-box""> <p class=""title-text"">B</p></div> <br> <div style='float: left;padding-left:30px;'><p>Press '1' for A</p></div><div style='float: right;padding-right:30px;'><p>Press '0' for B</p> </div> </div></div>","null","","","","","","","","","","","","","",""
"2840","","test","audio-keyboard-response","147","464973","0.0-8.0-1.59","549ea92efdf99b4ffa5fa208","condA","","resources/audio/wordStim/S3_AI_28_axb_Step-9.wav","48","","","","","AI","resources/audio/wordStim/S3_AI_28_axb_Step-9.wav","S3","28","axb","9","MI","0","0","true"
"null","","fixation","html-keyboard-response","148","465983","0.0-8.0-0.60","549ea92efdf99b4ffa5fa208","condA","","<div class=""vertical-center"" style='width:60%;'><p style='font-weight:bold;'>Does the middle word sound more like the first word (A) or the last word (B)?</p> <br> <div class=""container""> <div id=""a-box""> <p class=""title-text"">A</h3></p> </div> <div id=""x-box""> <p class=""title-text"">X<p> </div> <div id=""b-box""> <p class=""title-text"">B</p></div> <br> <div style='float: left;padding-left:30px;'><p>Press '1' for A</p></div><div style='float: right;padding-right:30px;'><p>Press '0' for B</p> </div> </div></div>","null","","","","","","","","","","","","","",""
"2989","","test","audio-keyboard-response","149","468979","0.0-8.0-1.60","549ea92efdf99b4ffa5fa208","condA","","resources/audio/wordStim/S3_AI_29_axb_Step-3.wav","49","","","","","AI","resources/audio/wordStim/S3_AI_29_axb_Step-3.wav","S3","29","axb","3","MI","0","1","false"
"null","","fixation","html-keyboard-response","150","470002","0.0-8.0-0.61","549ea92efdf99b4ffa5fa208","condA","","<div class=""vertical-center"" style='width:60%;'><p style='font-weight:bold;'>Does the middle word sound more like the first word (A) or the last word (B)?</p> <br> <div class=""container""> <div id=""a-box""> <p class=""title-text"">A</h3></p> </div> <div id=""x-box""> <p class=""title-text"">X<p> </div> <div id=""b-box""> <p class=""title-text"">B</p></div> <br> <div style='float: left;padding-left:30px;'><p>Press '1' for A</p></div><div style='float: right;padding-right:30px;'><p>Press '0' for B</p> </div> </div></div>","null","","","","","","","","","","","","","",""
"3040","","test","audio-keyboard-response","151","473048","0.0-8.0-1.61","549ea92efdf99b4ffa5fa208","condA","","resources/audio/wordStim/S9_AU_13_axb_Step-3.wav","48","","","","","AU","resources/audio/wordStim/S9_AU_13_axb_Step-3.wav","S9","13","axb","3","CN","0","0","true"
"null","","fixation","html-keyboard-response","152","474062","0.0-8.0-0.62","549ea92efdf99b4ffa5fa208","condA","","<div class=""vertical-center"" style='width:60%;'><p style='font-weight:bold;'>Does the middle word sound more like the first word (A) or the last word (B)?</p> <br> <div class=""container""> <div id=""a-box""> <p class=""title-text"">A</h3></p> </div> <div id=""x-box""> <p class=""title-text"">X<p> </div> <div id=""b-box""> <p class=""title-text"">B</p></div> <br> <div style='float: left;padding-left:30px;'><p>Press '1' for A</p></div><div style='float: right;padding-right:30px;'><p>Press '0' for B</p> </div> </div></div>","null","","","","","","","","","","","","","",""
"3109","","test","audio-keyboard-response","153","477183","0.0-8.0-1.62","549ea92efdf99b4ffa5fa208","condA","","resources/audio/wordStim/S9_AI_27_axb_Step-5.wav","49","","","","","AI","resources/audio/wordStim/S9_AI_27_axb_Step-5.wav","S9","27","axb","5","CN","0","1","false"
"null","","fixation","html-keyboard-response","154","478201","0.0-8.0-0.63","549ea92efdf99b4ffa5fa208","condA","","<div class=""vertical-center"" style='width:60%;'><p style='font-weight:bold;'>Does the middle word sound more like the first word (A) or the last word (B)?</p> <br> <div class=""container""> <div id=""a-box""> <p class=""title-text"">A</h3></p> </div> <div id=""x-box""> <p class=""title-text"">X<p> </div> <div id=""b-box""> <p class=""title-text"">B</p></div> <br> <div style='float: left;padding-left:30px;'><p>Press '1' for A</p></div><div style='float: right;padding-right:30px;'><p>Press '0' for B</p> </div> </div></div>","null","","","","","","","","","","","","","",""
"2549","","test","audio-keyboard-response","155","480757","0.0-8.0-1.63","549ea92efdf99b4ffa5fa208","condA","","resources/audio/wordStim/S3_AI_21_axb_Step-5.wav","48","","","","","AI","resources/audio/wordStim/S3_AI_21_axb_Step-5.wav","S3","21","axb","5","MI","0","0","true"
"null","","fixation","html-keyboard-response","156","481772","0.0-8.0-0.64","549ea92efdf99b4ffa5fa208","condA","","<div class=""vertical-center"" style='width:60%;'><p style='font-weight:bold;'>Does the middle word sound more like the first word (A) or the last word (B)?</p> <br> <div class=""container""> <div id=""a-box""> <p class=""title-text"">A</h3></p> </div> <div id=""x-box""> <p class=""title-text"">X<p> </div> <div id=""b-box""> <p class=""title-text"">B</p></div> <br> <div style='float: left;padding-left:30px;'><p>Press '1' for A</p></div><div style='float: right;padding-right:30px;'><p>Press '0' for B</p> </div> </div></div>","null","","","","","","","","","","","","","",""
"3000","","test","audio-keyboard-response","157","484780","0.0-8.0-1.64","549ea92efdf99b4ffa5fa208","condA","","resources/audio/wordStim/S9_AU_11_axb_Step-10.wav","48","","","","","AU","resources/audio/wordStim/S9_AU_11_axb_Step-10.wav","S9","11","axb","10","CN","0","0","true"
"null","","fixation","html-keyboard-response","158","485799","0.0-8.0-0.65","549ea92efdf99b4ffa5fa208","condA","","<div class=""vertical-center"" style='width:60%;'><p style='font-weight:bold;'>Does the middle word sound more like the first word (A) or the last word (B)?</p> <br> <div class=""container""> <div id=""a-box""> <p class=""title-text"">A</h3></p> </div> <div id=""x-box""> <p class=""title-text"">X<p> </div> <div id=""b-box""> <p class=""title-text"">B</p></div> <br> <div style='float: left;padding-left:30px;'><p>Press '1' for A</p></div><div style='float: right;padding-right:30px;'><p>Press '0' for B</p> </div> </div></div>","null","","","","","","","","","","","","","",""
"2989","","test","audio-keyboard-response","159","488791","0.0-8.0-1.65","549ea92efdf99b4ffa5fa208","condA","","resources/audio/wordStim/S9_AI_23_bxa_Step-2.wav","49","","","","","AI","resources/audio/wordStim/S9_AI_23_bxa_Step-2.wav","S9","23","bxa","2","CN","1","1","true"
"null","","fixation","html-keyboard-response","160","489807","0.0-8.0-0.66","549ea92efdf99b4ffa5fa208","condA","","<div class=""vertical-center"" style='width:60%;'><p style='font-weight:bold;'>Does the middle word sound more like the first word (A) or the last word (B)?</p> <br> <div class=""container""> <div id=""a-box""> <p class=""title-text"">A</h3></p> </div> <div id=""x-box""> <p class=""title-text"">X<p> </div> <div id=""b-box""> <p class=""title-text"">B</p></div> <br> <div style='float: left;padding-left:30px;'><p>Press '1' for A</p></div><div style='float: right;padding-right:30px;'><p>Press '0' for B</p> </div> </div></div>","null","","","","","","","","","","","","","",""
"2749","","test","audio-keyboard-response","161","492556","0.0-8.0-1.66","549ea92efdf99b4ffa5fa208","condA","","resources/audio/wordStim/S9_AU_19_axb_Step-5.wav","49","","","","","AU","resources/audio/wordStim/S9_AU_19_axb_Step-5.wav","S9","19","axb","5","CN","0","1","false"
"null","","fixation","html-keyboard-response","162","493562","0.0-8.0-0.67","549ea92efdf99b4ffa5fa208","condA","","<div class=""vertical-center"" style='width:60%;'><p style='font-weight:bold;'>Does the middle word sound more like the first word (A) or the last word (B)?</p> <br> <div class=""container""> <div id=""a-box""> <p class=""title-text"">A</h3></p> </div> <div id=""x-box""> <p class=""title-text"">X<p> </div> <div id=""b-box""> <p class=""title-text"">B</p></div> <br> <div style='float: left;padding-left:30px;'><p>Press '1' for A</p></div><div style='float: right;padding-right:30px;'><p>Press '0' for B</p> </div> </div></div>","null","","","","","","","","","","","","","",""
"2779","","test","audio-keyboard-response","163","496347","0.0-8.0-1.67","549ea92efdf99b4ffa5fa208","condA","","resources/audio/wordStim/S3_AU_15_axb_Step-7.wav","48","","","","","AU","resources/audio/wordStim/S3_AU_15_axb_Step-7.wav","S3","15","axb","7","MI","0","0","true"
"null","","fixation","html-keyboard-response","164","497370","0.0-8.0-0.68","549ea92efdf99b4ffa5fa208","condA","","<div class=""vertical-center"" style='width:60%;'><p style='font-weight:bold;'>Does the middle word sound more like the first word (A) or the last word (B)?</p> <br> <div class=""container""> <div id=""a-box""> <p class=""title-text"">A</h3></p> </div> <div id=""x-box""> <p class=""title-text"">X<p> </div> <div id=""b-box""> <p class=""title-text"">B</p></div> <br> <div style='float: left;padding-left:30px;'><p>Press '1' for A</p></div><div style='float: right;padding-right:30px;'><p>Press '0' for B</p> </div> </div></div>","null","","","","","","","","","","","","","",""
"2811","","test","audio-keyboard-response","165","500186","0.0-8.0-1.68","549ea92efdf99b4ffa5fa208","condA","","resources/audio/wordStim/S9_AI_29_bxa_Step-2.wav","49","","","","","AI","resources/audio/wordStim/S9_AI_29_bxa_Step-2.wav","S9","29","bxa","2","CN","1","1","true"
"null","","fixation","html-keyboard-response","166","501202","0.0-8.0-0.69","549ea92efdf99b4ffa5fa208","condA","","<div class=""vertical-center"" style='width:60%;'><p style='font-weight:bold;'>Does the middle word sound more like the first word (A) or the last word (B)?</p> <br> <div class=""container""> <div id=""a-box""> <p class=""title-text"">A</h3></p> </div> <div id=""x-box""> <p class=""title-text"">X<p> </div> <div id=""b-box""> <p class=""title-text"">B</p></div> <br> <div style='float: left;padding-left:30px;'><p>Press '1' for A</p></div><div style='float: right;padding-right:30px;'><p>Press '0' for B</p> </div> </div></div>","null","","","","","","","","","","","","","",""
"2749","","test","audio-keyboard-response","167","503958","0.0-8.0-1.69","549ea92efdf99b4ffa5fa208","condA","","resources/audio/wordStim/S9_AU_17_bxa_Step-2.wav","48","","","","","AU","resources/audio/wordStim/S9_AU_17_bxa_Step-2.wav","S9","17","bxa","2","CN","1","0","false"
"null","","fixation","html-keyboard-response","168","504967","0.0-8.0-0.70","549ea92efdf99b4ffa5fa208","condA","","<div class=""vertical-center"" style='width:60%;'><p style='font-weight:bold;'>Does the middle word sound more like the first word (A) or the last word (B)?</p> <br> <div class=""container""> <div id=""a-box""> <p class=""title-text"">A</h3></p> </div> <div id=""x-box""> <p class=""title-text"">X<p> </div> <div id=""b-box""> <p class=""title-text"">B</p></div> <br> <div style='float: left;padding-left:30px;'><p>Press '1' for A</p></div><div style='float: right;padding-right:30px;'><p>Press '0' for B</p> </div> </div></div>","null","","","","","","","","","","","","","",""
"2659","","test","audio-keyboard-response","169","507628","0.0-8.0-1.70","549ea92efdf99b4ffa5fa208","condA","","resources/audio/wordStim/S9_AU_20_bxa_Step-4.wav","49","","","","","AU","resources/audio/wordStim/S9_AU_20_bxa_Step-4.wav","S9","20","bxa","4","CN","1","1","true"
"null","","fixation","html-keyboard-response","170","508642","0.0-8.0-0.71","549ea92efdf99b4ffa5fa208","condA","","<div class=""vertical-center"" style='width:60%;'><p style='font-weight:bold;'>Does the middle word sound more like the first word (A) or the last word (B)?</p> <br> <div class=""container""> <div id=""a-box""> <p class=""title-text"">A</h3></p> </div> <div id=""x-box""> <p class=""title-text"">X<p> </div> <div id=""b-box""> <p class=""title-text"">B</p></div> <br> <div style='float: left;padding-left:30px;'><p>Press '1' for A</p></div><div style='float: right;padding-right:30px;'><p>Press '0' for B</p> </div> </div></div>","null","","","","","","","","","","","","","",""
"2989","","test","audio-keyboard-response","171","511638","0.0-8.0-1.71","549ea92efdf99b4ffa5fa208","condA","","resources/audio/wordStim/S3_AI_30_bxa_Step-2.wav","48","","","","","AI","resources/audio/wordStim/S3_AI_30_bxa_Step-2.wav","S3","30","bxa","2","MI","1","0","false"
"null","","fixation","html-keyboard-response","172","512651","0.0-8.0-0.72","549ea92efdf99b4ffa5fa208","condA","","<div class=""vertical-center"" style='width:60%;'><p style='font-weight:bold;'>Does the middle word sound more like the first word (A) or the last word (B)?</p> <br> <div class=""container""> <div id=""a-box""> <p class=""title-text"">A</h3></p> </div> <div id=""x-box""> <p class=""title-text"">X<p> </div> <div id=""b-box""> <p class=""title-text"">B</p></div> <br> <div style='float: left;padding-left:30px;'><p>Press '1' for A</p></div><div style='float: right;padding-right:30px;'><p>Press '0' for B</p> </div> </div></div>","null","","","","","","","","","","","","","",""
"2832","","test","audio-keyboard-response","173","515485","0.0-8.0-1.72","549ea92efdf99b4ffa5fa208","condA","","resources/audio/wordStim/S9_AI_24_axb_Step-9.wav","49","","","","","AI","resources/audio/wordStim/S9_AI_24_axb_Step-9.wav","S9","24","axb","9","CN","0","1","false"
"null","","fixation","html-keyboard-response","174","516502","0.0-8.0-0.73","549ea92efdf99b4ffa5fa208","condA","","<div class=""vertical-center"" style='width:60%;'><p style='font-weight:bold;'>Does the middle word sound more like the first word (A) or the last word (B)?</p> <br> <div class=""container""> <div id=""a-box""> <p class=""title-text"">A</h3></p> </div> <div id=""x-box""> <p class=""title-text"">X<p> </div> <div id=""b-box""> <p class=""title-text"">B</p></div> <br> <div style='float: left;padding-left:30px;'><p>Press '1' for A</p></div><div style='float: right;padding-right:30px;'><p>Press '0' for B</p> </div> </div></div>","null","","","","","","","","","","","","","",""
"2989","","test","audio-keyboard-response","175","519502","0.0-8.0-1.73","549ea92efdf99b4ffa5fa208","condA","","resources/audio/wordStim/S3_AI_22_axb_Step-3.wav","49","","","","","AI","resources/audio/wordStim/S3_AI_22_axb_Step-3.wav","S3","22","axb","3","MI","0","1","false"
"null","","fixation","html-keyboard-response","176","520522","0.0-8.0-0.74","549ea92efdf99b4ffa5fa208","condA","","<div class=""vertical-center"" style='width:60%;'><p style='font-weight:bold;'>Does the middle word sound more like the first word (A) or the last word (B)?</p> <br> <div class=""container""> <div id=""a-box""> <p class=""title-text"">A</h3></p> </div> <div id=""x-box""> <p class=""title-text"">X<p> </div> <div id=""b-box""> <p class=""title-text"">B</p></div> <br> <div style='float: left;padding-left:30px;'><p>Press '1' for A</p></div><div style='float: right;padding-right:30px;'><p>Press '0' for B</p> </div> </div></div>","null","","","","","","","","","","","","","",""
"3779","","test","audio-keyboard-response","177","524308","0.0-8.0-1.74","549ea92efdf99b4ffa5fa208","condA","","resources/audio/wordStim/S3_AU_16_bxa_Step-6.wav","48","","","","","AU","resources/audio/wordStim/S3_AU_16_bxa_Step-6.wav","S3","16","bxa","6","MI","1","0","false"
"null","","fixation","html-keyboard-response","178","525331","0.0-8.0-0.75","549ea92efdf99b4ffa5fa208","condA","","<div class=""vertical-center"" style='width:60%;'><p style='font-weight:bold;'>Does the middle word sound more like the first word (A) or the last word (B)?</p> <br> <div class=""container""> <div id=""a-box""> <p class=""title-text"">A</h3></p> </div> <div id=""x-box""> <p class=""title-text"">X<p> </div> <div id=""b-box""> <p class=""title-text"">B</p></div> <br> <div style='float: left;padding-left:30px;'><p>Press '1' for A</p></div><div style='float: right;padding-right:30px;'><p>Press '0' for B</p> </div> </div></div>","null","","","","","","","","","","","","","",""
"2552","","test","audio-keyboard-response","179","527886","0.0-8.0-1.75","549ea92efdf99b4ffa5fa208","condA","","resources/audio/wordStim/S3_AU_19_axb_Step-7.wav","48","","","","","AU","resources/audio/wordStim/S3_AU_19_axb_Step-7.wav","S3","19","axb","7","MI","0","0","true"
"null","","fixation","html-keyboard-response","180","528911","0.0-8.0-0.76","549ea92efdf99b4ffa5fa208","condA","","<div class=""vertical-center"" style='width:60%;'><p style='font-weight:bold;'>Does the middle word sound more like the first word (A) or the last word (B)?</p> <br> <div class=""container""> <div id=""a-box""> <p class=""title-text"">A</h3></p> </div> <div id=""x-box""> <p class=""title-text"">X<p> </div> <div id=""b-box""> <p class=""title-text"">B</p></div> <br> <div style='float: left;padding-left:30px;'><p>Press '1' for A</p></div><div style='float: right;padding-right:30px;'><p>Press '0' for B</p> </div> </div></div>","null","","","","","","","","","","","","","",""
"2309","","test","audio-keyboard-response","181","531227","0.0-8.0-1.76","549ea92efdf99b4ffa5fa208","condA","","resources/audio/wordStim/S3_AI_21_axb_Step-3.wav","48","","","","","AI","resources/audio/wordStim/S3_AI_21_axb_Step-3.wav","S3","21","axb","3","MI","0","0","true"
"null","","fixation","html-keyboard-response","182","532254","0.0-8.0-0.77","549ea92efdf99b4ffa5fa208","condA","","<div class=""vertical-center"" style='width:60%;'><p style='font-weight:bold;'>Does the middle word sound more like the first word (A) or the last word (B)?</p> <br> <div class=""container""> <div id=""a-box""> <p class=""title-text"">A</h3></p> </div> <div id=""x-box""> <p class=""title-text"">X<p> </div> <div id=""b-box""> <p class=""title-text"">B</p></div> <br> <div style='float: left;padding-left:30px;'><p>Press '1' for A</p></div><div style='float: right;padding-right:30px;'><p>Press '0' for B</p> </div> </div></div>","null","","","","","","","","","","","","","",""
"2891","","test","audio-keyboard-response","183","535145","0.0-8.0-1.77","549ea92efdf99b4ffa5fa208","condA","","resources/audio/wordStim/S9_AU_13_axb_Step-10.wav","49","","","","","AU","resources/audio/wordStim/S9_AU_13_axb_Step-10.wav","S9","13","axb","10","CN","0","1","false"
"null","","fixation","html-keyboard-response","184","536171","0.0-8.0-0.78","549ea92efdf99b4ffa5fa208","condA","","<div class=""vertical-center"" style='width:60%;'><p style='font-weight:bold;'>Does the middle word sound more like the first word (A) or the last word (B)?</p> <br> <div class=""container""> <div id=""a-box""> <p class=""title-text"">A</h3></p> </div> <div id=""x-box""> <p class=""title-text"">X<p> </div> <div id=""b-box""> <p class=""title-text"">B</p></div> <br> <div style='float: left;padding-left:30px;'><p>Press '1' for A</p></div><div style='float: right;padding-right:30px;'><p>Press '0' for B</p> </div> </div></div>","null","","","","","","","","","","","","","",""
"3152","","test","audio-keyboard-response","185","539324","0.0-8.0-1.78","549ea92efdf99b4ffa5fa208","condA","","resources/audio/wordStim/S9_AI_25_axb_Step-3.wav","49","","","","","AI","resources/audio/wordStim/S9_AI_25_axb_Step-3.wav","S9","25","axb","3","CN","0","1","false"
"null","","fixation","html-keyboard-response","186","540330","0.0-8.0-0.79","549ea92efdf99b4ffa5fa208","condA","","<div class=""vertical-center"" style='width:60%;'><p style='font-weight:bold;'>Does the middle word sound more like the first word (A) or the last word (B)?</p> <br> <div class=""container""> <div id=""a-box""> <p class=""title-text"">A</h3></p> </div> <div id=""x-box""> <p class=""title-text"">X<p> </div> <div id=""b-box""> <p class=""title-text"">B</p></div> <br> <div style='float: left;padding-left:30px;'><p>Press '1' for A</p></div><div style='float: right;padding-right:30px;'><p>Press '0' for B</p> </div> </div></div>","null","","","","","","","","","","","","","",""
"2941","","test","audio-keyboard-response","187","543277","0.0-8.0-1.79","549ea92efdf99b4ffa5fa208","condA","","resources/audio/wordStim/S3_AU_11_axb_Step-9.wav","49","","","","","AU","resources/audio/wordStim/S3_AU_11_axb_Step-9.wav","S3","11","axb","9","MI","0","1","false"
"null","","fixation","html-keyboard-response","188","544297","0.0-8.0-0.80","549ea92efdf99b4ffa5fa208","condA","","<div class=""vertical-center"" style='width:60%;'><p style='font-weight:bold;'>Does the middle word sound more like the first word (A) or the last word (B)?</p> <br> <div class=""container""> <div id=""a-box""> <p class=""title-text"">A</h3></p> </div> <div id=""x-box""> <p class=""title-text"">X<p> </div> <div id=""b-box""> <p class=""title-text"">B</p></div> <br> <div style='float: left;padding-left:30px;'><p>Press '1' for A</p></div><div style='float: right;padding-right:30px;'><p>Press '0' for B</p> </div> </div></div>","null","","","","","","","","","","","","","",""
"2832","","test","audio-keyboard-response","189","547131","0.0-8.0-1.80","549ea92efdf99b4ffa5fa208","condA","","resources/audio/wordStim/S3_AU_14_axb_Step-7.wav","48","","","","","AU","resources/audio/wordStim/S3_AU_14_axb_Step-7.wav","S3","14","axb","7","MI","0","0","true"
"7953.150000015739","","break","html-keyboard-response","190","555588","0.0-8.0-2.80-0.80","549ea92efdf99b4ffa5fa208","condA","","<div class=""vertical-center""><p>Feel free to take a break!</p><i>When you're ready to continue, press SPACE to begin the next trial.</i></p></div>","32","","","","","","","","","","","","","",""
"null","","fixation","html-keyboard-response","191","556090","0.0-8.0-0.81","549ea92efdf99b4ffa5fa208","condA","","<div class=""vertical-center"" style='width:60%;'><p style='font-weight:bold;'>Does the middle word sound more like the first word (A) or the last word (B)?</p> <br> <div class=""container""> <div id=""a-box""> <p class=""title-text"">A</h3></p> </div> <div id=""x-box""> <p class=""title-text"">X<p> </div> <div id=""b-box""> <p class=""title-text"">B</p></div> <br> <div style='float: left;padding-left:30px;'><p>Press '1' for A</p></div><div style='float: right;padding-right:30px;'><p>Press '0' for B</p> </div> </div></div>","null","","","","","","","","","","","","","",""
"3091","","test","audio-keyboard-response","192","559188","0.0-8.0-1.81","549ea92efdf99b4ffa5fa208","condA","","resources/audio/wordStim/S3_AI_28_bxa_Step-8.wav","48","","","","","AI","resources/audio/wordStim/S3_AI_28_bxa_Step-8.wav","S3","28","bxa","8","MI","1","0","false"
"null","","fixation","html-keyboard-response","193","560208","0.0-8.0-0.82","549ea92efdf99b4ffa5fa208","condA","","<div class=""vertical-center"" style='width:60%;'><p style='font-weight:bold;'>Does the middle word sound more like the first word (A) or the last word (B)?</p> <br> <div class=""container""> <div id=""a-box""> <p class=""title-text"">A</h3></p> </div> <div id=""x-box""> <p class=""title-text"">X<p> </div> <div id=""b-box""> <p class=""title-text"">B</p></div> <br> <div style='float: left;padding-left:30px;'><p>Press '1' for A</p></div><div style='float: right;padding-right:30px;'><p>Press '0' for B</p> </div> </div></div>","null","","","","","","","","","","","","","",""
"3109","","test","audio-keyboard-response","194","563313","0.0-8.0-1.82","549ea92efdf99b4ffa5fa208","condA","","resources/audio/wordStim/S9_AU_18_bxa_Step-2.wav","48","","","","","AU","resources/audio/wordStim/S9_AU_18_bxa_Step-2.wav","S9","18","bxa","2","CN","1","0","false"
"null","","fixation","html-keyboard-response","195","564337","0.0-8.0-0.83","549ea92efdf99b4ffa5fa208","condA","","<div class=""vertical-center"" style='width:60%;'><p style='font-weight:bold;'>Does the middle word sound more like the first word (A) or the last word (B)?</p> <br> <div class=""container""> <div id=""a-box""> <p class=""title-text"">A</h3></p> </div> <div id=""x-box""> <p class=""title-text"">X<p> </div> <div id=""b-box""> <p class=""title-text"">B</p></div> <br> <div style='float: left;padding-left:30px;'><p>Press '1' for A</p></div><div style='float: right;padding-right:30px;'><p>Press '0' for B</p> </div> </div></div>","null","","","","","","","","","","","","","",""
"3160","","test","audio-keyboard-response","196","567501","0.0-8.0-1.83","549ea92efdf99b4ffa5fa208","condA","","resources/audio/wordStim/S9_AI_29_axb_Step-10.wav","49","","","","","AI","resources/audio/wordStim/S9_AI_29_axb_Step-10.wav","S9","29","axb","10","CN","0","1","false"
"null","","fixation","html-keyboard-response","197","568523","0.0-8.0-0.84","549ea92efdf99b4ffa5fa208","condA","","<div class=""vertical-center"" style='width:60%;'><p style='font-weight:bold;'>Does the middle word sound more like the first word (A) or the last word (B)?</p> <br> <div class=""container""> <div id=""a-box""> <p class=""title-text"">A</h3></p> </div> <div id=""x-box""> <p class=""title-text"">X<p> </div> <div id=""b-box""> <p class=""title-text"">B</p></div> <br> <div style='float: left;padding-left:30px;'><p>Press '1' for A</p></div><div style='float: right;padding-right:30px;'><p>Press '0' for B</p> </div> </div></div>","null","","","","","","","","","","","","","",""
"2720","","test","audio-keyboard-response","198","571250","0.0-8.0-1.84","549ea92efdf99b4ffa5fa208","condA","","resources/audio/wordStim/S3_AI_23_axb_Step-10.wav","48","","","","","AI","resources/audio/wordStim/S3_AI_23_axb_Step-10.wav","S3","23","axb","10","MI","0","0","true"
"null","","fixation","html-keyboard-response","199","572281","0.0-8.0-0.85","549ea92efdf99b4ffa5fa208","condA","","<div class=""vertical-center"" style='width:60%;'><p style='font-weight:bold;'>Does the middle word sound more like the first word (A) or the last word (B)?</p> <br> <div class=""container""> <div id=""a-box""> <p class=""title-text"">A</h3></p> </div> <div id=""x-box""> <p class=""title-text"">X<p> </div> <div id=""b-box""> <p class=""title-text"">B</p></div> <br> <div style='float: left;padding-left:30px;'><p>Press '1' for A</p></div><div style='float: right;padding-right:30px;'><p>Press '0' for B</p> </div> </div></div>","null","","","","","","","","","","","","","",""
"2589","","test","audio-keyboard-response","200","574874","0.0-8.0-1.85","549ea92efdf99b4ffa5fa208","condA","","resources/audio/wordStim/S3_AI_21_axb_Step-10.wav","48","","","","","AI","resources/audio/wordStim/S3_AI_21_axb_Step-10.wav","S3","21","axb","10","MI","0","0","true"
"null","","fixation","html-keyboard-response","201","575889","0.0-8.0-0.86","549ea92efdf99b4ffa5fa208","condA","","<div class=""vertical-center"" style='width:60%;'><p style='font-weight:bold;'>Does the middle word sound more like the first word (A) or the last word (B)?</p> <br> <div class=""container""> <div id=""a-box""> <p class=""title-text"">A</h3></p> </div> <div id=""x-box""> <p class=""title-text"">X<p> </div> <div id=""b-box""> <p class=""title-text"">B</p></div> <br> <div style='float: left;padding-left:30px;'><p>Press '1' for A</p></div><div style='float: right;padding-right:30px;'><p>Press '0' for B</p> </div> </div></div>","null","","","","","","","","","","","","","",""
"4408","","test","audio-keyboard-response","202","580299","0.0-8.0-1.86","549ea92efdf99b4ffa5fa208","condA","","resources/audio/wordStim/S3_AI_22_axb_Step-9.wav","48","","","","","AI","resources/audio/wordStim/S3_AI_22_axb_Step-9.wav","S3","22","axb","9","MI","0","0","true"
"null","","fixation","html-keyboard-response","203","581314","0.0-8.0-0.87","549ea92efdf99b4ffa5fa208","condA","","<div class=""vertical-center"" style='width:60%;'><p style='font-weight:bold;'>Does the middle word sound more like the first word (A) or the last word (B)?</p> <br> <div class=""container""> <div id=""a-box""> <p class=""title-text"">A</h3></p> </div> <div id=""x-box""> <p class=""title-text"">X<p> </div> <div id=""b-box""> <p class=""title-text"">B</p></div> <br> <div style='float: left;padding-left:30px;'><p>Press '1' for A</p></div><div style='float: right;padding-right:30px;'><p>Press '0' for B</p> </div> </div></div>","null","","","","","","","","","","","","","",""
"4709","","test","audio-keyboard-response","204","586027","0.0-8.0-1.87","549ea92efdf99b4ffa5fa208","condA","","resources/audio/wordStim/S3_AU_20_axb_Step-10.wav","49","","","","","AU","resources/audio/wordStim/S3_AU_20_axb_Step-10.wav","S3","20","axb","10","MI","0","1","false"
"null","","fixation","html-keyboard-response","205","587041","0.0-8.0-0.88","549ea92efdf99b4ffa5fa208","condA","","<div class=""vertical-center"" style='width:60%;'><p style='font-weight:bold;'>Does the middle word sound more like the first word (A) or the last word (B)?</p> <br> <div class=""container""> <div id=""a-box""> <p class=""title-text"">A</h3></p> </div> <div id=""x-box""> <p class=""title-text"">X<p> </div> <div id=""b-box""> <p class=""title-text"">B</p></div> <br> <div style='float: left;padding-left:30px;'><p>Press '1' for A</p></div><div style='float: right;padding-right:30px;'><p>Press '0' for B</p> </div> </div></div>","null","","","","","","","","","","","","","",""
"3139","","test","audio-keyboard-response","206","590186","0.0-8.0-1.88","549ea92efdf99b4ffa5fa208","condA","","resources/audio/wordStim/S3_AI_29_axb_Step-9.wav","49","","","","","AI","resources/audio/wordStim/S3_AI_29_axb_Step-9.wav","S3","29","axb","9","MI","0","1","false"
"null","","fixation","html-keyboard-response","207","591202","0.0-8.0-0.89","549ea92efdf99b4ffa5fa208","condA","","<div class=""vertical-center"" style='width:60%;'><p style='font-weight:bold;'>Does the middle word sound more like the first word (A) or the last word (B)?</p> <br> <div class=""container""> <div id=""a-box""> <p class=""title-text"">A</h3></p> </div> <div id=""x-box""> <p class=""title-text"">X<p> </div> <div id=""b-box""> <p class=""title-text"">B</p></div> <br> <div style='float: left;padding-left:30px;'><p>Press '1' for A</p></div><div style='float: right;padding-right:30px;'><p>Press '0' for B</p> </div> </div></div>","null","","","","","","","","","","","","","",""
"3048","","test","audio-keyboard-response","208","594256","0.0-8.0-1.89","549ea92efdf99b4ffa5fa208","condA","","resources/audio/wordStim/S9_AU_11_axb_Step-3.wav","48","","","","","AU","resources/audio/wordStim/S9_AU_11_axb_Step-3.wav","S9","11","axb","3","CN","0","0","true"
"null","","fixation","html-keyboard-response","209","595277","0.0-8.0-0.90","549ea92efdf99b4ffa5fa208","condA","","<div class=""vertical-center"" style='width:60%;'><p style='font-weight:bold;'>Does the middle word sound more like the first word (A) or the last word (B)?</p> <br> <div class=""container""> <div id=""a-box""> <p class=""title-text"">A</h3></p> </div> <div id=""x-box""> <p class=""title-text"">X<p> </div> <div id=""b-box""> <p class=""title-text"">B</p></div> <br> <div style='float: left;padding-left:30px;'><p>Press '1' for A</p></div><div style='float: right;padding-right:30px;'><p>Press '0' for B</p> </div> </div></div>","null","","","","","","","","","","","","","",""
"3749","","test","audio-keyboard-response","210","599028","0.0-8.0-1.90","549ea92efdf99b4ffa5fa208","condA","","resources/audio/wordStim/S9_AI_27_bxa_Step-4.wav","49","","","","","AI","resources/audio/wordStim/S9_AI_27_bxa_Step-4.wav","S9","27","bxa","4","CN","1","1","true"
"null","","fixation","html-keyboard-response","211","600061","0.0-8.0-0.91","549ea92efdf99b4ffa5fa208","condA","","<div class=""vertical-center"" style='width:60%;'><p style='font-weight:bold;'>Does the middle word sound more like the first word (A) or the last word (B)?</p> <br> <div class=""container""> <div id=""a-box""> <p class=""title-text"">A</h3></p> </div> <div id=""x-box""> <p class=""title-text"">X<p> </div> <div id=""b-box""> <p class=""title-text"">B</p></div> <br> <div style='float: left;padding-left:30px;'><p>Press '1' for A</p></div><div style='float: right;padding-right:30px;'><p>Press '0' for B</p> </div> </div></div>","null","","","","","","","","","","","","","",""
"2821","","test","audio-keyboard-response","212","602889","0.0-8.0-1.91","549ea92efdf99b4ffa5fa208","condA","","resources/audio/wordStim/S9_AU_16_bxa_Step-8.wav","49","","","","","AU","resources/audio/wordStim/S9_AU_16_bxa_Step-8.wav","S9","16","bxa","8","CN","1","1","true"
"null","","fixation","html-keyboard-response","213","603906","0.0-8.0-0.92","549ea92efdf99b4ffa5fa208","condA","","<div class=""vertical-center"" style='width:60%;'><p style='font-weight:bold;'>Does the middle word sound more like the first word (A) or the last word (B)?</p> <br> <div class=""container""> <div id=""a-box""> <p class=""title-text"">A</h3></p> </div> <div id=""x-box""> <p class=""title-text"">X<p> </div> <div id=""b-box""> <p class=""title-text"">B</p></div> <br> <div style='float: left;padding-left:30px;'><p>Press '1' for A</p></div><div style='float: right;padding-right:30px;'><p>Press '0' for B</p> </div> </div></div>","null","","","","","","","","","","","","","",""
"2621","","test","audio-keyboard-response","214","606531","0.0-8.0-1.92","549ea92efdf99b4ffa5fa208","condA","","resources/audio/wordStim/S9_AU_16_bxa_Step-4.wav","49","","","","","AU","resources/audio/wordStim/S9_AU_16_bxa_Step-4.wav","S9","16","bxa","4","CN","1","1","true"
