"rt","url","trial_role","trial_type","trial_index","time_elapsed","internal_node_id","participantId","condition","view_history","stimulus","key_press","button_pressed","correct_answer","correct_response","success","vowel","wordStim","speaker","sentNum","order","step","speakerIdentity","raised_answer","key_response","raised_response"
"5524.245000000519","micr.con.consent.html","consent","external-html","0","5571","0.0-0.0","5685850c333cbd000d4e042f","condA","","","","","","","","","","","","","","","","",""
"61368.66000000009","","instructions","instructions","1","66943","0.0-1.0","5685850c333cbd000d4e042f","condA","[{""page_index"":0,""viewing_time"":16935.480000000098},{""page_index"":1,""viewing_time"":14991.69499999698},{""page_index"":2,""viewing_time"":29440.945000002102}]","","","","","","","","","","","","","","","",""
"null","","fixation","html-keyboard-response","2","67445","0.0-2.0-0.0","5685850c333cbd000d4e042f","condA","","<div class=""vertical-center"" style=""font-size:60px;"">+</div>","null","","","","","","","","","","","","","",""
"5308.399999998073","","tonetest","audio-button-response","3","72755","0.0-2.0-1.0","5685850c333cbd000d4e042f","condA","","../../src/audio/toneTest_4.wav","","1","1","true","","","","","","","","","","",""
"null","","fixation","html-keyboard-response","4","73258","0.0-2.0-0.1","5685850c333cbd000d4e042f","condA","","<div class=""vertical-center"" style=""font-size:60px;"">+</div>","null","","","","","","","","","","","","","",""
"4328.92499999798","","tonetest","audio-button-response","5","77588","0.0-2.0-1.1","5685850c333cbd000d4e042f","condA","","../../src/audio/toneTest_2.wav","","1","1","true","","","","","","","","","","",""
"null","","fixation","html-keyboard-response","6","78089","0.0-2.0-0.2","5685850c333cbd000d4e042f","condA","","<div class=""vertical-center"" style=""font-size:60px;"">+</div>","null","","","","","","","","","","","","","",""
"4328.825000000506","","tonetest","audio-button-response","7","82418","0.0-2.0-1.2","5685850c333cbd000d4e042f","condA","","../../src/audio/toneTest_2.wav","","1","1","true","","","","","","","","","","",""
"null","","fixation","html-keyboard-response","8","82920","0.0-2.0-0.3","5685850c333cbd000d4e042f","condA","","<div class=""vertical-center"" style=""font-size:60px;"">+</div>","null","","","","","","","","","","","","","",""
"4249.684999998863","","tonetest","audio-button-response","9","87171","0.0-2.0-1.3","5685850c333cbd000d4e042f","condA","","../../src/audio/toneTest_5.wav","","0","0","true","","","","","","","","","","",""
"null","","fixation","html-keyboard-response","10","87673","0.0-2.0-0.4","5685850c333cbd000d4e042f","condA","","<div class=""vertical-center"" style=""font-size:60px;"">+</div>","null","","","","","","","","","","","","","",""
"4395.874999998341","","tonetest","audio-button-response","11","92070","0.0-2.0-1.4","5685850c333cbd000d4e042f","condA","","../../src/audio/toneTest_5.wav","","0","0","true","","","","","","","","","","",""
"null","","fixation","html-keyboard-response","12","92571","0.0-2.0-0.5","5685850c333cbd000d4e042f","condA","","<div class=""vertical-center"" style=""font-size:60px;"">+</div>","null","","","","","","","","","","","","","",""
"4554.974999999104","","tonetest","audio-button-response","13","97127","0.0-2.0-1.5","5685850c333cbd000d4e042f","condA","","../../src/audio/toneTest_2.wav","","1","1","true","","","","","","","","","","",""
"8507.034999995085","","instructions","html-keyboard-response","14","105635","0.0-3.0","5685850c333cbd000d4e042f","condA","","<div class=""vertical-center""><p><b>Your score was 6/6.</b></p><p>If you scored below 6, please ensure that you are wearing properly functioning headphones and in a quiet location free of distractions.</p><p><i>To continue to the main experiment, press SPACE.</i></p></div>","32","","","","","","","","","","","","","",""
"","","","fullscreen","15","109252","0.0-4.0","5685850c333cbd000d4e042f","condA","","","","","","","true","","","","","","","","","",""
"49030.23500000563","","instructions","instructions","16","158282","0.0-5.0","5685850c333cbd000d4e042f","condA","[{""page_index"":0,""viewing_time"":49030.0750000024}]","","","","","","","","","","","","","","","",""
"null","","fixation","html-keyboard-response","17","158785","0.0-6.0-0.0","5685850c333cbd000d4e042f","condA","","<div class=""vertical-center"" style='width:60%;'><p style='font-weight:bold;'>Does the middle word sound more like the first word (A) or the last word (B)?</p> <br> <div class=""container""> <div id=""a-box""> <p class=""title-text"">A</h3></p> </div> <div id=""x-box""> <p class=""title-text"">X<p> </div> <div id=""b-box""> <p class=""title-text"">B</p></div> <br> <div style='float: left;padding-left:30px;'><p>Press '1' for A</p></div><div style='float: right;padding-right:30px;'><p>Press '0' for B</p> </div> </div></div>","null","","","","","","","","","","","","","",""
"3440","","practice","audio-keyboard-response","18","162243","0.0-6.0-1.0","5685850c333cbd000d4e042f","condA","","resources/audio/practiceStim/S1_AI_21_axb_Step-6.wav","49","","","","","","","","","","","","","",""
"null","","fixation","html-keyboard-response","19","163246","0.0-6.0-0.1","5685850c333cbd000d4e042f","condA","","<div class=""vertical-center"" style='width:60%;'><p style='font-weight:bold;'>Does the middle word sound more like the first word (A) or the last word (B)?</p> <br> <div class=""container""> <div id=""a-box""> <p class=""title-text"">A</h3></p> </div> <div id=""x-box""> <p class=""title-text"">X<p> </div> <div id=""b-box""> <p class=""title-text"">B</p></div> <br> <div style='float: left;padding-left:30px;'><p>Press '1' for A</p></div><div style='float: right;padding-right:30px;'><p>Press '0' for B</p> </div> </div></div>","null","","","","","","","","","","","","","",""
"3131","","practice","audio-keyboard-response","20","166383","0.0-6.0-1.1","5685850c333cbd000d4e042f","condA","","resources/audio/practiceStim/S1_AU_14_bxa_Step-6.wav","48","","","","","","","","","","","","","",""
"null","","fixation","html-keyboard-response","21","167385","0.0-6.0-0.2","5685850c333cbd000d4e042f","condA","","<div class=""vertical-center"" style='width:60%;'><p style='font-weight:bold;'>Does the middle word sound more like the first word (A) or the last word (B)?</p> <br> <div class=""container""> <div id=""a-box""> <p class=""title-text"">A</h3></p> </div> <div id=""x-box""> <p class=""title-text"">X<p> </div> <div id=""b-box""> <p class=""title-text"">B</p></div> <br> <div style='float: left;padding-left:30px;'><p>Press '1' for A</p></div><div style='float: right;padding-right:30px;'><p>Press '0' for B</p> </div> </div></div>","null","","","","","","","","","","","","","",""
"3611","","practice","audio-keyboard-response","22","170999","0.0-6.0-1.2","5685850c333cbd000d4e042f","condA","","resources/audio/practiceStim/S1_AI_21_bxa_Step-6.wav","49","","","","","","","","","","","","","",""
"null","","fixation","html-keyboard-response","23","172001","0.0-6.0-0.3","5685850c333cbd000d4e042f","condA","","<div class=""vertical-center"" style='width:60%;'><p style='font-weight:bold;'>Does the middle word sound more like the first word (A) or the last word (B)?</p> <br> <div class=""container""> <div id=""a-box""> <p class=""title-text"">A</h3></p> </div> <div id=""x-box""> <p class=""title-text"">X<p> </div> <div id=""b-box""> <p class=""title-text"">B</p></div> <br> <div style='float: left;padding-left:30px;'><p>Press '1' for A</p></div><div style='float: right;padding-right:30px;'><p>Press '0' for B</p> </div> </div></div>","null","","","","","","","","","","","","","",""
"3280","","practice","audio-keyboard-response","24","175279","0.0-6.0-1.3","5685850c333cbd000d4e042f","condA","","resources/audio/practiceStim/S1_AU_14_axb_Step-6.wav","48","","","","","","","","","","","","","",""
"2602.6199999978417","","instructions","instructions","25","178384","0.0-7.0","5685850c333cbd000d4e042f","condA","[{""page_index"":0,""viewing_time"":2602.469999997993}]","","","","","","","","","","","","","","","",""
"null","","fixation","html-keyboard-response","26","178886","0.0-8.0-0.0","5685850c333cbd000d4e042f","condA","","<div class=""vertical-center"" style='width:60%;'><p style='font-weight:bold;'>Does the middle word sound more like the first word (A) or the last word (B)?</p> <br> <div class=""container""> <div id=""a-box""> <p class=""title-text"">A</h3></p> </div> <div id=""x-box""> <p class=""title-text"">X<p> </div> <div id=""b-box""> <p class=""title-text"">B</p></div> <br> <div style='float: left;padding-left:30px;'><p>Press '1' for A</p></div><div style='float: right;padding-right:30px;'><p>Press '0' for B</p> </div> </div></div>","null","","","","","","","","","","","","","",""
"3139","","test","audio-keyboard-response","27","182034","0.0-8.0-1.0","5685850c333cbd000d4e042f","condA","","resources/audio/wordStim/S3_AU_14_axb_Step-7.wav","49","","","","","AU","resources/audio/wordStim/S3_AU_14_axb_Step-7.wav","S3","14","axb","7","MI","0","1","false"
"null","","fixation","html-keyboard-response","28","183037","0.0-8.0-0.1","5685850c333cbd000d4e042f","condA","","<div class=""vertical-center"" style='width:60%;'><p style='font-weight:bold;'>Does the middle word sound more like the first word (A) or the last word (B)?</p> <br> <div class=""container""> <div id=""a-box""> <p class=""title-text"">A</h3></p> </div> <div id=""x-box""> <p class=""title-text"">X<p> </div> <div id=""b-box""> <p class=""title-text"">B</p></div> <br> <div style='float: left;padding-left:30px;'><p>Press '1' for A</p></div><div style='float: right;padding-right:30px;'><p>Press '0' for B</p> </div> </div></div>","null","","","","","","","","","","","","","",""
"4691","","test","audio-keyboard-response","29","187729","0.0-8.0-1.1","5685850c333cbd000d4e042f","condA","","resources/audio/wordStim/S3_AI_29_axb_Step-5.wav","48","","","","","AI","resources/audio/wordStim/S3_AI_29_axb_Step-5.wav","S3","29","axb","5","MI","0","0","true"
"null","","fixation","html-keyboard-response","30","188733","0.0-8.0-0.2","5685850c333cbd000d4e042f","condA","","<div class=""vertical-center"" style='width:60%;'><p style='font-weight:bold;'>Does the middle word sound more like the first word (A) or the last word (B)?</p> <br> <div class=""container""> <div id=""a-box""> <p class=""title-text"">A</h3></p> </div> <div id=""x-box""> <p class=""title-text"">X<p> </div> <div id=""b-box""> <p class=""title-text"">B</p></div> <br> <div style='float: left;padding-left:30px;'><p>Press '1' for A</p></div><div style='float: right;padding-right:30px;'><p>Press '0' for B</p> </div> </div></div>","null","","","","","","","","","","","","","",""
"3149","","test","audio-keyboard-response","31","191877","0.0-8.0-1.2","5685850c333cbd000d4e042f","condA","","resources/audio/wordStim/S3_AI_23_axb_Step-3.wav","49","","","","","AI","resources/audio/wordStim/S3_AI_23_axb_Step-3.wav","S3","23","axb","3","MI","0","1","false"
"null","","fixation","html-keyboard-response","32","192880","0.0-8.0-0.3","5685850c333cbd000d4e042f","condA","","<div class=""vertical-center"" style='width:60%;'><p style='font-weight:bold;'>Does the middle word sound more like the first word (A) or the last word (B)?</p> <br> <div class=""container""> <div id=""a-box""> <p class=""title-text"">A</h3></p> </div> <div id=""x-box""> <p class=""title-text"">X<p> </div> <div id=""b-box""> <p class=""title-text"">B</p></div> <br> <div style='float: left;padding-left:30px;'><p>Press '1' for A</p></div><div style='float: right;padding-right:30px;'><p>Press '0' for B</p> </div> </div></div>","null","","","","","","","","","","","","","",""
"4149","","test","audio-keyboard-response","33","197032","0.0-8.0-1.3","5685850c333cbd000d4e042f","condA","","resources/audio/wordStim/S9_AU_14_bxa_Step-2.wav","48","","","","","AU","resources/audio/wordStim/S9_AU_14_bxa_Step-2.wav","S9","14","bxa","2","CN","1","0","false"
"null","","fixation","html-keyboard-response","34","198035","0.0-8.0-0.4","5685850c333cbd000d4e042f","condA","","<div class=""vertical-center"" style='width:60%;'><p style='font-weight:bold;'>Does the middle word sound more like the first word (A) or the last word (B)?</p> <br> <div class=""container""> <div id=""a-box""> <p class=""title-text"">A</h3></p> </div> <div id=""x-box""> <p class=""title-text"">X<p> </div> <div id=""b-box""> <p class=""title-text"">B</p></div> <br> <div style='float: left;padding-left:30px;'><p>Press '1' for A</p></div><div style='float: right;padding-right:30px;'><p>Press '0' for B</p> </div> </div></div>","null","","","","","","","","","","","","","",""
"3069","","test","audio-keyboard-response","35","201109","0.0-8.0-1.4","5685850c333cbd000d4e042f","condA","","resources/audio/wordStim/S3_AU_19_axb_Step-10.wav","48","","","","","AU","resources/audio/wordStim/S3_AU_19_axb_Step-10.wav","S3","19","axb","10","MI","0","0","true"
"null","","fixation","html-keyboard-response","36","202111","0.0-8.0-0.5","5685850c333cbd000d4e042f","condA","","<div class=""vertical-center"" style='width:60%;'><p style='font-weight:bold;'>Does the middle word sound more like the first word (A) or the last word (B)?</p> <br> <div class=""container""> <div id=""a-box""> <p class=""title-text"">A</h3></p> </div> <div id=""x-box""> <p class=""title-text"">X<p> </div> <div id=""b-box""> <p class=""title-text"">B</p></div> <br> <div style='float: left;padding-left:30px;'><p>Press '1' for A</p></div><div style='float: right;padding-right:30px;'><p>Press '0' for B</p> </div> </div></div>","null","","","","","","","","","","","","","",""
"3061","","test","audio-keyboard-response","37","205167","0.0-8.0-1.5","5685850c333cbd000d4e042f","condA","","resources/audio/wordStim/S9_AU_16_bxa_Step-6.wav","49","","","","","AU","resources/audio/wordStim/S9_AU_16_bxa_Step-6.wav","S9","16","bxa","6","CN","1","1","true"
"null","","fixation","html-keyboard-response","38","206168","0.0-8.0-0.6","5685850c333cbd000d4e042f","condA","","<div class=""vertical-center"" style='width:60%;'><p style='font-weight:bold;'>Does the middle word sound more like the first word (A) or the last word (B)?</p> <br> <div class=""container""> <div id=""a-box""> <p class=""title-text"">A</h3></p> </div> <div id=""x-box""> <p class=""title-text"">X<p> </div> <div id=""b-box""> <p class=""title-text"">B</p></div> <br> <div style='float: left;padding-left:30px;'><p>Press '1' for A</p></div><div style='float: right;padding-right:30px;'><p>Press '0' for B</p> </div> </div></div>","null","","","","","","","","","","","","","",""
"4339","","test","audio-keyboard-response","39","210513","0.0-8.0-1.6","5685850c333cbd000d4e042f","condA","","resources/audio/wordStim/S3_AU_14_bxa_Step-2.wav","49","","","","","AU","resources/audio/wordStim/S3_AU_14_bxa_Step-2.wav","S3","14","bxa","2","MI","1","1","true"
"null","","fixation","html-keyboard-response","40","211515","0.0-8.0-0.7","5685850c333cbd000d4e042f","condA","","<div class=""vertical-center"" style='width:60%;'><p style='font-weight:bold;'>Does the middle word sound more like the first word (A) or the last word (B)?</p> <br> <div class=""container""> <div id=""a-box""> <p class=""title-text"">A</h3></p> </div> <div id=""x-box""> <p class=""title-text"">X<p> </div> <div id=""b-box""> <p class=""title-text"">B</p></div> <br> <div style='float: left;padding-left:30px;'><p>Press '1' for A</p></div><div style='float: right;padding-right:30px;'><p>Press '0' for B</p> </div> </div></div>","null","","","","","","","","","","","","","",""
"3901","","test","audio-keyboard-response","41","215423","0.0-8.0-1.7","5685850c333cbd000d4e042f","condA","","resources/audio/wordStim/S3_AU_19_bxa_Step-4.wav","48","","","","","AU","resources/audio/wordStim/S3_AU_19_bxa_Step-4.wav","S3","19","bxa","4","MI","1","0","false"
"null","","fixation","html-keyboard-response","42","216426","0.0-8.0-0.8","5685850c333cbd000d4e042f","condA","","<div class=""vertical-center"" style='width:60%;'><p style='font-weight:bold;'>Does the middle word sound more like the first word (A) or the last word (B)?</p> <br> <div class=""container""> <div id=""a-box""> <p class=""title-text"">A</h3></p> </div> <div id=""x-box""> <p class=""title-text"">X<p> </div> <div id=""b-box""> <p class=""title-text"">B</p></div> <br> <div style='float: left;padding-left:30px;'><p>Press '1' for A</p></div><div style='float: right;padding-right:30px;'><p>Press '0' for B</p> </div> </div></div>","null","","","","","","","","","","","","","",""
"4640","","test","audio-keyboard-response","43","221069","0.0-8.0-1.8","5685850c333cbd000d4e042f","condA","","resources/audio/wordStim/S3_AI_30_axb_Step-5.wav","49","","","","","AI","resources/audio/wordStim/S3_AI_30_axb_Step-5.wav","S3","30","axb","5","MI","0","1","false"
"null","","fixation","html-keyboard-response","44","222072","0.0-8.0-0.9","5685850c333cbd000d4e042f","condA","","<div class=""vertical-center"" style='width:60%;'><p style='font-weight:bold;'>Does the middle word sound more like the first word (A) or the last word (B)?</p> <br> <div class=""container""> <div id=""a-box""> <p class=""title-text"">A</h3></p> </div> <div id=""x-box""> <p class=""title-text"">X<p> </div> <div id=""b-box""> <p class=""title-text"">B</p></div> <br> <div style='float: left;padding-left:30px;'><p>Press '1' for A</p></div><div style='float: right;padding-right:30px;'><p>Press '0' for B</p> </div> </div></div>","null","","","","","","","","","","","","","",""
"2760","","test","audio-keyboard-response","45","224825","0.0-8.0-1.9","5685850c333cbd000d4e042f","condA","","resources/audio/wordStim/S3_AI_21_axb_Step-3.wav","49","","","","","AI","resources/audio/wordStim/S3_AI_21_axb_Step-3.wav","S3","21","axb","3","MI","0","1","false"
"null","","fixation","html-keyboard-response","46","225828","0.0-8.0-0.10","5685850c333cbd000d4e042f","condA","","<div class=""vertical-center"" style='width:60%;'><p style='font-weight:bold;'>Does the middle word sound more like the first word (A) or the last word (B)?</p> <br> <div class=""container""> <div id=""a-box""> <p class=""title-text"">A</h3></p> </div> <div id=""x-box""> <p class=""title-text"">X<p> </div> <div id=""b-box""> <p class=""title-text"">B</p></div> <br> <div style='float: left;padding-left:30px;'><p>Press '1' for A</p></div><div style='float: right;padding-right:30px;'><p>Press '0' for B</p> </div> </div></div>","null","","","","","","","","","","","","","",""
"4712","","test","audio-keyboard-response","47","230537","0.0-8.0-1.10","5685850c333cbd000d4e042f","condA","","resources/audio/wordStim/S3_AI_22_axb_Step-10.wav","48","","","","","AI","resources/audio/wordStim/S3_AI_22_axb_Step-10.wav","S3","22","axb","10","MI","0","0","true"
"null","","fixation","html-keyboard-response","48","231541","0.0-8.0-0.11","5685850c333cbd000d4e042f","condA","","<div class=""vertical-center"" style='width:60%;'><p style='font-weight:bold;'>Does the middle word sound more like the first word (A) or the last word (B)?</p> <br> <div class=""container""> <div id=""a-box""> <p class=""title-text"">A</h3></p> </div> <div id=""x-box""> <p class=""title-text"">X<p> </div> <div id=""b-box""> <p class=""title-text"">B</p></div> <br> <div style='float: left;padding-left:30px;'><p>Press '1' for A</p></div><div style='float: right;padding-right:30px;'><p>Press '0' for B</p> </div> </div></div>","null","","","","","","","","","","","","","",""
"4779","","test","audio-keyboard-response","49","236322","0.0-8.0-1.11","5685850c333cbd000d4e042f","condA","","resources/audio/wordStim/S9_AU_11_bxa_Step-2.wav","49","","","","","AU","resources/audio/wordStim/S9_AU_11_bxa_Step-2.wav","S9","11","bxa","2","CN","1","1","true"
"null","","fixation","html-keyboard-response","50","237325","0.0-8.0-0.12","5685850c333cbd000d4e042f","condA","","<div class=""vertical-center"" style='width:60%;'><p style='font-weight:bold;'>Does the middle word sound more like the first word (A) or the last word (B)?</p> <br> <div class=""container""> <div id=""a-box""> <p class=""title-text"">A</h3></p> </div> <div id=""x-box""> <p class=""title-text"">X<p> </div> <div id=""b-box""> <p class=""title-text"">B</p></div> <br> <div style='float: left;padding-left:30px;'><p>Press '1' for A</p></div><div style='float: right;padding-right:30px;'><p>Press '0' for B</p> </div> </div></div>","null","","","","","","","","","","","","","",""
"2869","","test","audio-keyboard-response","51","240202","0.0-8.0-1.12","5685850c333cbd000d4e042f","condA","","resources/audio/wordStim/S3_AI_21_axb_Step-9.wav","48","","","","","AI","resources/audio/wordStim/S3_AI_21_axb_Step-9.wav","S3","21","axb","9","MI","0","0","true"
"null","","fixation","html-keyboard-response","52","241206","0.0-8.0-0.13","5685850c333cbd000d4e042f","condA","","<div class=""vertical-center"" style='width:60%;'><p style='font-weight:bold;'>Does the middle word sound more like the first word (A) or the last word (B)?</p> <br> <div class=""container""> <div id=""a-box""> <p class=""title-text"">A</h3></p> </div> <div id=""x-box""> <p class=""title-text"">X<p> </div> <div id=""b-box""> <p class=""title-text"">B</p></div> <br> <div style='float: left;padding-left:30px;'><p>Press '1' for A</p></div><div style='float: right;padding-right:30px;'><p>Press '0' for B</p> </div> </div></div>","null","","","","","","","","","","","","","",""
"3051","","test","audio-keyboard-response","53","244261","0.0-8.0-1.13","5685850c333cbd000d4e042f","condA","","resources/audio/wordStim/S3_AI_21_axb_Step-7.wav","49","","","","","AI","resources/audio/wordStim/S3_AI_21_axb_Step-7.wav","S3","21","axb","7","MI","0","1","false"
"null","","fixation","html-keyboard-response","54","245264","0.0-8.0-0.14","5685850c333cbd000d4e042f","condA","","<div class=""vertical-center"" style='width:60%;'><p style='font-weight:bold;'>Does the middle word sound more like the first word (A) or the last word (B)?</p> <br> <div class=""container""> <div id=""a-box""> <p class=""title-text"">A</h3></p> </div> <div id=""x-box""> <p class=""title-text"">X<p> </div> <div id=""b-box""> <p class=""title-text"">B</p></div> <br> <div style='float: left;padding-left:30px;'><p>Press '1' for A</p></div><div style='float: right;padding-right:30px;'><p>Press '0' for B</p> </div> </div></div>","null","","","","","","","","","","","","","",""
"3280","","test","audio-keyboard-response","55","248540","0.0-8.0-1.14","5685850c333cbd000d4e042f","condA","","resources/audio/wordStim/S3_AI_25_axb_Step-5.wav","49","","","","","AI","resources/audio/wordStim/S3_AI_25_axb_Step-5.wav","S3","25","axb","5","MI","0","1","false"
"null","","fixation","html-keyboard-response","56","249542","0.0-8.0-0.15","5685850c333cbd000d4e042f","condA","","<div class=""vertical-center"" style='width:60%;'><p style='font-weight:bold;'>Does the middle word sound more like the first word (A) or the last word (B)?</p> <br> <div class=""container""> <div id=""a-box""> <p class=""title-text"">A</h3></p> </div> <div id=""x-box""> <p class=""title-text"">X<p> </div> <div id=""b-box""> <p class=""title-text"">B</p></div> <br> <div style='float: left;padding-left:30px;'><p>Press '1' for A</p></div><div style='float: right;padding-right:30px;'><p>Press '0' for B</p> </div> </div></div>","null","","","","","","","","","","","","","",""
"3120","","test","audio-keyboard-response","57","252662","0.0-8.0-1.15","5685850c333cbd000d4e042f","condA","","resources/audio/wordStim/S9_AU_17_axb_Step-3.wav","49","","","","","AU","resources/audio/wordStim/S9_AU_17_axb_Step-3.wav","S9","17","axb","3","CN","0","1","false"
"null","","fixation","html-keyboard-response","58","253664","0.0-8.0-0.16","5685850c333cbd000d4e042f","condA","","<div class=""vertical-center"" style='width:60%;'><p style='font-weight:bold;'>Does the middle word sound more like the first word (A) or the last word (B)?</p> <br> <div class=""container""> <div id=""a-box""> <p class=""title-text"">A</h3></p> </div> <div id=""x-box""> <p class=""title-text"">X<p> </div> <div id=""b-box""> <p class=""title-text"">B</p></div> <br> <div style='float: left;padding-left:30px;'><p>Press '1' for A</p></div><div style='float: right;padding-right:30px;'><p>Press '0' for B</p> </div> </div></div>","null","","","","","","","","","","","","","",""
"4571","","test","audio-keyboard-response","59","258239","0.0-8.0-1.16","5685850c333cbd000d4e042f","condA","","resources/audio/wordStim/S3_AI_29_bxa_Step-6.wav","48","","","","","AI","resources/audio/wordStim/S3_AI_29_bxa_Step-6.wav","S3","29","bxa","6","MI","1","0","false"
"null","","fixation","html-keyboard-response","60","259244","0.0-8.0-0.17","5685850c333cbd000d4e042f","condA","","<div class=""vertical-center"" style='width:60%;'><p style='font-weight:bold;'>Does the middle word sound more like the first word (A) or the last word (B)?</p> <br> <div class=""container""> <div id=""a-box""> <p class=""title-text"">A</h3></p> </div> <div id=""x-box""> <p class=""title-text"">X<p> </div> <div id=""b-box""> <p class=""title-text"">B</p></div> <br> <div style='float: left;padding-left:30px;'><p>Press '1' for A</p></div><div style='float: right;padding-right:30px;'><p>Press '0' for B</p> </div> </div></div>","null","","","","","","","","","","","","","",""
"3160","","test","audio-keyboard-response","61","262404","0.0-8.0-1.17","5685850c333cbd000d4e042f","condA","","resources/audio/wordStim/S3_AU_14_axb_Step-5.wav","49","","","","","AU","resources/audio/wordStim/S3_AU_14_axb_Step-5.wav","S3","14","axb","5","MI","0","1","false"
"null","","fixation","html-keyboard-response","62","263407","0.0-8.0-0.18","5685850c333cbd000d4e042f","condA","","<div class=""vertical-center"" style='width:60%;'><p style='font-weight:bold;'>Does the middle word sound more like the first word (A) or the last word (B)?</p> <br> <div class=""container""> <div id=""a-box""> <p class=""title-text"">A</h3></p> </div> <div id=""x-box""> <p class=""title-text"">X<p> </div> <div id=""b-box""> <p class=""title-text"">B</p></div> <br> <div style='float: left;padding-left:30px;'><p>Press '1' for A</p></div><div style='float: right;padding-right:30px;'><p>Press '0' for B</p> </div> </div></div>","null","","","","","","","","","","","","","",""
"2931","","test","audio-keyboard-response","63","266340","0.0-8.0-1.18","5685850c333cbd000d4e042f","condA","","resources/audio/wordStim/S3_AU_15_axb_Step-7.wav","49","","","","","AU","resources/audio/wordStim/S3_AU_15_axb_Step-7.wav","S3","15","axb","7","MI","0","1","false"
"null","","fixation","html-keyboard-response","64","267343","0.0-8.0-0.19","5685850c333cbd000d4e042f","condA","","<div class=""vertical-center"" style='width:60%;'><p style='font-weight:bold;'>Does the middle word sound more like the first word (A) or the last word (B)?</p> <br> <div class=""container""> <div id=""a-box""> <p class=""title-text"">A</h3></p> </div> <div id=""x-box""> <p class=""title-text"">X<p> </div> <div id=""b-box""> <p class=""title-text"">B</p></div> <br> <div style='float: left;padding-left:30px;'><p>Press '1' for A</p></div><div style='float: right;padding-right:30px;'><p>Press '0' for B</p> </div> </div></div>","null","","","","","","","","","","","","","",""
"3739","","test","audio-keyboard-response","65","271076","0.0-8.0-1.19","5685850c333cbd000d4e042f","condA","","resources/audio/wordStim/S9_AI_23_bxa_Step-8.wav","49","","","","","AI","resources/audio/wordStim/S9_AI_23_bxa_Step-8.wav","S9","23","bxa","8","CN","1","1","true"
"null","","fixation","html-keyboard-response","66","272079","0.0-8.0-0.20","5685850c333cbd000d4e042f","condA","","<div class=""vertical-center"" style='width:60%;'><p style='font-weight:bold;'>Does the middle word sound more like the first word (A) or the last word (B)?</p> <br> <div class=""container""> <div id=""a-box""> <p class=""title-text"">A</h3></p> </div> <div id=""x-box""> <p class=""title-text"">X<p> </div> <div id=""b-box""> <p class=""title-text"">B</p></div> <br> <div style='float: left;padding-left:30px;'><p>Press '1' for A</p></div><div style='float: right;padding-right:30px;'><p>Press '0' for B</p> </div> </div></div>","null","","","","","","","","","","","","","",""
"3749","","test","audio-keyboard-response","67","275830","0.0-8.0-1.20","5685850c333cbd000d4e042f","condA","","resources/audio/wordStim/S3_AI_30_bxa_Step-6.wav","49","","","","","AI","resources/audio/wordStim/S3_AI_30_bxa_Step-6.wav","S3","30","bxa","6","MI","1","1","true"
"null","","fixation","html-keyboard-response","68","276833","0.0-8.0-0.21","5685850c333cbd000d4e042f","condA","","<div class=""vertical-center"" style='width:60%;'><p style='font-weight:bold;'>Does the middle word sound more like the first word (A) or the last word (B)?</p> <br> <div class=""container""> <div id=""a-box""> <p class=""title-text"">A</h3></p> </div> <div id=""x-box""> <p class=""title-text"">X<p> </div> <div id=""b-box""> <p class=""title-text"">B</p></div> <br> <div style='float: left;padding-left:30px;'><p>Press '1' for A</p></div><div style='float: right;padding-right:30px;'><p>Press '0' for B</p> </div> </div></div>","null","","","","","","","","","","","","","",""
"4261","","test","audio-keyboard-response","69","281093","0.0-8.0-1.21","5685850c333cbd000d4e042f","condA","","resources/audio/wordStim/S3_AI_29_bxa_Step-8.wav","48","","","","","AI","resources/audio/wordStim/S3_AI_29_bxa_Step-8.wav","S3","29","bxa","8","MI","1","0","false"
"null","","fixation","html-keyboard-response","70","282096","0.0-8.0-0.22","5685850c333cbd000d4e042f","condA","","<div class=""vertical-center"" style='width:60%;'><p style='font-weight:bold;'>Does the middle word sound more like the first word (A) or the last word (B)?</p> <br> <div class=""container""> <div id=""a-box""> <p class=""title-text"">A</h3></p> </div> <div id=""x-box""> <p class=""title-text"">X<p> </div> <div id=""b-box""> <p class=""title-text"">B</p></div> <br> <div style='float: left;padding-left:30px;'><p>Press '1' for A</p></div><div style='float: right;padding-right:30px;'><p>Press '0' for B</p> </div> </div></div>","null","","","","","","","","","","","","","",""
"3440","","test","audio-keyboard-response","71","285544","0.0-8.0-1.22","5685850c333cbd000d4e042f","condA","","resources/audio/wordStim/S9_AI_24_bxa_Step-2.wav","49","","","","","AI","resources/audio/wordStim/S9_AI_24_bxa_Step-2.wav","S9","24","bxa","2","CN","1","1","true"
"null","","fixation","html-keyboard-response","72","286547","0.0-8.0-0.23","5685850c333cbd000d4e042f","condA","","<div class=""vertical-center"" style='width:60%;'><p style='font-weight:bold;'>Does the middle word sound more like the first word (A) or the last word (B)?</p> <br> <div class=""container""> <div id=""a-box""> <p class=""title-text"">A</h3></p> </div> <div id=""x-box""> <p class=""title-text"">X<p> </div> <div id=""b-box""> <p class=""title-text"">B</p></div> <br> <div style='float: left;padding-left:30px;'><p>Press '1' for A</p></div><div style='float: right;padding-right:30px;'><p>Press '0' for B</p> </div> </div></div>","null","","","","","","","","","","","","","",""
"4011","","test","audio-keyboard-response","73","290561","0.0-8.0-1.23","5685850c333cbd000d4e042f","condA","","resources/audio/wordStim/S9_AI_29_bxa_Step-6.wav","49","","","","","AI","resources/audio/wordStim/S9_AI_29_bxa_Step-6.wav","S9","29","bxa","6","CN","1","1","true"
"null","","fixation","html-keyboard-response","74","291564","0.0-8.0-0.24","5685850c333cbd000d4e042f","condA","","<div class=""vertical-center"" style='width:60%;'><p style='font-weight:bold;'>Does the middle word sound more like the first word (A) or the last word (B)?</p> <br> <div class=""container""> <div id=""a-box""> <p class=""title-text"">A</h3></p> </div> <div id=""x-box""> <p class=""title-text"">X<p> </div> <div id=""b-box""> <p class=""title-text"">B</p></div> <br> <div style='float: left;padding-left:30px;'><p>Press '1' for A</p></div><div style='float: right;padding-right:30px;'><p>Press '0' for B</p> </div> </div></div>","null","","","","","","","","","","","","","",""
"6451","","test","audio-keyboard-response","75","298013","0.0-8.0-1.24","5685850c333cbd000d4e042f","condA","","resources/audio/wordStim/S3_AU_17_axb_Step-7.wav","49","","","","","AU","resources/audio/wordStim/S3_AU_17_axb_Step-7.wav","S3","17","axb","7","MI","0","1","false"
"null","","fixation","html-keyboard-response","76","299015","0.0-8.0-0.25","5685850c333cbd000d4e042f","condA","","<div class=""vertical-center"" style='width:60%;'><p style='font-weight:bold;'>Does the middle word sound more like the first word (A) or the last word (B)?</p> <br> <div class=""container""> <div id=""a-box""> <p class=""title-text"">A</h3></p> </div> <div id=""x-box""> <p class=""title-text"">X<p> </div> <div id=""b-box""> <p class=""title-text"">B</p></div> <br> <div style='float: left;padding-left:30px;'><p>Press '1' for A</p></div><div style='float: right;padding-right:30px;'><p>Press '0' for B</p> </div> </div></div>","null","","","","","","","","","","","","","",""
"5629","","test","audio-keyboard-response","77","304652","0.0-8.0-1.25","5685850c333cbd000d4e042f","condA","","resources/audio/wordStim/S9_AI_23_bxa_Step-2.wav","49","","","","","AI","resources/audio/wordStim/S9_AI_23_bxa_Step-2.wav","S9","23","bxa","2","CN","1","1","true"
"null","","fixation","html-keyboard-response","78","305654","0.0-8.0-0.26","5685850c333cbd000d4e042f","condA","","<div class=""vertical-center"" style='width:60%;'><p style='font-weight:bold;'>Does the middle word sound more like the first word (A) or the last word (B)?</p> <br> <div class=""container""> <div id=""a-box""> <p class=""title-text"">A</h3></p> </div> <div id=""x-box""> <p class=""title-text"">X<p> </div> <div id=""b-box""> <p class=""title-text"">B</p></div> <br> <div style='float: left;padding-left:30px;'><p>Press '1' for A</p></div><div style='float: right;padding-right:30px;'><p>Press '0' for B</p> </div> </div></div>","null","","","","","","","","","","","","","",""
"3669","","test","audio-keyboard-response","79","309321","0.0-8.0-1.26","5685850c333cbd000d4e042f","condA","","resources/audio/wordStim/S3_AI_30_axb_Step-9.wav","48","","","","","AI","resources/audio/wordStim/S3_AI_30_axb_Step-9.wav","S3","30","axb","9","MI","0","0","true"
"124390.43500000122","","break","html-keyboard-response","80","434213","0.0-8.0-2.26-0.26","5685850c333cbd000d4e042f","condA","","<div class=""vertical-center""><p>Feel free to take a break!</p><i>When you're ready to continue, press SPACE to begin the next trial.</i></p></div>","32","","","","","","","","","","","","","",""
"null","","fixation","html-keyboard-response","81","434714","0.0-8.0-0.27","5685850c333cbd000d4e042f","condA","","<div class=""vertical-center"" style='width:60%;'><p style='font-weight:bold;'>Does the middle word sound more like the first word (A) or the last word (B)?</p> <br> <div class=""container""> <div id=""a-box""> <p class=""title-text"">A</h3></p> </div> <div id=""x-box""> <p class=""title-text"">X<p> </div> <div id=""b-box""> <p class=""title-text"">B</p></div> <br> <div style='float: left;padding-left:30px;'><p>Press '1' for A</p></div><div style='float: right;padding-right:30px;'><p>Press '0' for B</p> </div> </div></div>","null","","","","","","","","","","","","","",""
"2309","","test","audio-keyboard-response","82","437031","0.0-8.0-1.27","5685850c333cbd000d4e042f","condA","","resources/audio/wordStim/S3_AI_21_axb_Step-10.wav","48","","","","","AI","resources/audio/wordStim/S3_AI_21_axb_Step-10.wav","S3","21","axb","10","MI","0","0","true"
"null","","fixation","html-keyboard-response","83","438033","0.0-8.0-0.28","5685850c333cbd000d4e042f","condA","","<div class=""vertical-center"" style='width:60%;'><p style='font-weight:bold;'>Does the middle word sound more like the first word (A) or the last word (B)?</p> <br> <div class=""container""> <div id=""a-box""> <p class=""title-text"">A</h3></p> </div> <div id=""x-box""> <p class=""title-text"">X<p> </div> <div id=""b-box""> <p class=""title-text"">B</p></div> <br> <div style='float: left;padding-left:30px;'><p>Press '1' for A</p></div><div style='float: right;padding-right:30px;'><p>Press '0' for B</p> </div> </div></div>","null","","","","","","","","","","","","","",""
"3632","","test","audio-keyboard-response","84","441659","0.0-8.0-1.28","5685850c333cbd000d4e042f","condA","","resources/audio/wordStim/S9_AI_25_axb_Step-7.wav","48","","","","","AI","resources/audio/wordStim/S9_AI_25_axb_Step-7.wav","S9","25","axb","7","CN","0","0","true"
"null","","fixation","html-keyboard-response","85","442662","0.0-8.0-0.29","5685850c333cbd000d4e042f","condA","","<div class=""vertical-center"" style='width:60%;'><p style='font-weight:bold;'>Does the middle word sound more like the first word (A) or the last word (B)?</p> <br> <div class=""container""> <div id=""a-box""> <p class=""title-text"">A</h3></p> </div> <div id=""x-box""> <p class=""title-text"">X<p> </div> <div id=""b-box""> <p class=""title-text"">B</p></div> <br> <div style='float: left;padding-left:30px;'><p>Press '1' for A</p></div><div style='float: right;padding-right:30px;'><p>Press '0' for B</p> </div> </div></div>","null","","","","","","","","","","","","","",""
"4179","","test","audio-keyboard-response","86","446845","0.0-8.0-1.29","5685850c333cbd000d4e042f","condA","","resources/audio/wordStim/S3_AI_29_axb_Step-10.wav","48","","","","","AI","resources/audio/wordStim/S3_AI_29_axb_Step-10.wav","S3","29","axb","10","MI","0","0","true"
"null","","fixation","html-keyboard-response","87","447847","0.0-8.0-0.30","5685850c333cbd000d4e042f","condA","","<div class=""vertical-center"" style='width:60%;'><p style='font-weight:bold;'>Does the middle word sound more like the first word (A) or the last word (B)?</p> <br> <div class=""container""> <div id=""a-box""> <p class=""title-text"">A</h3></p> </div> <div id=""x-box""> <p class=""title-text"">X<p> </div> <div id=""b-box""> <p class=""title-text"">B</p></div> <br> <div style='float: left;padding-left:30px;'><p>Press '1' for A</p></div><div style='float: right;padding-right:30px;'><p>Press '0' for B</p> </div> </div></div>","null","","","","","","","","","","","","","",""
"3549","","test","audio-keyboard-response","88","451396","0.0-8.0-1.30","5685850c333cbd000d4e042f","condA","","resources/audio/wordStim/S9_AU_19_axb_Step-9.wav","48","","","","","AU","resources/audio/wordStim/S9_AU_19_axb_Step-9.wav","S9","19","axb","9","CN","0","0","true"
"null","","fixation","html-keyboard-response","89","452398","0.0-8.0-0.31","5685850c333cbd000d4e042f","condA","","<div class=""vertical-center"" style='width:60%;'><p style='font-weight:bold;'>Does the middle word sound more like the first word (A) or the last word (B)?</p> <br> <div class=""container""> <div id=""a-box""> <p class=""title-text"">A</h3></p> </div> <div id=""x-box""> <p class=""title-text"">X<p> </div> <div id=""b-box""> <p class=""title-text"">B</p></div> <br> <div style='float: left;padding-left:30px;'><p>Press '1' for A</p></div><div style='float: right;padding-right:30px;'><p>Press '0' for B</p> </div> </div></div>","null","","","","","","","","","","","","","",""
"3821","","test","audio-keyboard-response","90","456218","0.0-8.0-1.31","5685850c333cbd000d4e042f","condA","","resources/audio/wordStim/S3_AI_30_bxa_Step-2.wav","49","","","","","AI","resources/audio/wordStim/S3_AI_30_bxa_Step-2.wav","S3","30","bxa","2","MI","1","1","true"
"null","","fixation","html-keyboard-response","91","457221","0.0-8.0-0.32","5685850c333cbd000d4e042f","condA","","<div class=""vertical-center"" style='width:60%;'><p style='font-weight:bold;'>Does the middle word sound more like the first word (A) or the last word (B)?</p> <br> <div class=""container""> <div id=""a-box""> <p class=""title-text"">A</h3></p> </div> <div id=""x-box""> <p class=""title-text"">X<p> </div> <div id=""b-box""> <p class=""title-text"">B</p></div> <br> <div style='float: left;padding-left:30px;'><p>Press '1' for A</p></div><div style='float: right;padding-right:30px;'><p>Press '0' for B</p> </div> </div></div>","null","","","","","","","","","","","","","",""
"3099","","test","audio-keyboard-response","92","460325","0.0-8.0-1.32","5685850c333cbd000d4e042f","condA","","resources/audio/wordStim/S3_AU_15_axb_Step-3.wav","49","","","","","AU","resources/audio/wordStim/S3_AU_15_axb_Step-3.wav","S3","15","axb","3","MI","0","1","false"
"null","","fixation","html-keyboard-response","93","461328","0.0-8.0-0.33","5685850c333cbd000d4e042f","condA","","<div class=""vertical-center"" style='width:60%;'><p style='font-weight:bold;'>Does the middle word sound more like the first word (A) or the last word (B)?</p> <br> <div class=""container""> <div id=""a-box""> <p class=""title-text"">A</h3></p> </div> <div id=""x-box""> <p class=""title-text"">X<p> </div> <div id=""b-box""> <p class=""title-text"">B</p></div> <br> <div style='float: left;padding-left:30px;'><p>Press '1' for A</p></div><div style='float: right;padding-right:30px;'><p>Press '0' for B</p> </div> </div></div>","null","","","","","","","","","","","","","",""
"3920","","test","audio-keyboard-response","94","465249","0.0-8.0-1.33","5685850c333cbd000d4e042f","condA","","resources/audio/wordStim/S9_AU_19_axb_Step-5.wav","49","","","","","AU","resources/audio/wordStim/S9_AU_19_axb_Step-5.wav","S9","19","axb","5","CN","0","1","false"
"null","","fixation","html-keyboard-response","95","466252","0.0-8.0-0.34","5685850c333cbd000d4e042f","condA","","<div class=""vertical-center"" style='width:60%;'><p style='font-weight:bold;'>Does the middle word sound more like the first word (A) or the last word (B)?</p> <br> <div class=""container""> <div id=""a-box""> <p class=""title-text"">A</h3></p> </div> <div id=""x-box""> <p class=""title-text"">X<p> </div> <div id=""b-box""> <p class=""title-text"">B</p></div> <br> <div style='float: left;padding-left:30px;'><p>Press '1' for A</p></div><div style='float: right;padding-right:30px;'><p>Press '0' for B</p> </div> </div></div>","null","","","","","","","","","","","","","",""
"5011","","test","audio-keyboard-response","96","471265","0.0-8.0-1.34","5685850c333cbd000d4e042f","condA","","resources/audio/wordStim/S3_AU_17_bxa_Step-4.wav","48","","","","","AU","resources/audio/wordStim/S3_AU_17_bxa_Step-4.wav","S3","17","bxa","4","MI","1","0","false"
"null","","fixation","html-keyboard-response","97","472268","0.0-8.0-0.35","5685850c333cbd000d4e042f","condA","","<div class=""vertical-center"" style='width:60%;'><p style='font-weight:bold;'>Does the middle word sound more like the first word (A) or the last word (B)?</p> <br> <div class=""container""> <div id=""a-box""> <p class=""title-text"">A</h3></p> </div> <div id=""x-box""> <p class=""title-text"">X<p> </div> <div id=""b-box""> <p class=""title-text"">B</p></div> <br> <div style='float: left;padding-left:30px;'><p>Press '1' for A</p></div><div style='float: right;padding-right:30px;'><p>Press '0' for B</p> </div> </div></div>","null","","","","","","","","","","","","","",""
"4072","","test","audio-keyboard-response","98","476345","0.0-8.0-1.35","5685850c333cbd000d4e042f","condA","","resources/audio/wordStim/S3_AU_17_bxa_Step-2.wav","48","","","","","AU","resources/audio/wordStim/S3_AU_17_bxa_Step-2.wav","S3","17","bxa","2","MI","1","0","false"
"null","","fixation","html-keyboard-response","99","477346","0.0-8.0-0.36","5685850c333cbd000d4e042f","condA","","<div class=""vertical-center"" style='width:60%;'><p style='font-weight:bold;'>Does the middle word sound more like the first word (A) or the last word (B)?</p> <br> <div class=""container""> <div id=""a-box""> <p class=""title-text"">A</h3></p> </div> <div id=""x-box""> <p class=""title-text"">X<p> </div> <div id=""b-box""> <p class=""title-text"">B</p></div> <br> <div style='float: left;padding-left:30px;'><p>Press '1' for A</p></div><div style='float: right;padding-right:30px;'><p>Press '0' for B</p> </div> </div></div>","null","","","","","","","","","","","","","",""
"3128","","test","audio-keyboard-response","100","480472","0.0-8.0-1.36","5685850c333cbd000d4e042f","condA","","resources/audio/wordStim/S3_AU_19_axb_Step-9.wav","48","","","","","AU","resources/audio/wordStim/S3_AU_19_axb_Step-9.wav","S3","19","axb","9","MI","0","0","true"
"null","","fixation","html-keyboard-response","101","481475","0.0-8.0-0.37","5685850c333cbd000d4e042f","condA","","<div class=""vertical-center"" style='width:60%;'><p style='font-weight:bold;'>Does the middle word sound more like the first word (A) or the last word (B)?</p> <br> <div class=""container""> <div id=""a-box""> <p class=""title-text"">A</h3></p> </div> <div id=""x-box""> <p class=""title-text"">X<p> </div> <div id=""b-box""> <p class=""title-text"">B</p></div> <br> <div style='float: left;padding-left:30px;'><p>Press '1' for A</p></div><div style='float: right;padding-right:30px;'><p>Press '0' for B</p> </div> </div></div>","null","","","","","","","","","","","","","",""
"4781","","test","audio-keyboard-response","102","486257","0.0-8.0-1.37","5685850c333cbd000d4e042f","condA","","resources/audio/wordStim/S9_AI_23_bxa_Step-6.wav","49","","","","","AI","resources/audio/wordStim/S9_AI_23_bxa_Step-6.wav","S9","23","bxa","6","CN","1","1","true"
"null","","fixation","html-keyboard-response","103","487260","0.0-8.0-0.38","5685850c333cbd000d4e042f","condA","","<div class=""vertical-center"" style='width:60%;'><p style='font-weight:bold;'>Does the middle word sound more like the first word (A) or the last word (B)?</p> <br> <div class=""container""> <div id=""a-box""> <p class=""title-text"">A</h3></p> </div> <div id=""x-box""> <p class=""title-text"">X<p> </div> <div id=""b-box""> <p class=""title-text"">B</p></div> <br> <div style='float: left;padding-left:30px;'><p>Press '1' for A</p></div><div style='float: right;padding-right:30px;'><p>Press '0' for B</p> </div> </div></div>","null","","","","","","","","","","","","","",""
"3880","","test","audio-keyboard-response","104","491145","0.0-8.0-1.38","5685850c333cbd000d4e042f","condA","","resources/audio/wordStim/S9_AU_11_bxa_Step-4.wav","48","","","","","AU","resources/audio/wordStim/S9_AU_11_bxa_Step-4.wav","S9","11","bxa","4","CN","1","0","false"
"null","","fixation","html-keyboard-response","105","492148","0.0-8.0-0.39","5685850c333cbd000d4e042f","condA","","<div class=""vertical-center"" style='width:60%;'><p style='font-weight:bold;'>Does the middle word sound more like the first word (A) or the last word (B)?</p> <br> <div class=""container""> <div id=""a-box""> <p class=""title-text"">A</h3></p> </div> <div id=""x-box""> <p class=""title-text"">X<p> </div> <div id=""b-box""> <p class=""title-text"">B</p></div> <br> <div style='float: left;padding-left:30px;'><p>Press '1' for A</p></div><div style='float: right;padding-right:30px;'><p>Press '0' for B</p> </div> </div></div>","null","","","","","","","","","","","","","",""
"3440","","test","audio-keyboard-response","106","495589","0.0-8.0-1.39","5685850c333cbd000d4e042f","condA","","resources/audio/wordStim/S9_AU_13_bxa_Step-2.wav","48","","","","","AU","resources/audio/wordStim/S9_AU_13_bxa_Step-2.wav","S9","13","bxa","2","CN","1","0","false"
"null","","fixation","html-keyboard-response","107","496590","0.0-8.0-0.40","5685850c333cbd000d4e042f","condA","","<div class=""vertical-center"" style='width:60%;'><p style='font-weight:bold;'>Does the middle word sound more like the first word (A) or the last word (B)?</p> <br> <div class=""container""> <div id=""a-box""> <p class=""title-text"">A</h3></p> </div> <div id=""x-box""> <p class=""title-text"">X<p> </div> <div id=""b-box""> <p class=""title-text"">B</p></div> <br> <div style='float: left;padding-left:30px;'><p>Press '1' for A</p></div><div style='float: right;padding-right:30px;'><p>Press '0' for B</p> </div> </div></div>","null","","","","","","","","","","","","","",""
"3571","","test","audio-keyboard-response","108","500161","0.0-8.0-1.40","5685850c333cbd000d4e042f","condA","","resources/audio/wordStim/S9_AU_18_axb_Step-9.wav","48","","","","","AU","resources/audio/wordStim/S9_AU_18_axb_Step-9.wav","S9","18","axb","9","CN","0","0","true"
"null","","fixation","html-keyboard-response","109","501164","0.0-8.0-0.41","5685850c333cbd000d4e042f","condA","","<div class=""vertical-center"" style='width:60%;'><p style='font-weight:bold;'>Does the middle word sound more like the first word (A) or the last word (B)?</p> <br> <div class=""container""> <div id=""a-box""> <p class=""title-text"">A</h3></p> </div> <div id=""x-box""> <p class=""title-text"">X<p> </div> <div id=""b-box""> <p class=""title-text"">B</p></div> <br> <div style='float: left;padding-left:30px;'><p>Press '1' for A</p></div><div style='float: right;padding-right:30px;'><p>Press '0' for B</p> </div> </div></div>","null","","","","","","","","","","","","","",""
"4701","","test","audio-keyboard-response","110","505859","0.0-8.0-1.41","5685850c333cbd000d4e042f","condA","","resources/audio/wordStim/S9_AU_19_bxa_Step-8.wav","48","","","","","AU","resources/audio/wordStim/S9_AU_19_bxa_Step-8.wav","S9","19","bxa","8","CN","1","0","false"
"null","","fixation","html-keyboard-response","111","506861","0.0-8.0-0.42","5685850c333cbd000d4e042f","condA","","<div class=""vertical-center"" style='width:60%;'><p style='font-weight:bold;'>Does the middle word sound more like the first word (A) or the last word (B)?</p> <br> <div class=""container""> <div id=""a-box""> <p class=""title-text"">A</h3></p> </div> <div id=""x-box""> <p class=""title-text"">X<p> </div> <div id=""b-box""> <p class=""title-text"">B</p></div> <br> <div style='float: left;padding-left:30px;'><p>Press '1' for A</p></div><div style='float: right;padding-right:30px;'><p>Press '0' for B</p> </div> </div></div>","null","","","","","","","","","","","","","",""
"2869","","test","audio-keyboard-response","112","509735","0.0-8.0-1.42","5685850c333cbd000d4e042f","condA","","resources/audio/wordStim/S9_AI_27_bxa_Step-4.wav","49","","","","","AI","resources/audio/wordStim/S9_AI_27_bxa_Step-4.wav","S9","27","bxa","4","CN","1","1","true"
"null","","fixation","html-keyboard-response","113","510737","0.0-8.0-0.43","5685850c333cbd000d4e042f","condA","","<div class=""vertical-center"" style='width:60%;'><p style='font-weight:bold;'>Does the middle word sound more like the first word (A) or the last word (B)?</p> <br> <div class=""container""> <div id=""a-box""> <p class=""title-text"">A</h3></p> </div> <div id=""x-box""> <p class=""title-text"">X<p> </div> <div id=""b-box""> <p class=""title-text"">B</p></div> <br> <div style='float: left;padding-left:30px;'><p>Press '1' for A</p></div><div style='float: right;padding-right:30px;'><p>Press '0' for B</p> </div> </div></div>","null","","","","","","","","","","","","","",""
"6280","","test","audio-keyboard-response","114","517012","0.0-8.0-1.43","5685850c333cbd000d4e042f","condA","","resources/audio/wordStim/S3_AI_25_bxa_Step-4.wav","49","","","","","AI","resources/audio/wordStim/S3_AI_25_bxa_Step-4.wav","S3","25","bxa","4","MI","1","1","true"
"null","","fixation","html-keyboard-response","115","518015","0.0-8.0-0.44","5685850c333cbd000d4e042f","condA","","<div class=""vertical-center"" style='width:60%;'><p style='font-weight:bold;'>Does the middle word sound more like the first word (A) or the last word (B)?</p> <br> <div class=""container""> <div id=""a-box""> <p class=""title-text"">A</h3></p> </div> <div id=""x-box""> <p class=""title-text"">X<p> </div> <div id=""b-box""> <p class=""title-text"">B</p></div> <br> <div style='float: left;padding-left:30px;'><p>Press '1' for A</p></div><div style='float: right;padding-right:30px;'><p>Press '0' for B</p> </div> </div></div>","null","","","","","","","","","","","","","",""
"3019","","test","audio-keyboard-response","116","521032","0.0-8.0-1.44","5685850c333cbd000d4e042f","condA","","resources/audio/wordStim/S3_AU_20_axb_Step-10.wav","48","","","","","AU","resources/audio/wordStim/S3_AU_20_axb_Step-10.wav","S3","20","axb","10","MI","0","0","true"
"null","","fixation","html-keyboard-response","117","522035","0.0-8.0-0.45","5685850c333cbd000d4e042f","condA","","<div class=""vertical-center"" style='width:60%;'><p style='font-weight:bold;'>Does the middle word sound more like the first word (A) or the last word (B)?</p> <br> <div class=""container""> <div id=""a-box""> <p class=""title-text"">A</h3></p> </div> <div id=""x-box""> <p class=""title-text"">X<p> </div> <div id=""b-box""> <p class=""title-text"">B</p></div> <br> <div style='float: left;padding-left:30px;'><p>Press '1' for A</p></div><div style='float: right;padding-right:30px;'><p>Press '0' for B</p> </div> </div></div>","null","","","","","","","","","","","","","",""
"3501","","test","audio-keyboard-response","118","525528","0.0-8.0-1.45","5685850c333cbd000d4e042f","condA","","resources/audio/wordStim/S9_AU_20_axb_Step-3.wav","48","","","","","AU","resources/audio/wordStim/S9_AU_20_axb_Step-3.wav","S9","20","axb","3","CN","0","0","true"
"null","","fixation","html-keyboard-response","119","526531","0.0-8.0-0.46","5685850c333cbd000d4e042f","condA","","<div class=""vertical-center"" style='width:60%;'><p style='font-weight:bold;'>Does the middle word sound more like the first word (A) or the last word (B)?</p> <br> <div class=""container""> <div id=""a-box""> <p class=""title-text"">A</h3></p> </div> <div id=""x-box""> <p class=""title-text"">X<p> </div> <div id=""b-box""> <p class=""title-text"">B</p></div> <br> <div style='float: left;padding-left:30px;'><p>Press '1' for A</p></div><div style='float: right;padding-right:30px;'><p>Press '0' for B</p> </div> </div></div>","null","","","","","","","","","","","","","",""
"4469","","test","audio-keyboard-response","120","530999","0.0-8.0-1.46","5685850c333cbd000d4e042f","condA","","resources/audio/wordStim/S3_AI_23_bxa_Step-8.wav","49","","","","","AI","resources/audio/wordStim/S3_AI_23_bxa_Step-8.wav","S3","23","bxa","8","MI","1","1","true"
"null","","fixation","html-keyboard-response","121","532001","0.0-8.0-0.47","5685850c333cbd000d4e042f","condA","","<div class=""vertical-center"" style='width:60%;'><p style='font-weight:bold;'>Does the middle word sound more like the first word (A) or the last word (B)?</p> <br> <div class=""container""> <div id=""a-box""> <p class=""title-text"">A</h3></p> </div> <div id=""x-box""> <p class=""title-text"">X<p> </div> <div id=""b-box""> <p class=""title-text"">B</p></div> <br> <div style='float: left;padding-left:30px;'><p>Press '1' for A</p></div><div style='float: right;padding-right:30px;'><p>Press '0' for B</p> </div> </div></div>","null","","","","","","","","","","","","","",""
"3360","","test","audio-keyboard-response","122","535358","0.0-8.0-1.47","5685850c333cbd000d4e042f","condA","","resources/audio/wordStim/S3_AU_15_bxa_Step-4.wav","49","","","","","AU","resources/audio/wordStim/S3_AU_15_bxa_Step-4.wav","S3","15","bxa","4","MI","1","1","true"
"null","","fixation","html-keyboard-response","123","536360","0.0-8.0-0.48","5685850c333cbd000d4e042f","condA","","<div class=""vertical-center"" style='width:60%;'><p style='font-weight:bold;'>Does the middle word sound more like the first word (A) or the last word (B)?</p> <br> <div class=""container""> <div id=""a-box""> <p class=""title-text"">A</h3></p> </div> <div id=""x-box""> <p class=""title-text"">X<p> </div> <div id=""b-box""> <p class=""title-text"">B</p></div> <br> <div style='float: left;padding-left:30px;'><p>Press '1' for A</p></div><div style='float: right;padding-right:30px;'><p>Press '0' for B</p> </div> </div></div>","null","","","","","","","","","","","","","",""
"3411","","test","audio-keyboard-response","124","539770","0.0-8.0-1.48","5685850c333cbd000d4e042f","condA","","resources/audio/wordStim/S9_AI_25_bxa_Step-6.wav","49","","","","","AI","resources/audio/wordStim/S9_AI_25_bxa_Step-6.wav","S9","25","bxa","6","CN","1","1","true"
"null","","fixation","html-keyboard-response","125","540774","0.0-8.0-0.49","5685850c333cbd000d4e042f","condA","","<div class=""vertical-center"" style='width:60%;'><p style='font-weight:bold;'>Does the middle word sound more like the first word (A) or the last word (B)?</p> <br> <div class=""container""> <div id=""a-box""> <p class=""title-text"">A</h3></p> </div> <div id=""x-box""> <p class=""title-text"">X<p> </div> <div id=""b-box""> <p class=""title-text"">B</p></div> <br> <div style='float: left;padding-left:30px;'><p>Press '1' for A</p></div><div style='float: right;padding-right:30px;'><p>Press '0' for B</p> </div> </div></div>","null","","","","","","","","","","","","","",""
"2851","","test","audio-keyboard-response","126","543621","0.0-8.0-1.49","5685850c333cbd000d4e042f","condA","","resources/audio/wordStim/S9_AU_20_axb_Step-10.wav","48","","","","","AU","resources/audio/wordStim/S9_AU_20_axb_Step-10.wav","S9","20","axb","10","CN","0","0","true"
"null","","fixation","html-keyboard-response","127","544623","0.0-8.0-0.50","5685850c333cbd000d4e042f","condA","","<div class=""vertical-center"" style='width:60%;'><p style='font-weight:bold;'>Does the middle word sound more like the first word (A) or the last word (B)?</p> <br> <div class=""container""> <div id=""a-box""> <p class=""title-text"">A</h3></p> </div> <div id=""x-box""> <p class=""title-text"">X<p> </div> <div id=""b-box""> <p class=""title-text"">B</p></div> <br> <div style='float: left;padding-left:30px;'><p>Press '1' for A</p></div><div style='float: right;padding-right:30px;'><p>Press '0' for B</p> </div> </div></div>","null","","","","","","","","","","","","","",""
"4029","","test","audio-keyboard-response","128","548654","0.0-8.0-1.50","5685850c333cbd000d4e042f","condA","","resources/audio/wordStim/S3_AU_11_axb_Step-3.wav","48","","","","","AU","resources/audio/wordStim/S3_AU_11_axb_Step-3.wav","S3","11","axb","3","MI","0","0","true"
"null","","fixation","html-keyboard-response","129","549656","0.0-8.0-0.51","5685850c333cbd000d4e042f","condA","","<div class=""vertical-center"" style='width:60%;'><p style='font-weight:bold;'>Does the middle word sound more like the first word (A) or the last word (B)?</p> <br> <div class=""container""> <div id=""a-box""> <p class=""title-text"">A</h3></p> </div> <div id=""x-box""> <p class=""title-text"">X<p> </div> <div id=""b-box""> <p class=""title-text"">B</p></div> <br> <div style='float: left;padding-left:30px;'><p>Press '1' for A</p></div><div style='float: right;padding-right:30px;'><p>Press '0' for B</p> </div> </div></div>","null","","","","","","","","","","","","","",""
"3989","","test","audio-keyboard-response","130","553644","0.0-8.0-1.51","5685850c333cbd000d4e042f","condA","","resources/audio/wordStim/S9_AI_30_bxa_Step-4.wav","48","","","","","AI","resources/audio/wordStim/S9_AI_30_bxa_Step-4.wav","S9","30","bxa","4","CN","1","0","false"
"null","","fixation","html-keyboard-response","131","554647","0.0-8.0-0.52","5685850c333cbd000d4e042f","condA","","<div class=""vertical-center"" style='width:60%;'><p style='font-weight:bold;'>Does the middle word sound more like the first word (A) or the last word (B)?</p> <br> <div class=""container""> <div id=""a-box""> <p class=""title-text"">A</h3></p> </div> <div id=""x-box""> <p class=""title-text"">X<p> </div> <div id=""b-box""> <p class=""title-text"">B</p></div> <br> <div style='float: left;padding-left:30px;'><p>Press '1' for A</p></div><div style='float: right;padding-right:30px;'><p>Press '0' for B</p> </div> </div></div>","null","","","","","","","","","","","","","",""
"3509","","test","audio-keyboard-response","132","558165","0.0-8.0-1.52","5685850c333cbd000d4e042f","condA","","resources/audio/wordStim/S9_AU_13_bxa_Step-4.wav","48","","","","","AU","resources/audio/wordStim/S9_AU_13_bxa_Step-4.wav","S9","13","bxa","4","CN","1","0","false"
"null","","fixation","html-keyboard-response","133","559166","0.0-8.0-0.53","5685850c333cbd000d4e042f","condA","","<div class=""vertical-center"" style='width:60%;'><p style='font-weight:bold;'>Does the middle word sound more like the first word (A) or the last word (B)?</p> <br> <div class=""container""> <div id=""a-box""> <p class=""title-text"">A</h3></p> </div> <div id=""x-box""> <p class=""title-text"">X<p> </div> <div id=""b-box""> <p class=""title-text"">B</p></div> <br> <div style='float: left;padding-left:30px;'><p>Press '1' for A</p></div><div style='float: right;padding-right:30px;'><p>Press '0' for B</p> </div> </div></div>","null","","","","","","","","","","","","","",""
"4029","","test","audio-keyboard-response","134","563189","0.0-8.0-1.53","5685850c333cbd000d4e042f","condA","","resources/audio/wordStim/S3_AU_11_bxa_Step-4.wav","49","","","","","AU","resources/audio/wordStim/S3_AU_11_bxa_Step-4.wav","S3","11","bxa","4","MI","1","1","true"
"16933.434999999008","","break","html-keyboard-response","135","580624","0.0-8.0-2.53-0.53","5685850c333cbd000d4e042f","condA","","<div class=""vertical-center""><p>Feel free to take a break!</p><i>When you're ready to continue, press SPACE to begin the next trial.</i></p></div>","32","","","","","","","","","","","","","",""
"null","","fixation","html-keyboard-response","136","581125","0.0-8.0-0.54","5685850c333cbd000d4e042f","condA","","<div class=""vertical-center"" style='width:60%;'><p style='font-weight:bold;'>Does the middle word sound more like the first word (A) or the last word (B)?</p> <br> <div class=""container""> <div id=""a-box""> <p class=""title-text"">A</h3></p> </div> <div id=""x-box""> <p class=""title-text"">X<p> </div> <div id=""b-box""> <p class=""title-text"">B</p></div> <br> <div style='float: left;padding-left:30px;'><p>Press '1' for A</p></div><div style='float: right;padding-right:30px;'><p>Press '0' for B</p> </div> </div></div>","null","","","","","","","","","","","","","",""
"2880","","test","audio-keyboard-response","137","584001","0.0-8.0-1.54","5685850c333cbd000d4e042f","condA","","resources/audio/wordStim/S9_AI_27_axb_Step-10.wav","48","","","","","AI","resources/audio/wordStim/S9_AI_27_axb_Step-10.wav","S9","27","axb","10","CN","0","0","true"
"null","","fixation","html-keyboard-response","138","585003","0.0-8.0-0.55","5685850c333cbd000d4e042f","condA","","<div class=""vertical-center"" style='width:60%;'><p style='font-weight:bold;'>Does the middle word sound more like the first word (A) or the last word (B)?</p> <br> <div class=""container""> <div id=""a-box""> <p class=""title-text"">A</h3></p> </div> <div id=""x-box""> <p class=""title-text"">X<p> </div> <div id=""b-box""> <p class=""title-text"">B</p></div> <br> <div style='float: left;padding-left:30px;'><p>Press '1' for A</p></div><div style='float: right;padding-right:30px;'><p>Press '0' for B</p> </div> </div></div>","null","","","","","","","","","","","","","",""
"3200","","test","audio-keyboard-response","139","588204","0.0-8.0-1.55","5685850c333cbd000d4e042f","condA","","resources/audio/wordStim/S3_AI_28_bxa_Step-8.wav","48","","","","","AI","resources/audio/wordStim/S3_AI_28_bxa_Step-8.wav","S3","28","bxa","8","MI","1","0","false"
"null","","fixation","html-keyboard-response","140","589207","0.0-8.0-0.56","5685850c333cbd000d4e042f","condA","","<div class=""vertical-center"" style='width:60%;'><p style='font-weight:bold;'>Does the middle word sound more like the first word (A) or the last word (B)?</p> <br> <div class=""container""> <div id=""a-box""> <p class=""title-text"">A</h3></p> </div> <div id=""x-box""> <p class=""title-text"">X<p> </div> <div id=""b-box""> <p class=""title-text"">B</p></div> <br> <div style='float: left;padding-left:30px;'><p>Press '1' for A</p></div><div style='float: right;padding-right:30px;'><p>Press '0' for B</p> </div> </div></div>","null","","","","","","","","","","","","","",""
"3971","","test","audio-keyboard-response","141","593185","0.0-8.0-1.56","5685850c333cbd000d4e042f","condA","","resources/audio/wordStim/S9_AI_22_bxa_Step-8.wav","49","","","","","AI","resources/audio/wordStim/S9_AI_22_bxa_Step-8.wav","S9","22","bxa","8","CN","1","1","true"
"null","","fixation","html-keyboard-response","142","594188","0.0-8.0-0.57","5685850c333cbd000d4e042f","condA","","<div class=""vertical-center"" style='width:60%;'><p style='font-weight:bold;'>Does the middle word sound more like the first word (A) or the last word (B)?</p> <br> <div class=""container""> <div id=""a-box""> <p class=""title-text"">A</h3></p> </div> <div id=""x-box""> <p class=""title-text"">X<p> </div> <div id=""b-box""> <p class=""title-text"">B</p></div> <br> <div style='float: left;padding-left:30px;'><p>Press '1' for A</p></div><div style='float: right;padding-right:30px;'><p>Press '0' for B</p> </div> </div></div>","null","","","","","","","","","","","","","",""
"4331","","test","audio-keyboard-response","143","598520","0.0-8.0-1.57","5685850c333cbd000d4e042f","condA","","resources/audio/wordStim/S3_AU_16_axb_Step-3.wav","49","","","","","AU","resources/audio/wordStim/S3_AU_16_axb_Step-3.wav","S3","16","axb","3","MI","0","1","false"
"null","","fixation","html-keyboard-response","144","599523","0.0-8.0-0.58","5685850c333cbd000d4e042f","condA","","<div class=""vertical-center"" style='width:60%;'><p style='font-weight:bold;'>Does the middle word sound more like the first word (A) or the last word (B)?</p> <br> <div class=""container""> <div id=""a-box""> <p class=""title-text"">A</h3></p> </div> <div id=""x-box""> <p class=""title-text"">X<p> </div> <div id=""b-box""> <p class=""title-text"">B</p></div> <br> <div style='float: left;padding-left:30px;'><p>Press '1' for A</p></div><div style='float: right;padding-right:30px;'><p>Press '0' for B</p> </div> </div></div>","null","","","","","","","","","","","","","",""
"4509","","test","audio-keyboard-response","145","604037","0.0-8.0-1.58","5685850c333cbd000d4e042f","condA","","resources/audio/wordStim/S3_AU_20_axb_Step-7.wav","49","","","","","AU","resources/audio/wordStim/S3_AU_20_axb_Step-7.wav","S3","20","axb","7","MI","0","1","false"
"null","","fixation","html-keyboard-response","146","605039","0.0-8.0-0.59","5685850c333cbd000d4e042f","condA","","<div class=""vertical-center"" style='width:60%;'><p style='font-weight:bold;'>Does the middle word sound more like the first word (A) or the last word (B)?</p> <br> <div class=""container""> <div id=""a-box""> <p class=""title-text"">A</h3></p> </div> <div id=""x-box""> <p class=""title-text"">X<p> </div> <div id=""b-box""> <p class=""title-text"">B</p></div> <br> <div style='float: left;padding-left:30px;'><p>Press '1' for A</p></div><div style='float: right;padding-right:30px;'><p>Press '0' for B</p> </div> </div></div>","null","","","","","","","","","","","","","",""
"3349","","test","audio-keyboard-response","147","608390","0.0-8.0-1.59","5685850c333cbd000d4e042f","condA","","resources/audio/wordStim/S9_AI_29_axb_Step-3.wav","49","","","","","AI","resources/audio/wordStim/S9_AI_29_axb_Step-3.wav","S9","29","axb","3","CN","0","1","false"
"null","","fixation","html-keyboard-response","148","609392","0.0-8.0-0.60","5685850c333cbd000d4e042f","condA","","<div class=""vertical-center"" style='width:60%;'><p style='font-weight:bold;'>Does the middle word sound more like the first word (A) or the last word (B)?</p> <br> <div class=""container""> <div id=""a-box""> <p class=""title-text"">A</h3></p> </div> <div id=""x-box""> <p class=""title-text"">X<p> </div> <div id=""b-box""> <p class=""title-text"">B</p></div> <br> <div style='float: left;padding-left:30px;'><p>Press '1' for A</p></div><div style='float: right;padding-right:30px;'><p>Press '0' for B</p> </div> </div></div>","null","","","","","","","","","","","","","",""
"3320","","test","audio-keyboard-response","149","612714","0.0-8.0-1.60","5685850c333cbd000d4e042f","condA","","resources/audio/wordStim/S9_AU_13_axb_Step-3.wav","49","","","","","AU","resources/audio/wordStim/S9_AU_13_axb_Step-3.wav","S9","13","axb","3","CN","0","1","false"
"null","","fixation","html-keyboard-response","150","613717","0.0-8.0-0.61","5685850c333cbd000d4e042f","condA","","<div class=""vertical-center"" style='width:60%;'><p style='font-weight:bold;'>Does the middle word sound more like the first word (A) or the last word (B)?</p> <br> <div class=""container""> <div id=""a-box""> <p class=""title-text"">A</h3></p> </div> <div id=""x-box""> <p class=""title-text"">X<p> </div> <div id=""b-box""> <p class=""title-text"">B</p></div> <br> <div style='float: left;padding-left:30px;'><p>Press '1' for A</p></div><div style='float: right;padding-right:30px;'><p>Press '0' for B</p> </div> </div></div>","null","","","","","","","","","","","","","",""
"4080","","test","audio-keyboard-response","151","617798","0.0-8.0-1.61","5685850c333cbd000d4e042f","condA","","resources/audio/wordStim/S3_AU_11_axb_Step-5.wav","49","","","","","AU","resources/audio/wordStim/S3_AU_11_axb_Step-5.wav","S3","11","axb","5","MI","0","1","false"
"null","","fixation","html-keyboard-response","152","618802","0.0-8.0-0.62","5685850c333cbd000d4e042f","condA","","<div class=""vertical-center"" style='width:60%;'><p style='font-weight:bold;'>Does the middle word sound more like the first word (A) or the last word (B)?</p> <br> <div class=""container""> <div id=""a-box""> <p class=""title-text"">A</h3></p> </div> <div id=""x-box""> <p class=""title-text"">X<p> </div> <div id=""b-box""> <p class=""title-text"">B</p></div> <br> <div style='float: left;padding-left:30px;'><p>Press '1' for A</p></div><div style='float: right;padding-right:30px;'><p>Press '0' for B</p> </div> </div></div>","null","","","","","","","","","","","","","",""
"3771","","test","audio-keyboard-response","153","622575","0.0-8.0-1.62","5685850c333cbd000d4e042f","condA","","resources/audio/wordStim/S9_AI_30_bxa_Step-8.wav","48","","","","","AI","resources/audio/wordStim/S9_AI_30_bxa_Step-8.wav","S9","30","bxa","8","CN","1","0","false"
"null","","fixation","html-keyboard-response","154","623578","0.0-8.0-0.63","5685850c333cbd000d4e042f","condA","","<div class=""vertical-center"" style='width:60%;'><p style='font-weight:bold;'>Does the middle word sound more like the first word (A) or the last word (B)?</p> <br> <div class=""container""> <div id=""a-box""> <p class=""title-text"">A</h3></p> </div> <div id=""x-box""> <p class=""title-text"">X<p> </div> <div id=""b-box""> <p class=""title-text"">B</p></div> <br> <div style='float: left;padding-left:30px;'><p>Press '1' for A</p></div><div style='float: right;padding-right:30px;'><p>Press '0' for B</p> </div> </div></div>","null","","","","","","","","","","","","","",""
"3269","","test","audio-keyboard-response","155","626853","0.0-8.0-1.63","5685850c333cbd000d4e042f","condA","","resources/audio/wordStim/S9_AI_29_bxa_Step-8.wav","49","","","","","AI","resources/audio/wordStim/S9_AI_29_bxa_Step-8.wav","S9","29","bxa","8","CN","1","1","true"
"null","","fixation","html-keyboard-response","156","627854","0.0-8.0-0.64","5685850c333cbd000d4e042f","condA","","<div class=""vertical-center"" style='width:60%;'><p style='font-weight:bold;'>Does the middle word sound more like the first word (A) or the last word (B)?</p> <br> <div class=""container""> <div id=""a-box""> <p class=""title-text"">A</h3></p> </div> <div id=""x-box""> <p class=""title-text"">X<p> </div> <div id=""b-box""> <p class=""title-text"">B</p></div> <br> <div style='float: left;padding-left:30px;'><p>Press '1' for A</p></div><div style='float: right;padding-right:30px;'><p>Press '0' for B</p> </div> </div></div>","null","","","","","","","","","","","","","",""
"4739","","test","audio-keyboard-response","157","632594","0.0-8.0-1.64","5685850c333cbd000d4e042f","condA","","resources/audio/wordStim/S9_AI_22_axb_Step-7.wav","48","","","","","AI","resources/audio/wordStim/S9_AI_22_axb_Step-7.wav","S9","22","axb","7","CN","0","0","true"
"null","","fixation","html-keyboard-response","158","633597","0.0-8.0-0.65","5685850c333cbd000d4e042f","condA","","<div class=""vertical-center"" style='width:60%;'><p style='font-weight:bold;'>Does the middle word sound more like the first word (A) or the last word (B)?</p> <br> <div class=""container""> <div id=""a-box""> <p class=""title-text"">A</h3></p> </div> <div id=""x-box""> <p class=""title-text"">X<p> </div> <div id=""b-box""> <p class=""title-text"">B</p></div> <br> <div style='float: left;padding-left:30px;'><p>Press '1' for A</p></div><div style='float: right;padding-right:30px;'><p>Press '0' for B</p> </div> </div></div>","null","","","","","","","","","","","","","",""
"2901","","test","audio-keyboard-response","159","636494","0.0-8.0-1.65","5685850c333cbd000d4e042f","condA","","resources/audio/wordStim/S9_AU_16_axb_Step-9.wav","48","","","","","AU","resources/audio/wordStim/S9_AU_16_axb_Step-9.wav","S9","16","axb","9","CN","0","0","true"
"null","","fixation","html-keyboard-response","160","637496","0.0-8.0-0.66","5685850c333cbd000d4e042f","condA","","<div class=""vertical-center"" style='width:60%;'><p style='font-weight:bold;'>Does the middle word sound more like the first word (A) or the last word (B)?</p> <br> <div class=""container""> <div id=""a-box""> <p class=""title-text"">A</h3></p> </div> <div id=""x-box""> <p class=""title-text"">X<p> </div> <div id=""b-box""> <p class=""title-text"">B</p></div> <br> <div style='float: left;padding-left:30px;'><p>Press '1' for A</p></div><div style='float: right;padding-right:30px;'><p>Press '0' for B</p> </div> </div></div>","null","","","","","","","","","","","","","",""
"3389","","test","audio-keyboard-response","161","640883","0.0-8.0-1.66","5685850c333cbd000d4e042f","condA","","resources/audio/wordStim/S9_AU_18_axb_Step-10.wav","48","","","","","AU","resources/audio/wordStim/S9_AU_18_axb_Step-10.wav","S9","18","axb","10","CN","0","0","true"
"null","","fixation","html-keyboard-response","162","641885","0.0-8.0-0.67","5685850c333cbd000d4e042f","condA","","<div class=""vertical-center"" style='width:60%;'><p style='font-weight:bold;'>Does the middle word sound more like the first word (A) or the last word (B)?</p> <br> <div class=""container""> <div id=""a-box""> <p class=""title-text"">A</h3></p> </div> <div id=""x-box""> <p class=""title-text"">X<p> </div> <div id=""b-box""> <p class=""title-text"">B</p></div> <br> <div style='float: left;padding-left:30px;'><p>Press '1' for A</p></div><div style='float: right;padding-right:30px;'><p>Press '0' for B</p> </div> </div></div>","null","","","","","","","","","","","","","",""
"4811","","test","audio-keyboard-response","163","646691","0.0-8.0-1.67","5685850c333cbd000d4e042f","condA","","resources/audio/wordStim/S9_AI_29_axb_Step-9.wav","48","","","","","AI","resources/audio/wordStim/S9_AI_29_axb_Step-9.wav","S9","29","axb","9","CN","0","0","true"
"null","","fixation","html-keyboard-response","164","647693","0.0-8.0-0.68","5685850c333cbd000d4e042f","condA","","<div class=""vertical-center"" style='width:60%;'><p style='font-weight:bold;'>Does the middle word sound more like the first word (A) or the last word (B)?</p> <br> <div class=""container""> <div id=""a-box""> <p class=""title-text"">A</h3></p> </div> <div id=""x-box""> <p class=""title-text"">X<p> </div> <div id=""b-box""> <p class=""title-text"">B</p></div> <br> <div style='float: left;padding-left:30px;'><p>Press '1' for A</p></div><div style='float: right;padding-right:30px;'><p>Press '0' for B</p> </div> </div></div>","null","","","","","","","","","","","","","",""
"3760","","test","audio-keyboard-response","165","651451","0.0-8.0-1.68","5685850c333cbd000d4e042f","condA","","resources/audio/wordStim/S3_AI_30_axb_Step-3.wav","49","","","","","AI","resources/audio/wordStim/S3_AI_30_axb_Step-3.wav","S3","30","axb","3","MI","0","1","false"
"null","","fixation","html-keyboard-response","166","652454","0.0-8.0-0.69","5685850c333cbd000d4e042f","condA","","<div class=""vertical-center"" style='width:60%;'><p style='font-weight:bold;'>Does the middle word sound more like the first word (A) or the last word (B)?</p> <br> <div class=""container""> <div id=""a-box""> <p class=""title-text"">A</h3></p> </div> <div id=""x-box""> <p class=""title-text"">X<p> </div> <div id=""b-box""> <p class=""title-text"">B</p></div> <br> <div style='float: left;padding-left:30px;'><p>Press '1' for A</p></div><div style='float: right;padding-right:30px;'><p>Press '0' for B</p> </div> </div></div>","null","","","","","","","","","","","","","",""
"3891","","test","audio-keyboard-response","167","656348","0.0-8.0-1.69","5685850c333cbd000d4e042f","condA","","resources/audio/wordStim/S9_AU_11_bxa_Step-6.wav","49","","","","","AU","resources/audio/wordStim/S9_AU_11_bxa_Step-6.wav","S9","11","bxa","6","CN","1","1","true"
"null","","fixation","html-keyboard-response","168","657350","0.0-8.0-0.70","5685850c333cbd000d4e042f","condA","","<div class=""vertical-center"" style='width:60%;'><p style='font-weight:bold;'>Does the middle word sound more like the first word (A) or the last word (B)?</p> <br> <div class=""container""> <div id=""a-box""> <p class=""title-text"">A</h3></p> </div> <div id=""x-box""> <p class=""title-text"">X<p> </div> <div id=""b-box""> <p class=""title-text"">B</p></div> <br> <div style='float: left;padding-left:30px;'><p>Press '1' for A</p></div><div style='float: right;padding-right:30px;'><p>Press '0' for B</p> </div> </div></div>","null","","","","","","","","","","","","","",""
"5531","","test","audio-keyboard-response","169","662886","0.0-8.0-1.70","5685850c333cbd000d4e042f","condA","","resources/audio/wordStim/S3_AU_18_bxa_Step-4.wav","49","","","","","AU","resources/audio/wordStim/S3_AU_18_bxa_Step-4.wav","S3","18","bxa","4","MI","1","1","true"
"null","","fixation","html-keyboard-response","170","663889","0.0-8.0-0.71","5685850c333cbd000d4e042f","condA","","<div class=""vertical-center"" style='width:60%;'><p style='font-weight:bold;'>Does the middle word sound more like the first word (A) or the last word (B)?</p> <br> <div class=""container""> <div id=""a-box""> <p class=""title-text"">A</h3></p> </div> <div id=""x-box""> <p class=""title-text"">X<p> </div> <div id=""b-box""> <p class=""title-text"">B</p></div> <br> <div style='float: left;padding-left:30px;'><p>Press '1' for A</p></div><div style='float: right;padding-right:30px;'><p>Press '0' for B</p> </div> </div></div>","null","","","","","","","","","","","","","",""
"2971","","test","audio-keyboard-response","171","666863","0.0-8.0-1.71","5685850c333cbd000d4e042f","condA","","resources/audio/wordStim/S9_AU_14_axb_Step-10.wav","48","","","","","AU","resources/audio/wordStim/S9_AU_14_axb_Step-10.wav","S9","14","axb","10","CN","0","0","true"
"null","","fixation","html-keyboard-response","172","667864","0.0-8.0-0.72","5685850c333cbd000d4e042f","condA","","<div class=""vertical-center"" style='width:60%;'><p style='font-weight:bold;'>Does the middle word sound more like the first word (A) or the last word (B)?</p> <br> <div class=""container""> <div id=""a-box""> <p class=""title-text"">A</h3></p> </div> <div id=""x-box""> <p class=""title-text"">X<p> </div> <div id=""b-box""> <p class=""title-text"">B</p></div> <br> <div style='float: left;padding-left:30px;'><p>Press '1' for A</p></div><div style='float: right;padding-right:30px;'><p>Press '0' for B</p> </div> </div></div>","null","","","","","","","","","","","","","",""
"3888","","test","audio-keyboard-response","173","671752","0.0-8.0-1.72","5685850c333cbd000d4e042f","condA","","resources/audio/wordStim/S9_AI_30_bxa_Step-6.wav","49","","","","","AI","resources/audio/wordStim/S9_AI_30_bxa_Step-6.wav","S9","30","bxa","6","CN","1","1","true"
"null","","fixation","html-keyboard-response","174","672755","0.0-8.0-0.73","5685850c333cbd000d4e042f","condA","","<div class=""vertical-center"" style='width:60%;'><p style='font-weight:bold;'>Does the middle word sound more like the first word (A) or the last word (B)?</p> <br> <div class=""container""> <div id=""a-box""> <p class=""title-text"">A</h3></p> </div> <div id=""x-box""> <p class=""title-text"">X<p> </div> <div id=""b-box""> <p class=""title-text"">B</p></div> <br> <div style='float: left;padding-left:30px;'><p>Press '1' for A</p></div><div style='float: right;padding-right:30px;'><p>Press '0' for B</p> </div> </div></div>","null","","","","","","","","","","","","","",""
"3141","","test","audio-keyboard-response","175","675898","0.0-8.0-1.73","5685850c333cbd000d4e042f","condA","","resources/audio/wordStim/S9_AI_23_axb_Step-10.wav","48","","","","","AI","resources/audio/wordStim/S9_AI_23_axb_Step-10.wav","S9","23","axb","10","CN","0","0","true"
"null","","fixation","html-keyboard-response","176","676901","0.0-8.0-0.74","5685850c333cbd000d4e042f","condA","","<div class=""vertical-center"" style='width:60%;'><p style='font-weight:bold;'>Does the middle word sound more like the first word (A) or the last word (B)?</p> <br> <div class=""container""> <div id=""a-box""> <p class=""title-text"">A</h3></p> </div> <div id=""x-box""> <p class=""title-text"">X<p> </div> <div id=""b-box""> <p class=""title-text"">B</p></div> <br> <div style='float: left;padding-left:30px;'><p>Press '1' for A</p></div><div style='float: right;padding-right:30px;'><p>Press '0' for B</p> </div> </div></div>","null","","","","","","","","","","","","","",""
"3520","","test","audio-keyboard-response","177","680418","0.0-8.0-1.74","5685850c333cbd000d4e042f","condA","","resources/audio/wordStim/S3_AU_18_bxa_Step-8.wav","49","","","","","AU","resources/audio/wordStim/S3_AU_18_bxa_Step-8.wav","S3","18","bxa","8","MI","1","1","true"
"null","","fixation","html-keyboard-response","178","681420","0.0-8.0-0.75","5685850c333cbd000d4e042f","condA","","<div class=""vertical-center"" style='width:60%;'><p style='font-weight:bold;'>Does the middle word sound more like the first word (A) or the last word (B)?</p> <br> <div class=""container""> <div id=""a-box""> <p class=""title-text"">A</h3></p> </div> <div id=""x-box""> <p class=""title-text"">X<p> </div> <div id=""b-box""> <p class=""title-text"">B</p></div> <br> <div style='float: left;padding-left:30px;'><p>Press '1' for A</p></div><div style='float: right;padding-right:30px;'><p>Press '0' for B</p> </div> </div></div>","null","","","","","","","","","","","","","",""
"3549","","test","audio-keyboard-response","179","684972","0.0-8.0-1.75","5685850c333cbd000d4e042f","condA","","resources/audio/wordStim/S9_AU_20_bxa_Step-8.wav","49","","","","","AU","resources/audio/wordStim/S9_AU_20_bxa_Step-8.wav","S9","20","bxa","8","CN","1","1","true"
"null","","fixation","html-keyboard-response","180","685973","0.0-8.0-0.76","5685850c333cbd000d4e042f","condA","","<div class=""vertical-center"" style='width:60%;'><p style='font-weight:bold;'>Does the middle word sound more like the first word (A) or the last word (B)?</p> <br> <div class=""container""> <div id=""a-box""> <p class=""title-text"">A</h3></p> </div> <div id=""x-box""> <p class=""title-text"">X<p> </div> <div id=""b-box""> <p class=""title-text"">B</p></div> <br> <div style='float: left;padding-left:30px;'><p>Press '1' for A</p></div><div style='float: right;padding-right:30px;'><p>Press '0' for B</p> </div> </div></div>","null","","","","","","","","","","","","","",""
"4240","","test","audio-keyboard-response","181","690215","0.0-8.0-1.76","5685850c333cbd000d4e042f","condA","","resources/audio/wordStim/S3_AU_14_bxa_Step-6.wav","49","","","","","AU","resources/audio/wordStim/S3_AU_14_bxa_Step-6.wav","S3","14","bxa","6","MI","1","1","true"
"null","","fixation","html-keyboard-response","182","691216","0.0-8.0-0.77","5685850c333cbd000d4e042f","condA","","<div class=""vertical-center"" style='width:60%;'><p style='font-weight:bold;'>Does the middle word sound more like the first word (A) or the last word (B)?</p> <br> <div class=""container""> <div id=""a-box""> <p class=""title-text"">A</h3></p> </div> <div id=""x-box""> <p class=""title-text"">X<p> </div> <div id=""b-box""> <p class=""title-text"">B</p></div> <br> <div style='float: left;padding-left:30px;'><p>Press '1' for A</p></div><div style='float: right;padding-right:30px;'><p>Press '0' for B</p> </div> </div></div>","null","","","","","","","","","","","","","",""
"3720","","test","audio-keyboard-response","183","694933","0.0-8.0-1.77","5685850c333cbd000d4e042f","condA","","resources/audio/wordStim/S3_AU_16_axb_Step-10.wav","48","","","","","AU","resources/audio/wordStim/S3_AU_16_axb_Step-10.wav","S3","16","axb","10","MI","0","0","true"
"null","","fixation","html-keyboard-response","184","695936","0.0-8.0-0.78","5685850c333cbd000d4e042f","condA","","<div class=""vertical-center"" style='width:60%;'><p style='font-weight:bold;'>Does the middle word sound more like the first word (A) or the last word (B)?</p> <br> <div class=""container""> <div id=""a-box""> <p class=""title-text"">A</h3></p> </div> <div id=""x-box""> <p class=""title-text"">X<p> </div> <div id=""b-box""> <p class=""title-text"">B</p></div> <br> <div style='float: left;padding-left:30px;'><p>Press '1' for A</p></div><div style='float: right;padding-right:30px;'><p>Press '0' for B</p> </div> </div></div>","null","","","","","","","","","","","","","",""
"2371","","test","audio-keyboard-response","185","698301","0.0-8.0-1.78","5685850c333cbd000d4e042f","condA","","resources/audio/wordStim/S3_AI_21_bxa_Step-2.wav","48","","","","","AI","resources/audio/wordStim/S3_AI_21_bxa_Step-2.wav","S3","21","bxa","2","MI","1","0","false"
"null","","fixation","html-keyboard-response","186","699303","0.0-8.0-0.79","5685850c333cbd000d4e042f","condA","","<div class=""vertical-center"" style='width:60%;'><p style='font-weight:bold;'>Does the middle word sound more like the first word (A) or the last word (B)?</p> <br> <div class=""container""> <div id=""a-box""> <p class=""title-text"">A</h3></p> </div> <div id=""x-box""> <p class=""title-text"">X<p> </div> <div id=""b-box""> <p class=""title-text"">B</p></div> <br> <div style='float: left;padding-left:30px;'><p>Press '1' for A</p></div><div style='float: right;padding-right:30px;'><p>Press '0' for B</p> </div> </div></div>","null","","","","","","","","","","","","","",""
"3360","","test","audio-keyboard-response","187","702662","0.0-8.0-1.79","5685850c333cbd000d4e042f","condA","","resources/audio/wordStim/S3_AI_28_bxa_Step-4.wav","48","","","","","AI","resources/audio/wordStim/S3_AI_28_bxa_Step-4.wav","S3","28","bxa","4","MI","1","0","false"
"null","","fixation","html-keyboard-response","188","703663","0.0-8.0-0.80","5685850c333cbd000d4e042f","condA","","<div class=""vertical-center"" style='width:60%;'><p style='font-weight:bold;'>Does the middle word sound more like the first word (A) or the last word (B)?</p> <br> <div class=""container""> <div id=""a-box""> <p class=""title-text"">A</h3></p> </div> <div id=""x-box""> <p class=""title-text"">X<p> </div> <div id=""b-box""> <p class=""title-text"">B</p></div> <br> <div style='float: left;padding-left:30px;'><p>Press '1' for A</p></div><div style='float: right;padding-right:30px;'><p>Press '0' for B</p> </div> </div></div>","null","","","","","","","","","","","","","",""
"3979","","test","audio-keyboard-response","189","707647","0.0-8.0-1.80","5685850c333cbd000d4e042f","condA","","resources/audio/wordStim/S3_AI_25_axb_Step-7.wav","48","","","","","AI","resources/audio/wordStim/S3_AI_25_axb_Step-7.wav","S3","25","axb","7","MI","0","0","true"
"2814.1650000034133","","break","html-keyboard-response","190","710962","0.0-8.0-2.80-0.80","5685850c333cbd000d4e042f","condA","","<div class=""vertical-center""><p>Feel free to take a break!</p><i>When you're ready to continue, press SPACE to begin the next trial.</i></p></div>","32","","","","","","","","","","","","","",""
"null","","fixation","html-keyboard-response","191","711463","0.0-8.0-0.81","5685850c333cbd000d4e042f","condA","","<div class=""vertical-center"" style='width:60%;'><p style='font-weight:bold;'>Does the middle word sound more like the first word (A) or the last word (B)?</p> <br> <div class=""container""> <div id=""a-box""> <p class=""title-text"">A</h3></p> </div> <div id=""x-box""> <p class=""title-text"">X<p> </div> <div id=""b-box""> <p class=""title-text"">B</p></div> <br> <div style='float: left;padding-left:30px;'><p>Press '1' for A</p></div><div style='float: right;padding-right:30px;'><p>Press '0' for B</p> </div> </div></div>","null","","","","","","","","","","","","","",""
"4699","","test","audio-keyboard-response","192","716161","0.0-8.0-1.81","5685850c333cbd000d4e042f","condA","","resources/audio/wordStim/S3_AU_18_axb_Step-5.wav","49","","","","","AU","resources/audio/wordStim/S3_AU_18_axb_Step-5.wav","S3","18","axb","5","MI","0","1","false"
"null","","fixation","html-keyboard-response","193","717163","0.0-8.0-0.82","5685850c333cbd000d4e042f","condA","","<div class=""vertical-center"" style='width:60%;'><p style='font-weight:bold;'>Does the middle word sound more like the first word (A) or the last word (B)?</p> <br> <div class=""container""> <div id=""a-box""> <p class=""title-text"">A</h3></p> </div> <div id=""x-box""> <p class=""title-text"">X<p> </div> <div id=""b-box""> <p class=""title-text"">B</p></div> <br> <div style='float: left;padding-left:30px;'><p>Press '1' for A</p></div><div style='float: right;padding-right:30px;'><p>Press '0' for B</p> </div> </div></div>","null","","","","","","","","","","","","","",""
"4149","","test","audio-keyboard-response","194","721316","0.0-8.0-1.82","5685850c333cbd000d4e042f","condA","","resources/audio/wordStim/S3_AU_16_bxa_Step-8.wav","48","","","","","AU","resources/audio/wordStim/S3_AU_16_bxa_Step-8.wav","S3","16","bxa","8","MI","1","0","false"
"null","","fixation","html-keyboard-response","195","722319","0.0-8.0-0.83","5685850c333cbd000d4e042f","condA","","<div class=""vertical-center"" style='width:60%;'><p style='font-weight:bold;'>Does the middle word sound more like the first word (A) or the last word (B)?</p> <br> <div class=""container""> <div id=""a-box""> <p class=""title-text"">A</h3></p> </div> <div id=""x-box""> <p class=""title-text"">X<p> </div> <div id=""b-box""> <p class=""title-text"">B</p></div> <br> <div style='float: left;padding-left:30px;'><p>Press '1' for A</p></div><div style='float: right;padding-right:30px;'><p>Press '0' for B</p> </div> </div></div>","null","","","","","","","","","","","","","",""
"2909","","test","audio-keyboard-response","196","725228","0.0-8.0-1.83","5685850c333cbd000d4e042f","condA","","resources/audio/wordStim/S9_AU_20_axb_Step-5.wav","49","","","","","AU","resources/audio/wordStim/S9_AU_20_axb_Step-5.wav","S9","20","axb","5","CN","0","1","false"
"null","","fixation","html-keyboard-response","197","726230","0.0-8.0-0.84","5685850c333cbd000d4e042f","condA","","<div class=""vertical-center"" style='width:60%;'><p style='font-weight:bold;'>Does the middle word sound more like the first word (A) or the last word (B)?</p> <br> <div class=""container""> <div id=""a-box""> <p class=""title-text"">A</h3></p> </div> <div id=""x-box""> <p class=""title-text"">X<p> </div> <div id=""b-box""> <p class=""title-text"">B</p></div> <br> <div style='float: left;padding-left:30px;'><p>Press '1' for A</p></div><div style='float: right;padding-right:30px;'><p>Press '0' for B</p> </div> </div></div>","null","","","","","","","","","","","","","",""
"3411","","test","audio-keyboard-response","198","729644","0.0-8.0-1.84","5685850c333cbd000d4e042f","condA","","resources/audio/wordStim/S9_AI_23_axb_Step-5.wav","49","","","","","AI","resources/audio/wordStim/S9_AI_23_axb_Step-5.wav","S9","23","axb","5","CN","0","1","false"
"null","","fixation","html-keyboard-response","199","730646","0.0-8.0-0.85","5685850c333cbd000d4e042f","condA","","<div class=""vertical-center"" style='width:60%;'><p style='font-weight:bold;'>Does the middle word sound more like the first word (A) or the last word (B)?</p> <br> <div class=""container""> <div id=""a-box""> <p class=""title-text"">A</h3></p> </div> <div id=""x-box""> <p class=""title-text"">X<p> </div> <div id=""b-box""> <p class=""title-text"">B</p></div> <br> <div style='float: left;padding-left:30px;'><p>Press '1' for A</p></div><div style='float: right;padding-right:30px;'><p>Press '0' for B</p> </div> </div></div>","null","","","","","","","","","","","","","",""
"3341","","test","audio-keyboard-response","200","733979","0.0-8.0-1.85","5685850c333cbd000d4e042f","condA","","resources/audio/wordStim/S3_AI_23_axb_Step-7.wav","48","","","","","AI","resources/audio/wordStim/S3_AI_23_axb_Step-7.wav","S3","23","axb","7","MI","0","0","true"
"null","","fixation","html-keyboard-response","201","734980","0.0-8.0-0.86","5685850c333cbd000d4e042f","condA","","<div class=""vertical-center"" style='width:60%;'><p style='font-weight:bold;'>Does the middle word sound more like the first word (A) or the last word (B)?</p> <br> <div class=""container""> <div id=""a-box""> <p class=""title-text"">A</h3></p> </div> <div id=""x-box""> <p class=""title-text"">X<p> </div> <div id=""b-box""> <p class=""title-text"">B</p></div> <br> <div style='float: left;padding-left:30px;'><p>Press '1' for A</p></div><div style='float: right;padding-right:30px;'><p>Press '0' for B</p> </div> </div></div>","null","","","","","","","","","","","","","",""
"3160","","test","audio-keyboard-response","202","738147","0.0-8.0-1.86","5685850c333cbd000d4e042f","condA","","resources/audio/wordStim/S3_AI_22_bxa_Step-8.wav","49","","","","","AI","resources/audio/wordStim/S3_AI_22_bxa_Step-8.wav","S3","22","bxa","8","MI","1","1","true"
"null","","fixation","html-keyboard-response","203","739150","0.0-8.0-0.87","5685850c333cbd000d4e042f","condA","","<div class=""vertical-center"" style='width:60%;'><p style='font-weight:bold;'>Does the middle word sound more like the first word (A) or the last word (B)?</p> <br> <div class=""container""> <div id=""a-box""> <p class=""title-text"">A</h3></p> </div> <div id=""x-box""> <p class=""title-text"">X<p> </div> <div id=""b-box""> <p class=""title-text"">B</p></div> <br> <div style='float: left;padding-left:30px;'><p>Press '1' for A</p></div><div style='float: right;padding-right:30px;'><p>Press '0' for B</p> </div> </div></div>","null","","","","","","","","","","","","","",""
"3581","","test","audio-keyboard-response","204","742736","0.0-8.0-1.87","5685850c333cbd000d4e042f","condA","","resources/audio/wordStim/S3_AU_11_bxa_Step-6.wav","48","","","","","AU","resources/audio/wordStim/S3_AU_11_bxa_Step-6.wav","S3","11","bxa","6","MI","1","0","false"
"null","","fixation","html-keyboard-response","205","743738","0.0-8.0-0.88","5685850c333cbd000d4e042f","condA","","<div class=""vertical-center"" style='width:60%;'><p style='font-weight:bold;'>Does the middle word sound more like the first word (A) or the last word (B)?</p> <br> <div class=""container""> <div id=""a-box""> <p class=""title-text"">A</h3></p> </div> <div id=""x-box""> <p class=""title-text"">X<p> </div> <div id=""b-box""> <p class=""title-text"">B</p></div> <br> <div style='float: left;padding-left:30px;'><p>Press '1' for A</p></div><div style='float: right;padding-right:30px;'><p>Press '0' for B</p> </div> </div></div>","null","","","","","","","","","","","","","",""
"3688","","test","audio-keyboard-response","206","747432","0.0-8.0-1.88","5685850c333cbd000d4e042f","condA","","resources/audio/wordStim/S3_AI_29_bxa_Step-2.wav","48","","","","","AI","resources/audio/wordStim/S3_AI_29_bxa_Step-2.wav","S3","29","bxa","2","MI","1","0","false"
"null","","fixation","html-keyboard-response","207","748434","0.0-8.0-0.89","5685850c333cbd000d4e042f","condA","","<div class=""vertical-center"" style='width:60%;'><p style='font-weight:bold;'>Does the middle word sound more like the first word (A) or the last word (B)?</p> <br> <div class=""container""> <div id=""a-box""> <p class=""title-text"">A</h3></p> </div> <div id=""x-box""> <p class=""title-text"">X<p> </div> <div id=""b-box""> <p class=""title-text"">B</p></div> <br> <div style='float: left;padding-left:30px;'><p>Press '1' for A</p></div><div style='float: right;padding-right:30px;'><p>Press '0' for B</p> </div> </div></div>","null","","","","","","","","","","","","","",""
"2912","","test","audio-keyboard-response","208","751345","0.0-8.0-1.89","5685850c333cbd000d4e042f","condA","","resources/audio/wordStim/S3_AU_15_bxa_Step-8.wav","49","","","","","AU","resources/audio/wordStim/S3_AU_15_bxa_Step-8.wav","S3","15","bxa","8","MI","1","1","true"
"null","","fixation","html-keyboard-response","209","752348","0.0-8.0-0.90","5685850c333cbd000d4e042f","condA","","<div class=""vertical-center"" style='width:60%;'><p style='font-weight:bold;'>Does the middle word sound more like the first word (A) or the last word (B)?</p> <br> <div class=""container""> <div id=""a-box""> <p class=""title-text"">A</h3></p> </div> <div id=""x-box""> <p class=""title-text"">X<p> </div> <div id=""b-box""> <p class=""title-text"">B</p></div> <br> <div style='float: left;padding-left:30px;'><p>Press '1' for A</p></div><div style='float: right;padding-right:30px;'><p>Press '0' for B</p> </div> </div></div>","null","","","","","","","","","","","","","",""
"3981","","test","audio-keyboard-response","210","756337","0.0-8.0-1.90","5685850c333cbd000d4e042f","condA","","resources/audio/wordStim/S9_AI_25_bxa_Step-8.wav","49","","","","","AI","resources/audio/wordStim/S9_AI_25_bxa_Step-8.wav","S9","25","bxa","8","CN","1","1","true"
"null","","fixation","html-keyboard-response","211","757340","0.0-8.0-0.91","5685850c333cbd000d4e042f","condA","","<div class=""vertical-center"" style='width:60%;'><p style='font-weight:bold;'>Does the middle word sound more like the first word (A) or the last word (B)?</p> <br> <div class=""container""> <div id=""a-box""> <p class=""title-text"">A</h3></p> </div> <div id=""x-box""> <p class=""title-text"">X<p> </div> <div id=""b-box""> <p class=""title-text"">B</p></div> <br> <div style='float: left;padding-left:30px;'><p>Press '1' for A</p></div><div style='float: right;padding-right:30px;'><p>Press '0' for B</p> </div> </div></div>","null","","","","","","","","","","","","","",""
"3528","","test","audio-keyboard-response","212","760873","0.0-8.0-1.91","5685850c333cbd000d4e042f","condA","","resources/audio/wordStim/S3_AI_21_bxa_Step-6.wav","49","","","","","AI","resources/audio/wordStim/S3_AI_21_bxa_Step-6.wav","S3","21","bxa","6","MI","1","1","true"
"null","","fixation","html-keyboard-response","213","761875","0.0-8.0-0.92","5685850c333cbd000d4e042f","condA","","<div class=""vertical-center"" style='width:60%;'><p style='font-weight:bold;'>Does the middle word sound more like the first word (A) or the last word (B)?</p> <br> <div class=""container""> <div id=""a-box""> <p class=""title-text"">A</h3></p> </div> <div id=""x-box""> <p class=""title-text"">X<p> </div> <div id=""b-box""> <p class=""title-text"">B</p></div> <br> <div style='float: left;padding-left:30px;'><p>Press '1' for A</p></div><div style='float: right;padding-right:30px;'><p>Press '0' for B</p> </div> </div></div>","null","","","","","","","","","","","","","",""
"3411","","test","audio-keyboard-response","214","765279","0.0-8.0-1.92","5685850c333cbd000d4e042f","condA","","resources/audio/wordStim/S3_AI_23_axb_Step-5.wav","48","","","","","AI","resources/audio/wordStim/S3_AI_23_axb_Step-5.wav","S3","23","axb","5","MI","0","0","true"
