"rt","url","trial_role","trial_type","trial_index","time_elapsed","internal_node_id","participantId","condition","view_history","stimulus","key_press","button_pressed","correct_answer","correct_response","success","vowel","wordStim","speaker","sentNum","order","step","speakerIdentity","raised_answer","key_response","raised_response"
"22490.24500000087","micr.con.consent.html","consent","external-html","0","22523","0.0-0.0","5e9b443223881d04be740737","condA","","","","","","","","","","","","","","","","",""
"93120.68","","instructions","instructions","1","115645","0.0-1.0","5e9b443223881d04be740737","condA","[{""page_index"":0,""viewing_time"":62805.86000000039},{""page_index"":1,""viewing_time"":22147.179999999935},{""page_index"":2,""viewing_time"":8166.915000001609}]","","","","","","","","","","","","","","","",""
"null","","fixation","html-keyboard-response","2","116147","0.0-2.0-0.0","5e9b443223881d04be740737","condA","","<div class=""vertical-center"" style=""font-size:60px;"">+</div>","null","","","","","","","","","","","","","",""
"4678.269999996701","","tonetest","audio-button-response","3","120826","0.0-2.0-1.0","5e9b443223881d04be740737","condA","","../../src/audio/toneTest_5.wav","","0","0","true","","","","","","","","","","",""
"null","","fixation","html-keyboard-response","4","121328","0.0-2.0-0.1","5e9b443223881d04be740737","condA","","<div class=""vertical-center"" style=""font-size:60px;"">+</div>","null","","","","","","","","","","","","","",""
"5066.14499999705","","tonetest","audio-button-response","5","126395","0.0-2.0-1.1","5e9b443223881d04be740737","condA","","../../src/audio/toneTest_5.wav","","0","0","true","","","","","","","","","","",""
"null","","fixation","html-keyboard-response","6","126895","0.0-2.0-0.2","5e9b443223881d04be740737","condA","","<div class=""vertical-center"" style=""font-size:60px;"">+</div>","null","","","","","","","","","","","","","",""
"4756.419999997888","","tonetest","audio-button-response","7","131653","0.0-2.0-1.2","5e9b443223881d04be740737","condA","","../../src/audio/toneTest_1.wav","","2","2","true","","","","","","","","","","",""
"null","","fixation","html-keyboard-response","8","132155","0.0-2.0-0.3","5e9b443223881d04be740737","condA","","<div class=""vertical-center"" style=""font-size:60px;"">+</div>","null","","","","","","","","","","","","","",""
"4481.870000003255","","tonetest","audio-button-response","9","136638","0.0-2.0-1.3","5e9b443223881d04be740737","condA","","../../src/audio/toneTest_3.wav","","2","2","true","","","","","","","","","","",""
"null","","fixation","html-keyboard-response","10","137139","0.0-2.0-0.4","5e9b443223881d04be740737","condA","","<div class=""vertical-center"" style=""font-size:60px;"">+</div>","null","","","","","","","","","","","","","",""
"4550.4799999980605","","tonetest","audio-button-response","11","141691","0.0-2.0-1.4","5e9b443223881d04be740737","condA","","../../src/audio/toneTest_1.wav","","2","2","true","","","","","","","","","","",""
"null","","fixation","html-keyboard-response","12","142192","0.0-2.0-0.5","5e9b443223881d04be740737","condA","","<div class=""vertical-center"" style=""font-size:60px;"">+</div>","null","","","","","","","","","","","","","",""
"4806.299999996554","","tonetest","audio-button-response","13","147000","0.0-2.0-1.5","5e9b443223881d04be740737","condA","","../../src/audio/toneTest_4.wav","","1","1","true","","","","","","","","","","",""
"5604.204999996","","instructions","html-keyboard-response","14","152605","0.0-3.0","5e9b443223881d04be740737","condA","","<div class=""vertical-center""><p><b>Your score was 6/6.</b></p><p>If you scored below 6, please ensure that you are wearing properly functioning headphones and in a quiet location free of distractions.</p><p><i>To continue to the main experiment, press SPACE.</i></p></div>","32","","","","","","","","","","","","","",""
"","","","fullscreen","15","155568","0.0-4.0","5e9b443223881d04be740737","condA","","","","","","","true","","","","","","","","","",""
"21916.92499999772","","instructions","instructions","16","177485","0.0-5.0","5e9b443223881d04be740737","condA","[{""page_index"":0,""viewing_time"":21916.799999999057}]","","","","","","","","","","","","","","","",""
"null","","fixation","html-keyboard-response","17","177986","0.0-6.0-0.0","5e9b443223881d04be740737","condA","","<div class=""vertical-center"" style='width:60%;'><p style='font-weight:bold;'>Does the middle word sound more like the first word (A) or the last word (B)?</p> <br> <div class=""container""> <div id=""a-box""> <p class=""title-text"">A</h3></p> </div> <div id=""x-box""> <p class=""title-text"">X<p> </div> <div id=""b-box""> <p class=""title-text"">B</p></div> <br> <div style='float: left;padding-left:30px;'><p>Press '1' for A</p></div><div style='float: right;padding-right:30px;'><p>Press '0' for B</p> </div> </div></div>","null","","","","","","","","","","","","","",""
"4669","","practice","audio-keyboard-response","18","182653","0.0-6.0-1.0","5e9b443223881d04be740737","condA","","resources/audio/practiceStim/S1_AI_21_axb_Step-6.wav","48","","","","","","","","","","","","","",""
"null","","fixation","html-keyboard-response","19","183654","0.0-6.0-0.1","5e9b443223881d04be740737","condA","","<div class=""vertical-center"" style='width:60%;'><p style='font-weight:bold;'>Does the middle word sound more like the first word (A) or the last word (B)?</p> <br> <div class=""container""> <div id=""a-box""> <p class=""title-text"">A</h3></p> </div> <div id=""x-box""> <p class=""title-text"">X<p> </div> <div id=""b-box""> <p class=""title-text"">B</p></div> <br> <div style='float: left;padding-left:30px;'><p>Press '1' for A</p></div><div style='float: right;padding-right:30px;'><p>Press '0' for B</p> </div> </div></div>","null","","","","","","","","","","","","","",""
"3109","","practice","audio-keyboard-response","20","186773","0.0-6.0-1.1","5e9b443223881d04be740737","condA","","resources/audio/practiceStim/S1_AU_14_bxa_Step-6.wav","48","","","","","","","","","","","","","",""
"null","","fixation","html-keyboard-response","21","187775","0.0-6.0-0.2","5e9b443223881d04be740737","condA","","<div class=""vertical-center"" style='width:60%;'><p style='font-weight:bold;'>Does the middle word sound more like the first word (A) or the last word (B)?</p> <br> <div class=""container""> <div id=""a-box""> <p class=""title-text"">A</h3></p> </div> <div id=""x-box""> <p class=""title-text"">X<p> </div> <div id=""b-box""> <p class=""title-text"">B</p></div> <br> <div style='float: left;padding-left:30px;'><p>Press '1' for A</p></div><div style='float: right;padding-right:30px;'><p>Press '0' for B</p> </div> </div></div>","null","","","","","","","","","","","","","",""
"2971","","practice","audio-keyboard-response","22","190749","0.0-6.0-1.2","5e9b443223881d04be740737","condA","","resources/audio/practiceStim/S1_AU_14_axb_Step-6.wav","48","","","","","","","","","","","","","",""
"null","","fixation","html-keyboard-response","23","191751","0.0-6.0-0.3","5e9b443223881d04be740737","condA","","<div class=""vertical-center"" style='width:60%;'><p style='font-weight:bold;'>Does the middle word sound more like the first word (A) or the last word (B)?</p> <br> <div class=""container""> <div id=""a-box""> <p class=""title-text"">A</h3></p> </div> <div id=""x-box""> <p class=""title-text"">X<p> </div> <div id=""b-box""> <p class=""title-text"">B</p></div> <br> <div style='float: left;padding-left:30px;'><p>Press '1' for A</p></div><div style='float: right;padding-right:30px;'><p>Press '0' for B</p> </div> </div></div>","null","","","","","","","","","","","","","",""
"4939","","practice","audio-keyboard-response","24","196693","0.0-6.0-1.3","5e9b443223881d04be740737","condA","","resources/audio/practiceStim/S1_AI_21_bxa_Step-6.wav","49","","","","","","","","","","","","","",""
"1243.1549999964773","","instructions","instructions","25","198437","0.0-7.0","5e9b443223881d04be740737","condA","[{""page_index"":0,""viewing_time"":1242.9950000005192}]","","","","","","","","","","","","","","","",""
"null","","fixation","html-keyboard-response","26","198940","0.0-8.0-0.0","5e9b443223881d04be740737","condA","","<div class=""vertical-center"" style='width:60%;'><p style='font-weight:bold;'>Does the middle word sound more like the first word (A) or the last word (B)?</p> <br> <div class=""container""> <div id=""a-box""> <p class=""title-text"">A</h3></p> </div> <div id=""x-box""> <p class=""title-text"">X<p> </div> <div id=""b-box""> <p class=""title-text"">B</p></div> <br> <div style='float: left;padding-left:30px;'><p>Press '1' for A</p></div><div style='float: right;padding-right:30px;'><p>Press '0' for B</p> </div> </div></div>","null","","","","","","","","","","","","","",""
"3109","","test","audio-keyboard-response","27","202053","0.0-8.0-1.0","5e9b443223881d04be740737","condA","","resources/audio/wordStim/S3_AU_14_bxa_Step-6.wav","49","","","","","AU","resources/audio/wordStim/S3_AU_14_bxa_Step-6.wav","S3","14","bxa","6","MI","1","1","true"
"null","","fixation","html-keyboard-response","28","203055","0.0-8.0-0.1","5e9b443223881d04be740737","condA","","<div class=""vertical-center"" style='width:60%;'><p style='font-weight:bold;'>Does the middle word sound more like the first word (A) or the last word (B)?</p> <br> <div class=""container""> <div id=""a-box""> <p class=""title-text"">A</h3></p> </div> <div id=""x-box""> <p class=""title-text"">X<p> </div> <div id=""b-box""> <p class=""title-text"">B</p></div> <br> <div style='float: left;padding-left:30px;'><p>Press '1' for A</p></div><div style='float: right;padding-right:30px;'><p>Press '0' for B</p> </div> </div></div>","null","","","","","","","","","","","","","",""
"3069","","test","audio-keyboard-response","29","206133","0.0-8.0-1.1","5e9b443223881d04be740737","condA","","resources/audio/wordStim/S9_AU_17_axb_Step-10.wav","48","","","","","AU","resources/audio/wordStim/S9_AU_17_axb_Step-10.wav","S9","17","axb","10","CN","0","0","true"
"null","","fixation","html-keyboard-response","30","207136","0.0-8.0-0.2","5e9b443223881d04be740737","condA","","<div class=""vertical-center"" style='width:60%;'><p style='font-weight:bold;'>Does the middle word sound more like the first word (A) or the last word (B)?</p> <br> <div class=""container""> <div id=""a-box""> <p class=""title-text"">A</h3></p> </div> <div id=""x-box""> <p class=""title-text"">X<p> </div> <div id=""b-box""> <p class=""title-text"">B</p></div> <br> <div style='float: left;padding-left:30px;'><p>Press '1' for A</p></div><div style='float: right;padding-right:30px;'><p>Press '0' for B</p> </div> </div></div>","null","","","","","","","","","","","","","",""
"3269","","test","audio-keyboard-response","31","210413","0.0-8.0-1.2","5e9b443223881d04be740737","condA","","resources/audio/wordStim/S9_AU_13_axb_Step-3.wav","49","","","","","AU","resources/audio/wordStim/S9_AU_13_axb_Step-3.wav","S9","13","axb","3","CN","0","1","false"
"null","","fixation","html-keyboard-response","32","211414","0.0-8.0-0.3","5e9b443223881d04be740737","condA","","<div class=""vertical-center"" style='width:60%;'><p style='font-weight:bold;'>Does the middle word sound more like the first word (A) or the last word (B)?</p> <br> <div class=""container""> <div id=""a-box""> <p class=""title-text"">A</h3></p> </div> <div id=""x-box""> <p class=""title-text"">X<p> </div> <div id=""b-box""> <p class=""title-text"">B</p></div> <br> <div style='float: left;padding-left:30px;'><p>Press '1' for A</p></div><div style='float: right;padding-right:30px;'><p>Press '0' for B</p> </div> </div></div>","null","","","","","","","","","","","","","",""
"3709","","test","audio-keyboard-response","33","215125","0.0-8.0-1.3","5e9b443223881d04be740737","condA","","resources/audio/wordStim/S9_AU_19_bxa_Step-6.wav","49","","","","","AU","resources/audio/wordStim/S9_AU_19_bxa_Step-6.wav","S9","19","bxa","6","CN","1","1","true"
"null","","fixation","html-keyboard-response","34","216127","0.0-8.0-0.4","5e9b443223881d04be740737","condA","","<div class=""vertical-center"" style='width:60%;'><p style='font-weight:bold;'>Does the middle word sound more like the first word (A) or the last word (B)?</p> <br> <div class=""container""> <div id=""a-box""> <p class=""title-text"">A</h3></p> </div> <div id=""x-box""> <p class=""title-text"">X<p> </div> <div id=""b-box""> <p class=""title-text"">B</p></div> <br> <div style='float: left;padding-left:30px;'><p>Press '1' for A</p></div><div style='float: right;padding-right:30px;'><p>Press '0' for B</p> </div> </div></div>","null","","","","","","","","","","","","","",""
"2920","","test","audio-keyboard-response","35","219053","0.0-8.0-1.4","5e9b443223881d04be740737","condA","","resources/audio/wordStim/S3_AI_21_axb_Step-5.wav","49","","","","","AI","resources/audio/wordStim/S3_AI_21_axb_Step-5.wav","S3","21","axb","5","MI","0","1","false"
"null","","fixation","html-keyboard-response","36","220055","0.0-8.0-0.5","5e9b443223881d04be740737","condA","","<div class=""vertical-center"" style='width:60%;'><p style='font-weight:bold;'>Does the middle word sound more like the first word (A) or the last word (B)?</p> <br> <div class=""container""> <div id=""a-box""> <p class=""title-text"">A</h3></p> </div> <div id=""x-box""> <p class=""title-text"">X<p> </div> <div id=""b-box""> <p class=""title-text"">B</p></div> <br> <div style='float: left;padding-left:30px;'><p>Press '1' for A</p></div><div style='float: right;padding-right:30px;'><p>Press '0' for B</p> </div> </div></div>","null","","","","","","","","","","","","","",""
"4360","","test","audio-keyboard-response","37","224421","0.0-8.0-1.5","5e9b443223881d04be740737","condA","","resources/audio/wordStim/S9_AI_25_axb_Step-5.wav","49","","","","","AI","resources/audio/wordStim/S9_AI_25_axb_Step-5.wav","S9","25","axb","5","CN","0","1","false"
"null","","fixation","html-keyboard-response","38","225424","0.0-8.0-0.6","5e9b443223881d04be740737","condA","","<div class=""vertical-center"" style='width:60%;'><p style='font-weight:bold;'>Does the middle word sound more like the first word (A) or the last word (B)?</p> <br> <div class=""container""> <div id=""a-box""> <p class=""title-text"">A</h3></p> </div> <div id=""x-box""> <p class=""title-text"">X<p> </div> <div id=""b-box""> <p class=""title-text"">B</p></div> <br> <div style='float: left;padding-left:30px;'><p>Press '1' for A</p></div><div style='float: right;padding-right:30px;'><p>Press '0' for B</p> </div> </div></div>","null","","","","","","","","","","","","","",""
"3360","","test","audio-keyboard-response","39","228789","0.0-8.0-1.6","5e9b443223881d04be740737","condA","","resources/audio/wordStim/S9_AU_18_axb_Step-10.wav","48","","","","","AU","resources/audio/wordStim/S9_AU_18_axb_Step-10.wav","S9","18","axb","10","CN","0","0","true"
"null","","fixation","html-keyboard-response","40","229790","0.0-8.0-0.7","5e9b443223881d04be740737","condA","","<div class=""vertical-center"" style='width:60%;'><p style='font-weight:bold;'>Does the middle word sound more like the first word (A) or the last word (B)?</p> <br> <div class=""container""> <div id=""a-box""> <p class=""title-text"">A</h3></p> </div> <div id=""x-box""> <p class=""title-text"">X<p> </div> <div id=""b-box""> <p class=""title-text"">B</p></div> <br> <div style='float: left;padding-left:30px;'><p>Press '1' for A</p></div><div style='float: right;padding-right:30px;'><p>Press '0' for B</p> </div> </div></div>","null","","","","","","","","","","","","","",""
"4509","","test","audio-keyboard-response","41","234301","0.0-8.0-1.7","5e9b443223881d04be740737","condA","","resources/audio/wordStim/S9_AU_11_bxa_Step-4.wav","49","","","","","AU","resources/audio/wordStim/S9_AU_11_bxa_Step-4.wav","S9","11","bxa","4","CN","1","1","true"
"null","","fixation","html-keyboard-response","42","235303","0.0-8.0-0.8","5e9b443223881d04be740737","condA","","<div class=""vertical-center"" style='width:60%;'><p style='font-weight:bold;'>Does the middle word sound more like the first word (A) or the last word (B)?</p> <br> <div class=""container""> <div id=""a-box""> <p class=""title-text"">A</h3></p> </div> <div id=""x-box""> <p class=""title-text"">X<p> </div> <div id=""b-box""> <p class=""title-text"">B</p></div> <br> <div style='float: left;padding-left:30px;'><p>Press '1' for A</p></div><div style='float: right;padding-right:30px;'><p>Press '0' for B</p> </div> </div></div>","null","","","","","","","","","","","","","",""
"5099","","test","audio-keyboard-response","43","240413","0.0-8.0-1.8","5e9b443223881d04be740737","condA","","resources/audio/wordStim/S3_AI_25_axb_Step-10.wav","49","","","","","AI","resources/audio/wordStim/S3_AI_25_axb_Step-10.wav","S3","25","axb","10","MI","0","1","false"
"null","","fixation","html-keyboard-response","44","241415","0.0-8.0-0.9","5e9b443223881d04be740737","condA","","<div class=""vertical-center"" style='width:60%;'><p style='font-weight:bold;'>Does the middle word sound more like the first word (A) or the last word (B)?</p> <br> <div class=""container""> <div id=""a-box""> <p class=""title-text"">A</h3></p> </div> <div id=""x-box""> <p class=""title-text"">X<p> </div> <div id=""b-box""> <p class=""title-text"">B</p></div> <br> <div style='float: left;padding-left:30px;'><p>Press '1' for A</p></div><div style='float: right;padding-right:30px;'><p>Press '0' for B</p> </div> </div></div>","null","","","","","","","","","","","","","",""
"3989","","test","audio-keyboard-response","45","245413","0.0-8.0-1.9","5e9b443223881d04be740737","condA","","resources/audio/wordStim/S3_AU_11_bxa_Step-8.wav","49","","","","","AU","resources/audio/wordStim/S3_AU_11_bxa_Step-8.wav","S3","11","bxa","8","MI","1","1","true"
"null","","fixation","html-keyboard-response","46","246415","0.0-8.0-0.10","5e9b443223881d04be740737","condA","","<div class=""vertical-center"" style='width:60%;'><p style='font-weight:bold;'>Does the middle word sound more like the first word (A) or the last word (B)?</p> <br> <div class=""container""> <div id=""a-box""> <p class=""title-text"">A</h3></p> </div> <div id=""x-box""> <p class=""title-text"">X<p> </div> <div id=""b-box""> <p class=""title-text"">B</p></div> <br> <div style='float: left;padding-left:30px;'><p>Press '1' for A</p></div><div style='float: right;padding-right:30px;'><p>Press '0' for B</p> </div> </div></div>","null","","","","","","","","","","","","","",""
"3229","","test","audio-keyboard-response","47","249645","0.0-8.0-1.10","5e9b443223881d04be740737","condA","","resources/audio/wordStim/S9_AI_27_bxa_Step-2.wav","48","","","","","AI","resources/audio/wordStim/S9_AI_27_bxa_Step-2.wav","S9","27","bxa","2","CN","1","0","false"
"null","","fixation","html-keyboard-response","48","250648","0.0-8.0-0.11","5e9b443223881d04be740737","condA","","<div class=""vertical-center"" style='width:60%;'><p style='font-weight:bold;'>Does the middle word sound more like the first word (A) or the last word (B)?</p> <br> <div class=""container""> <div id=""a-box""> <p class=""title-text"">A</h3></p> </div> <div id=""x-box""> <p class=""title-text"">X<p> </div> <div id=""b-box""> <p class=""title-text"">B</p></div> <br> <div style='float: left;padding-left:30px;'><p>Press '1' for A</p></div><div style='float: right;padding-right:30px;'><p>Press '0' for B</p> </div> </div></div>","null","","","","","","","","","","","","","",""
"4011","","test","audio-keyboard-response","49","254661","0.0-8.0-1.11","5e9b443223881d04be740737","condA","","resources/audio/wordStim/S3_AU_17_axb_Step-3.wav","48","","","","","AU","resources/audio/wordStim/S3_AU_17_axb_Step-3.wav","S3","17","axb","3","MI","0","0","true"
"null","","fixation","html-keyboard-response","50","255663","0.0-8.0-0.12","5e9b443223881d04be740737","condA","","<div class=""vertical-center"" style='width:60%;'><p style='font-weight:bold;'>Does the middle word sound more like the first word (A) or the last word (B)?</p> <br> <div class=""container""> <div id=""a-box""> <p class=""title-text"">A</h3></p> </div> <div id=""x-box""> <p class=""title-text"">X<p> </div> <div id=""b-box""> <p class=""title-text"">B</p></div> <br> <div style='float: left;padding-left:30px;'><p>Press '1' for A</p></div><div style='float: right;padding-right:30px;'><p>Press '0' for B</p> </div> </div></div>","null","","","","","","","","","","","","","",""
"4549","","test","audio-keyboard-response","51","260221","0.0-8.0-1.12","5e9b443223881d04be740737","condA","","resources/audio/wordStim/S3_AU_11_bxa_Step-4.wav","49","","","","","AU","resources/audio/wordStim/S3_AU_11_bxa_Step-4.wav","S3","11","bxa","4","MI","1","1","true"
"null","","fixation","html-keyboard-response","52","261224","0.0-8.0-0.13","5e9b443223881d04be740737","condA","","<div class=""vertical-center"" style='width:60%;'><p style='font-weight:bold;'>Does the middle word sound more like the first word (A) or the last word (B)?</p> <br> <div class=""container""> <div id=""a-box""> <p class=""title-text"">A</h3></p> </div> <div id=""x-box""> <p class=""title-text"">X<p> </div> <div id=""b-box""> <p class=""title-text"">B</p></div> <br> <div style='float: left;padding-left:30px;'><p>Press '1' for A</p></div><div style='float: right;padding-right:30px;'><p>Press '0' for B</p> </div> </div></div>","null","","","","","","","","","","","","","",""
"4509","","test","audio-keyboard-response","53","265741","0.0-8.0-1.13","5e9b443223881d04be740737","condA","","resources/audio/wordStim/S3_AU_16_bxa_Step-4.wav","49","","","","","AU","resources/audio/wordStim/S3_AU_16_bxa_Step-4.wav","S3","16","bxa","4","MI","1","1","true"
"null","","fixation","html-keyboard-response","54","266743","0.0-8.0-0.14","5e9b443223881d04be740737","condA","","<div class=""vertical-center"" style='width:60%;'><p style='font-weight:bold;'>Does the middle word sound more like the first word (A) or the last word (B)?</p> <br> <div class=""container""> <div id=""a-box""> <p class=""title-text"">A</h3></p> </div> <div id=""x-box""> <p class=""title-text"">X<p> </div> <div id=""b-box""> <p class=""title-text"">B</p></div> <br> <div style='float: left;padding-left:30px;'><p>Press '1' for A</p></div><div style='float: right;padding-right:30px;'><p>Press '0' for B</p> </div> </div></div>","null","","","","","","","","","","","","","",""
"3819","","test","audio-keyboard-response","55","270565","0.0-8.0-1.14","5e9b443223881d04be740737","condA","","resources/audio/wordStim/S3_AU_16_axb_Step-7.wav","49","","","","","AU","resources/audio/wordStim/S3_AU_16_axb_Step-7.wav","S3","16","axb","7","MI","0","1","false"
"null","","fixation","html-keyboard-response","56","271567","0.0-8.0-0.15","5e9b443223881d04be740737","condA","","<div class=""vertical-center"" style='width:60%;'><p style='font-weight:bold;'>Does the middle word sound more like the first word (A) or the last word (B)?</p> <br> <div class=""container""> <div id=""a-box""> <p class=""title-text"">A</h3></p> </div> <div id=""x-box""> <p class=""title-text"">X<p> </div> <div id=""b-box""> <p class=""title-text"">B</p></div> <br> <div style='float: left;padding-left:30px;'><p>Press '1' for A</p></div><div style='float: right;padding-right:30px;'><p>Press '0' for B</p> </div> </div></div>","null","","","","","","","","","","","","","",""
"2851","","test","audio-keyboard-response","57","274421","0.0-8.0-1.15","5e9b443223881d04be740737","condA","","resources/audio/wordStim/S3_AU_19_axb_Step-10.wav","48","","","","","AU","resources/audio/wordStim/S3_AU_19_axb_Step-10.wav","S3","19","axb","10","MI","0","0","true"
"null","","fixation","html-keyboard-response","58","275422","0.0-8.0-0.16","5e9b443223881d04be740737","condA","","<div class=""vertical-center"" style='width:60%;'><p style='font-weight:bold;'>Does the middle word sound more like the first word (A) or the last word (B)?</p> <br> <div class=""container""> <div id=""a-box""> <p class=""title-text"">A</h3></p> </div> <div id=""x-box""> <p class=""title-text"">X<p> </div> <div id=""b-box""> <p class=""title-text"">B</p></div> <br> <div style='float: left;padding-left:30px;'><p>Press '1' for A</p></div><div style='float: right;padding-right:30px;'><p>Press '0' for B</p> </div> </div></div>","null","","","","","","","","","","","","","",""
"3971","","test","audio-keyboard-response","59","279397","0.0-8.0-1.16","5e9b443223881d04be740737","condA","","resources/audio/wordStim/S3_AI_28_bxa_Step-2.wav","49","","","","","AI","resources/audio/wordStim/S3_AI_28_bxa_Step-2.wav","S3","28","bxa","2","MI","1","1","true"
"null","","fixation","html-keyboard-response","60","280399","0.0-8.0-0.17","5e9b443223881d04be740737","condA","","<div class=""vertical-center"" style='width:60%;'><p style='font-weight:bold;'>Does the middle word sound more like the first word (A) or the last word (B)?</p> <br> <div class=""container""> <div id=""a-box""> <p class=""title-text"">A</h3></p> </div> <div id=""x-box""> <p class=""title-text"">X<p> </div> <div id=""b-box""> <p class=""title-text"">B</p></div> <br> <div style='float: left;padding-left:30px;'><p>Press '1' for A</p></div><div style='float: right;padding-right:30px;'><p>Press '0' for B</p> </div> </div></div>","null","","","","","","","","","","","","","",""
"4248","","test","audio-keyboard-response","61","284653","0.0-8.0-1.17","5e9b443223881d04be740737","condA","","resources/audio/wordStim/S3_AI_25_bxa_Step-6.wav","49","","","","","AI","resources/audio/wordStim/S3_AI_25_bxa_Step-6.wav","S3","25","bxa","6","MI","1","1","true"
"null","","fixation","html-keyboard-response","62","285656","0.0-8.0-0.18","5e9b443223881d04be740737","condA","","<div class=""vertical-center"" style='width:60%;'><p style='font-weight:bold;'>Does the middle word sound more like the first word (A) or the last word (B)?</p> <br> <div class=""container""> <div id=""a-box""> <p class=""title-text"">A</h3></p> </div> <div id=""x-box""> <p class=""title-text"">X<p> </div> <div id=""b-box""> <p class=""title-text"">B</p></div> <br> <div style='float: left;padding-left:30px;'><p>Press '1' for A</p></div><div style='float: right;padding-right:30px;'><p>Press '0' for B</p> </div> </div></div>","null","","","","","","","","","","","","","",""
"2909","","test","audio-keyboard-response","63","288573","0.0-8.0-1.18","5e9b443223881d04be740737","condA","","resources/audio/wordStim/S9_AU_19_bxa_Step-2.wav","48","","","","","AU","resources/audio/wordStim/S9_AU_19_bxa_Step-2.wav","S9","19","bxa","2","CN","1","0","false"
"null","","fixation","html-keyboard-response","64","289575","0.0-8.0-0.19","5e9b443223881d04be740737","condA","","<div class=""vertical-center"" style='width:60%;'><p style='font-weight:bold;'>Does the middle word sound more like the first word (A) or the last word (B)?</p> <br> <div class=""container""> <div id=""a-box""> <p class=""title-text"">A</h3></p> </div> <div id=""x-box""> <p class=""title-text"">X<p> </div> <div id=""b-box""> <p class=""title-text"">B</p></div> <br> <div style='float: left;padding-left:30px;'><p>Press '1' for A</p></div><div style='float: right;padding-right:30px;'><p>Press '0' for B</p> </div> </div></div>","null","","","","","","","","","","","","","",""
"4029","","test","audio-keyboard-response","65","293605","0.0-8.0-1.19","5e9b443223881d04be740737","condA","","resources/audio/wordStim/S3_AI_23_bxa_Step-6.wav","48","","","","","AI","resources/audio/wordStim/S3_AI_23_bxa_Step-6.wav","S3","23","bxa","6","MI","1","0","false"
"null","","fixation","html-keyboard-response","66","294608","0.0-8.0-0.20","5e9b443223881d04be740737","condA","","<div class=""vertical-center"" style='width:60%;'><p style='font-weight:bold;'>Does the middle word sound more like the first word (A) or the last word (B)?</p> <br> <div class=""container""> <div id=""a-box""> <p class=""title-text"">A</h3></p> </div> <div id=""x-box""> <p class=""title-text"">X<p> </div> <div id=""b-box""> <p class=""title-text"">B</p></div> <br> <div style='float: left;padding-left:30px;'><p>Press '1' for A</p></div><div style='float: right;padding-right:30px;'><p>Press '0' for B</p> </div> </div></div>","null","","","","","","","","","","","","","",""
"2981","","test","audio-keyboard-response","67","297589","0.0-8.0-1.20","5e9b443223881d04be740737","condA","","resources/audio/wordStim/S3_AU_14_axb_Step-7.wav","49","","","","","AU","resources/audio/wordStim/S3_AU_14_axb_Step-7.wav","S3","14","axb","7","MI","0","1","false"
"null","","fixation","html-keyboard-response","68","298590","0.0-8.0-0.21","5e9b443223881d04be740737","condA","","<div class=""vertical-center"" style='width:60%;'><p style='font-weight:bold;'>Does the middle word sound more like the first word (A) or the last word (B)?</p> <br> <div class=""container""> <div id=""a-box""> <p class=""title-text"">A</h3></p> </div> <div id=""x-box""> <p class=""title-text"">X<p> </div> <div id=""b-box""> <p class=""title-text"">B</p></div> <br> <div style='float: left;padding-left:30px;'><p>Press '1' for A</p></div><div style='float: right;padding-right:30px;'><p>Press '0' for B</p> </div> </div></div>","null","","","","","","","","","","","","","",""
"2699","","test","audio-keyboard-response","69","301293","0.0-8.0-1.21","5e9b443223881d04be740737","condA","","resources/audio/wordStim/S3_AU_15_bxa_Step-2.wav","48","","","","","AU","resources/audio/wordStim/S3_AU_15_bxa_Step-2.wav","S3","15","bxa","2","MI","1","0","false"
"null","","fixation","html-keyboard-response","70","302295","0.0-8.0-0.22","5e9b443223881d04be740737","condA","","<div class=""vertical-center"" style='width:60%;'><p style='font-weight:bold;'>Does the middle word sound more like the first word (A) or the last word (B)?</p> <br> <div class=""container""> <div id=""a-box""> <p class=""title-text"">A</h3></p> </div> <div id=""x-box""> <p class=""title-text"">X<p> </div> <div id=""b-box""> <p class=""title-text"">B</p></div> <br> <div style='float: left;padding-left:30px;'><p>Press '1' for A</p></div><div style='float: right;padding-right:30px;'><p>Press '0' for B</p> </div> </div></div>","null","","","","","","","","","","","","","",""
"3589","","test","audio-keyboard-response","71","305885","0.0-8.0-1.22","5e9b443223881d04be740737","condA","","resources/audio/wordStim/S3_AU_19_axb_Step-5.wav","49","","","","","AU","resources/audio/wordStim/S3_AU_19_axb_Step-5.wav","S3","19","axb","5","MI","0","1","false"
"null","","fixation","html-keyboard-response","72","306887","0.0-8.0-0.23","5e9b443223881d04be740737","condA","","<div class=""vertical-center"" style='width:60%;'><p style='font-weight:bold;'>Does the middle word sound more like the first word (A) or the last word (B)?</p> <br> <div class=""container""> <div id=""a-box""> <p class=""title-text"">A</h3></p> </div> <div id=""x-box""> <p class=""title-text"">X<p> </div> <div id=""b-box""> <p class=""title-text"">B</p></div> <br> <div style='float: left;padding-left:30px;'><p>Press '1' for A</p></div><div style='float: right;padding-right:30px;'><p>Press '0' for B</p> </div> </div></div>","null","","","","","","","","","","","","","",""
"4341","","test","audio-keyboard-response","73","311229","0.0-8.0-1.23","5e9b443223881d04be740737","condA","","resources/audio/wordStim/S3_AU_14_bxa_Step-4.wav","48","","","","","AU","resources/audio/wordStim/S3_AU_14_bxa_Step-4.wav","S3","14","bxa","4","MI","1","0","false"
"null","","fixation","html-keyboard-response","74","312230","0.0-8.0-0.24","5e9b443223881d04be740737","condA","","<div class=""vertical-center"" style='width:60%;'><p style='font-weight:bold;'>Does the middle word sound more like the first word (A) or the last word (B)?</p> <br> <div class=""container""> <div id=""a-box""> <p class=""title-text"">A</h3></p> </div> <div id=""x-box""> <p class=""title-text"">X<p> </div> <div id=""b-box""> <p class=""title-text"">B</p></div> <br> <div style='float: left;padding-left:30px;'><p>Press '1' for A</p></div><div style='float: right;padding-right:30px;'><p>Press '0' for B</p> </div> </div></div>","null","","","","","","","","","","","","","",""
"5579","","test","audio-keyboard-response","75","317813","0.0-8.0-1.24","5e9b443223881d04be740737","condA","","resources/audio/wordStim/S9_AI_22_axb_Step-9.wav","49","","","","","AI","resources/audio/wordStim/S9_AI_22_axb_Step-9.wav","S9","22","axb","9","CN","0","1","false"
"null","","fixation","html-keyboard-response","76","318814","0.0-8.0-0.25","5e9b443223881d04be740737","condA","","<div class=""vertical-center"" style='width:60%;'><p style='font-weight:bold;'>Does the middle word sound more like the first word (A) or the last word (B)?</p> <br> <div class=""container""> <div id=""a-box""> <p class=""title-text"">A</h3></p> </div> <div id=""x-box""> <p class=""title-text"">X<p> </div> <div id=""b-box""> <p class=""title-text"">B</p></div> <br> <div style='float: left;padding-left:30px;'><p>Press '1' for A</p></div><div style='float: right;padding-right:30px;'><p>Press '0' for B</p> </div> </div></div>","null","","","","","","","","","","","","","",""
"3949","","test","audio-keyboard-response","77","322773","0.0-8.0-1.25","5e9b443223881d04be740737","condA","","resources/audio/wordStim/S3_AI_30_bxa_Step-2.wav","49","","","","","AI","resources/audio/wordStim/S3_AI_30_bxa_Step-2.wav","S3","30","bxa","2","MI","1","1","true"
"null","","fixation","html-keyboard-response","78","323775","0.0-8.0-0.26","5e9b443223881d04be740737","condA","","<div class=""vertical-center"" style='width:60%;'><p style='font-weight:bold;'>Does the middle word sound more like the first word (A) or the last word (B)?</p> <br> <div class=""container""> <div id=""a-box""> <p class=""title-text"">A</h3></p> </div> <div id=""x-box""> <p class=""title-text"">X<p> </div> <div id=""b-box""> <p class=""title-text"">B</p></div> <br> <div style='float: left;padding-left:30px;'><p>Press '1' for A</p></div><div style='float: right;padding-right:30px;'><p>Press '0' for B</p> </div> </div></div>","null","","","","","","","","","","","","","",""
"3520","","test","audio-keyboard-response","79","327301","0.0-8.0-1.26","5e9b443223881d04be740737","condA","","resources/audio/wordStim/S9_AU_18_axb_Step-7.wav","49","","","","","AU","resources/audio/wordStim/S9_AU_18_axb_Step-7.wav","S9","18","axb","7","CN","0","1","false"
"9474.685000001045","","break","html-keyboard-response","80","337277","0.0-8.0-2.26-0.26","5e9b443223881d04be740737","condA","","<div class=""vertical-center""><p>Feel free to take a break!</p><i>When you're ready to continue, press SPACE to begin the next trial.</i></p></div>","32","","","","","","","","","","","","","",""
"null","","fixation","html-keyboard-response","81","337778","0.0-8.0-0.27","5e9b443223881d04be740737","condA","","<div class=""vertical-center"" style='width:60%;'><p style='font-weight:bold;'>Does the middle word sound more like the first word (A) or the last word (B)?</p> <br> <div class=""container""> <div id=""a-box""> <p class=""title-text"">A</h3></p> </div> <div id=""x-box""> <p class=""title-text"">X<p> </div> <div id=""b-box""> <p class=""title-text"">B</p></div> <br> <div style='float: left;padding-left:30px;'><p>Press '1' for A</p></div><div style='float: right;padding-right:30px;'><p>Press '0' for B</p> </div> </div></div>","null","","","","","","","","","","","","","",""
"5429","","test","audio-keyboard-response","82","343213","0.0-8.0-1.27","5e9b443223881d04be740737","condA","","resources/audio/wordStim/S9_AI_22_bxa_Step-2.wav","49","","","","","AI","resources/audio/wordStim/S9_AI_22_bxa_Step-2.wav","S9","22","bxa","2","CN","1","1","true"
"null","","fixation","html-keyboard-response","83","344214","0.0-8.0-0.28","5e9b443223881d04be740737","condA","","<div class=""vertical-center"" style='width:60%;'><p style='font-weight:bold;'>Does the middle word sound more like the first word (A) or the last word (B)?</p> <br> <div class=""container""> <div id=""a-box""> <p class=""title-text"">A</h3></p> </div> <div id=""x-box""> <p class=""title-text"">X<p> </div> <div id=""b-box""> <p class=""title-text"">B</p></div> <br> <div style='float: left;padding-left:30px;'><p>Press '1' for A</p></div><div style='float: right;padding-right:30px;'><p>Press '0' for B</p> </div> </div></div>","null","","","","","","","","","","","","","",""
"3909","","test","audio-keyboard-response","84","348133","0.0-8.0-1.28","5e9b443223881d04be740737","condA","","resources/audio/wordStim/S9_AU_13_bxa_Step-6.wav","49","","","","","AU","resources/audio/wordStim/S9_AU_13_bxa_Step-6.wav","S9","13","bxa","6","CN","1","1","true"
"null","","fixation","html-keyboard-response","85","349135","0.0-8.0-0.29","5e9b443223881d04be740737","condA","","<div class=""vertical-center"" style='width:60%;'><p style='font-weight:bold;'>Does the middle word sound more like the first word (A) or the last word (B)?</p> <br> <div class=""container""> <div id=""a-box""> <p class=""title-text"">A</h3></p> </div> <div id=""x-box""> <p class=""title-text"">X<p> </div> <div id=""b-box""> <p class=""title-text"">B</p></div> <br> <div style='float: left;padding-left:30px;'><p>Press '1' for A</p></div><div style='float: right;padding-right:30px;'><p>Press '0' for B</p> </div> </div></div>","null","","","","","","","","","","","","","",""
"4269","","test","audio-keyboard-response","86","353404","0.0-8.0-1.29","5e9b443223881d04be740737","condA","","resources/audio/wordStim/S3_AI_25_axb_Step-7.wav","48","","","","","AI","resources/audio/wordStim/S3_AI_25_axb_Step-7.wav","S3","25","axb","7","MI","0","0","true"
"null","","fixation","html-keyboard-response","87","354406","0.0-8.0-0.30","5e9b443223881d04be740737","condA","","<div class=""vertical-center"" style='width:60%;'><p style='font-weight:bold;'>Does the middle word sound more like the first word (A) or the last word (B)?</p> <br> <div class=""container""> <div id=""a-box""> <p class=""title-text"">A</h3></p> </div> <div id=""x-box""> <p class=""title-text"">X<p> </div> <div id=""b-box""> <p class=""title-text"">B</p></div> <br> <div style='float: left;padding-left:30px;'><p>Press '1' for A</p></div><div style='float: right;padding-right:30px;'><p>Press '0' for B</p> </div> </div></div>","null","","","","","","","","","","","","","",""
"3171","","test","audio-keyboard-response","88","357581","0.0-8.0-1.30","5e9b443223881d04be740737","condA","","resources/audio/wordStim/S9_AI_29_axb_Step-9.wav","48","","","","","AI","resources/audio/wordStim/S9_AI_29_axb_Step-9.wav","S9","29","axb","9","CN","0","0","true"
"null","","fixation","html-keyboard-response","89","358583","0.0-8.0-0.31","5e9b443223881d04be740737","condA","","<div class=""vertical-center"" style='width:60%;'><p style='font-weight:bold;'>Does the middle word sound more like the first word (A) or the last word (B)?</p> <br> <div class=""container""> <div id=""a-box""> <p class=""title-text"">A</h3></p> </div> <div id=""x-box""> <p class=""title-text"">X<p> </div> <div id=""b-box""> <p class=""title-text"">B</p></div> <br> <div style='float: left;padding-left:30px;'><p>Press '1' for A</p></div><div style='float: right;padding-right:30px;'><p>Press '0' for B</p> </div> </div></div>","null","","","","","","","","","","","","","",""
"2979","","test","audio-keyboard-response","90","361573","0.0-8.0-1.31","5e9b443223881d04be740737","condA","","resources/audio/wordStim/S3_AU_19_bxa_Step-8.wav","49","","","","","AU","resources/audio/wordStim/S3_AU_19_bxa_Step-8.wav","S3","19","bxa","8","MI","1","1","true"
"null","","fixation","html-keyboard-response","91","362576","0.0-8.0-0.32","5e9b443223881d04be740737","condA","","<div class=""vertical-center"" style='width:60%;'><p style='font-weight:bold;'>Does the middle word sound more like the first word (A) or the last word (B)?</p> <br> <div class=""container""> <div id=""a-box""> <p class=""title-text"">A</h3></p> </div> <div id=""x-box""> <p class=""title-text"">X<p> </div> <div id=""b-box""> <p class=""title-text"">B</p></div> <br> <div style='float: left;padding-left:30px;'><p>Press '1' for A</p></div><div style='float: right;padding-right:30px;'><p>Press '0' for B</p> </div> </div></div>","null","","","","","","","","","","","","","",""
"4811","","test","audio-keyboard-response","92","367389","0.0-8.0-1.32","5e9b443223881d04be740737","condA","","resources/audio/wordStim/S3_AI_28_axb_Step-3.wav","48","","","","","AI","resources/audio/wordStim/S3_AI_28_axb_Step-3.wav","S3","28","axb","3","MI","0","0","true"
"null","","fixation","html-keyboard-response","93","368391","0.0-8.0-0.33","5e9b443223881d04be740737","condA","","<div class=""vertical-center"" style='width:60%;'><p style='font-weight:bold;'>Does the middle word sound more like the first word (A) or the last word (B)?</p> <br> <div class=""container""> <div id=""a-box""> <p class=""title-text"">A</h3></p> </div> <div id=""x-box""> <p class=""title-text"">X<p> </div> <div id=""b-box""> <p class=""title-text"">B</p></div> <br> <div style='float: left;padding-left:30px;'><p>Press '1' for A</p></div><div style='float: right;padding-right:30px;'><p>Press '0' for B</p> </div> </div></div>","null","","","","","","","","","","","","","",""
"2880","","test","audio-keyboard-response","94","371269","0.0-8.0-1.33","5e9b443223881d04be740737","condA","","resources/audio/wordStim/S9_AU_16_bxa_Step-8.wav","49","","","","","AU","resources/audio/wordStim/S9_AU_16_bxa_Step-8.wav","S9","16","bxa","8","CN","1","1","true"
"null","","fixation","html-keyboard-response","95","372270","0.0-8.0-0.34","5e9b443223881d04be740737","condA","","<div class=""vertical-center"" style='width:60%;'><p style='font-weight:bold;'>Does the middle word sound more like the first word (A) or the last word (B)?</p> <br> <div class=""container""> <div id=""a-box""> <p class=""title-text"">A</h3></p> </div> <div id=""x-box""> <p class=""title-text"">X<p> </div> <div id=""b-box""> <p class=""title-text"">B</p></div> <br> <div style='float: left;padding-left:30px;'><p>Press '1' for A</p></div><div style='float: right;padding-right:30px;'><p>Press '0' for B</p> </div> </div></div>","null","","","","","","","","","","","","","",""
"2989","","test","audio-keyboard-response","96","375261","0.0-8.0-1.34","5e9b443223881d04be740737","condA","","resources/audio/wordStim/S3_AI_28_axb_Step-9.wav","48","","","","","AI","resources/audio/wordStim/S3_AI_28_axb_Step-9.wav","S3","28","axb","9","MI","0","0","true"
"null","","fixation","html-keyboard-response","97","376262","0.0-8.0-0.35","5e9b443223881d04be740737","condA","","<div class=""vertical-center"" style='width:60%;'><p style='font-weight:bold;'>Does the middle word sound more like the first word (A) or the last word (B)?</p> <br> <div class=""container""> <div id=""a-box""> <p class=""title-text"">A</h3></p> </div> <div id=""x-box""> <p class=""title-text"">X<p> </div> <div id=""b-box""> <p class=""title-text"">B</p></div> <br> <div style='float: left;padding-left:30px;'><p>Press '1' for A</p></div><div style='float: right;padding-right:30px;'><p>Press '0' for B</p> </div> </div></div>","null","","","","","","","","","","","","","",""
"3051","","test","audio-keyboard-response","98","379309","0.0-8.0-1.35","5e9b443223881d04be740737","condA","","resources/audio/wordStim/S9_AU_14_bxa_Step-2.wav","48","","","","","AU","resources/audio/wordStim/S9_AU_14_bxa_Step-2.wav","S9","14","bxa","2","CN","1","0","false"
"null","","fixation","html-keyboard-response","99","380310","0.0-8.0-0.36","5e9b443223881d04be740737","condA","","<div class=""vertical-center"" style='width:60%;'><p style='font-weight:bold;'>Does the middle word sound more like the first word (A) or the last word (B)?</p> <br> <div class=""container""> <div id=""a-box""> <p class=""title-text"">A</h3></p> </div> <div id=""x-box""> <p class=""title-text"">X<p> </div> <div id=""b-box""> <p class=""title-text"">B</p></div> <br> <div style='float: left;padding-left:30px;'><p>Press '1' for A</p></div><div style='float: right;padding-right:30px;'><p>Press '0' for B</p> </div> </div></div>","null","","","","","","","","","","","","","",""
"3059","","test","audio-keyboard-response","100","383373","0.0-8.0-1.36","5e9b443223881d04be740737","condA","","resources/audio/wordStim/S9_AU_20_bxa_Step-6.wav","48","","","","","AU","resources/audio/wordStim/S9_AU_20_bxa_Step-6.wav","S9","20","bxa","6","CN","1","0","false"
"null","","fixation","html-keyboard-response","101","384374","0.0-8.0-0.37","5e9b443223881d04be740737","condA","","<div class=""vertical-center"" style='width:60%;'><p style='font-weight:bold;'>Does the middle word sound more like the first word (A) or the last word (B)?</p> <br> <div class=""container""> <div id=""a-box""> <p class=""title-text"">A</h3></p> </div> <div id=""x-box""> <p class=""title-text"">X<p> </div> <div id=""b-box""> <p class=""title-text"">B</p></div> <br> <div style='float: left;padding-left:30px;'><p>Press '1' for A</p></div><div style='float: right;padding-right:30px;'><p>Press '0' for B</p> </div> </div></div>","null","","","","","","","","","","","","","",""
"3509","","test","audio-keyboard-response","102","387885","0.0-8.0-1.37","5e9b443223881d04be740737","condA","","resources/audio/wordStim/S9_AU_13_axb_Step-9.wav","49","","","","","AU","resources/audio/wordStim/S9_AU_13_axb_Step-9.wav","S9","13","axb","9","CN","0","1","false"
"null","","fixation","html-keyboard-response","103","388888","0.0-8.0-0.38","5e9b443223881d04be740737","condA","","<div class=""vertical-center"" style='width:60%;'><p style='font-weight:bold;'>Does the middle word sound more like the first word (A) or the last word (B)?</p> <br> <div class=""container""> <div id=""a-box""> <p class=""title-text"">A</h3></p> </div> <div id=""x-box""> <p class=""title-text"">X<p> </div> <div id=""b-box""> <p class=""title-text"">B</p></div> <br> <div style='float: left;padding-left:30px;'><p>Press '1' for A</p></div><div style='float: right;padding-right:30px;'><p>Press '0' for B</p> </div> </div></div>","null","","","","","","","","","","","","","",""
"3341","","test","audio-keyboard-response","104","392229","0.0-8.0-1.38","5e9b443223881d04be740737","condA","","resources/audio/wordStim/S9_AI_27_bxa_Step-6.wav","48","","","","","AI","resources/audio/wordStim/S9_AI_27_bxa_Step-6.wav","S9","27","bxa","6","CN","1","0","false"
"null","","fixation","html-keyboard-response","105","393230","0.0-8.0-0.39","5e9b443223881d04be740737","condA","","<div class=""vertical-center"" style='width:60%;'><p style='font-weight:bold;'>Does the middle word sound more like the first word (A) or the last word (B)?</p> <br> <div class=""container""> <div id=""a-box""> <p class=""title-text"">A</h3></p> </div> <div id=""x-box""> <p class=""title-text"">X<p> </div> <div id=""b-box""> <p class=""title-text"">B</p></div> <br> <div style='float: left;padding-left:30px;'><p>Press '1' for A</p></div><div style='float: right;padding-right:30px;'><p>Press '0' for B</p> </div> </div></div>","null","","","","","","","","","","","","","",""
"2840","","test","audio-keyboard-response","106","396069","0.0-8.0-1.39","5e9b443223881d04be740737","condA","","resources/audio/wordStim/S3_AU_14_axb_Step-5.wav","49","","","","","AU","resources/audio/wordStim/S3_AU_14_axb_Step-5.wav","S3","14","axb","5","MI","0","1","false"
"null","","fixation","html-keyboard-response","107","397070","0.0-8.0-0.40","5e9b443223881d04be740737","condA","","<div class=""vertical-center"" style='width:60%;'><p style='font-weight:bold;'>Does the middle word sound more like the first word (A) or the last word (B)?</p> <br> <div class=""container""> <div id=""a-box""> <p class=""title-text"">A</h3></p> </div> <div id=""x-box""> <p class=""title-text"">X<p> </div> <div id=""b-box""> <p class=""title-text"">B</p></div> <br> <div style='float: left;padding-left:30px;'><p>Press '1' for A</p></div><div style='float: right;padding-right:30px;'><p>Press '0' for B</p> </div> </div></div>","null","","","","","","","","","","","","","",""
"2909","","test","audio-keyboard-response","108","399981","0.0-8.0-1.40","5e9b443223881d04be740737","condA","","resources/audio/wordStim/S9_AU_17_bxa_Step-8.wav","49","","","","","AU","resources/audio/wordStim/S9_AU_17_bxa_Step-8.wav","S9","17","bxa","8","CN","1","1","true"
"null","","fixation","html-keyboard-response","109","400982","0.0-8.0-0.41","5e9b443223881d04be740737","condA","","<div class=""vertical-center"" style='width:60%;'><p style='font-weight:bold;'>Does the middle word sound more like the first word (A) or the last word (B)?</p> <br> <div class=""container""> <div id=""a-box""> <p class=""title-text"">A</h3></p> </div> <div id=""x-box""> <p class=""title-text"">X<p> </div> <div id=""b-box""> <p class=""title-text"">B</p></div> <br> <div style='float: left;padding-left:30px;'><p>Press '1' for A</p></div><div style='float: right;padding-right:30px;'><p>Press '0' for B</p> </div> </div></div>","null","","","","","","","","","","","","","",""
"3179","","test","audio-keyboard-response","110","404173","0.0-8.0-1.41","5e9b443223881d04be740737","condA","","resources/audio/wordStim/S3_AI_22_bxa_Step-8.wav","49","","","","","AI","resources/audio/wordStim/S3_AI_22_bxa_Step-8.wav","S3","22","bxa","8","MI","1","1","true"
"null","","fixation","html-keyboard-response","111","405175","0.0-8.0-0.42","5e9b443223881d04be740737","condA","","<div class=""vertical-center"" style='width:60%;'><p style='font-weight:bold;'>Does the middle word sound more like the first word (A) or the last word (B)?</p> <br> <div class=""container""> <div id=""a-box""> <p class=""title-text"">A</h3></p> </div> <div id=""x-box""> <p class=""title-text"">X<p> </div> <div id=""b-box""> <p class=""title-text"">B</p></div> <br> <div style='float: left;padding-left:30px;'><p>Press '1' for A</p></div><div style='float: right;padding-right:30px;'><p>Press '0' for B</p> </div> </div></div>","null","","","","","","","","","","","","","",""
"3669","","test","audio-keyboard-response","112","408844","0.0-8.0-1.42","5e9b443223881d04be740737","condA","","resources/audio/wordStim/S9_AU_14_axb_Step-7.wav","49","","","","","AU","resources/audio/wordStim/S9_AU_14_axb_Step-7.wav","S9","14","axb","7","CN","0","1","false"
"null","","fixation","html-keyboard-response","113","409846","0.0-8.0-0.43","5e9b443223881d04be740737","condA","","<div class=""vertical-center"" style='width:60%;'><p style='font-weight:bold;'>Does the middle word sound more like the first word (A) or the last word (B)?</p> <br> <div class=""container""> <div id=""a-box""> <p class=""title-text"">A</h3></p> </div> <div id=""x-box""> <p class=""title-text"">X<p> </div> <div id=""b-box""> <p class=""title-text"">B</p></div> <br> <div style='float: left;padding-left:30px;'><p>Press '1' for A</p></div><div style='float: right;padding-right:30px;'><p>Press '0' for B</p> </div> </div></div>","null","","","","","","","","","","","","","",""
"2920","","test","audio-keyboard-response","114","412765","0.0-8.0-1.43","5e9b443223881d04be740737","condA","","resources/audio/wordStim/S3_AU_20_bxa_Step-6.wav","49","","","","","AU","resources/audio/wordStim/S3_AU_20_bxa_Step-6.wav","S3","20","bxa","6","MI","1","1","true"
"null","","fixation","html-keyboard-response","115","413766","0.0-8.0-0.44","5e9b443223881d04be740737","condA","","<div class=""vertical-center"" style='width:60%;'><p style='font-weight:bold;'>Does the middle word sound more like the first word (A) or the last word (B)?</p> <br> <div class=""container""> <div id=""a-box""> <p class=""title-text"">A</h3></p> </div> <div id=""x-box""> <p class=""title-text"">X<p> </div> <div id=""b-box""> <p class=""title-text"">B</p></div> <br> <div style='float: left;padding-left:30px;'><p>Press '1' for A</p></div><div style='float: right;padding-right:30px;'><p>Press '0' for B</p> </div> </div></div>","null","","","","","","","","","","","","","",""
"3131","","test","audio-keyboard-response","116","416901","0.0-8.0-1.44","5e9b443223881d04be740737","condA","","resources/audio/wordStim/S9_AU_20_axb_Step-3.wav","49","","","","","AU","resources/audio/wordStim/S9_AU_20_axb_Step-3.wav","S9","20","axb","3","CN","0","1","false"
"null","","fixation","html-keyboard-response","117","417903","0.0-8.0-0.45","5e9b443223881d04be740737","condA","","<div class=""vertical-center"" style='width:60%;'><p style='font-weight:bold;'>Does the middle word sound more like the first word (A) or the last word (B)?</p> <br> <div class=""container""> <div id=""a-box""> <p class=""title-text"">A</h3></p> </div> <div id=""x-box""> <p class=""title-text"">X<p> </div> <div id=""b-box""> <p class=""title-text"">B</p></div> <br> <div style='float: left;padding-left:30px;'><p>Press '1' for A</p></div><div style='float: right;padding-right:30px;'><p>Press '0' for B</p> </div> </div></div>","null","","","","","","","","","","","","","",""
"3739","","test","audio-keyboard-response","118","421653","0.0-8.0-1.45","5e9b443223881d04be740737","condA","","resources/audio/wordStim/S3_AI_23_axb_Step-7.wav","48","","","","","AI","resources/audio/wordStim/S3_AI_23_axb_Step-7.wav","S3","23","axb","7","MI","0","0","true"
"null","","fixation","html-keyboard-response","119","422654","0.0-8.0-0.46","5e9b443223881d04be740737","condA","","<div class=""vertical-center"" style='width:60%;'><p style='font-weight:bold;'>Does the middle word sound more like the first word (A) or the last word (B)?</p> <br> <div class=""container""> <div id=""a-box""> <p class=""title-text"">A</h3></p> </div> <div id=""x-box""> <p class=""title-text"">X<p> </div> <div id=""b-box""> <p class=""title-text"">B</p></div> <br> <div style='float: left;padding-left:30px;'><p>Press '1' for A</p></div><div style='float: right;padding-right:30px;'><p>Press '0' for B</p> </div> </div></div>","null","","","","","","","","","","","","","",""
"2640","","test","audio-keyboard-response","120","425301","0.0-8.0-1.46","5e9b443223881d04be740737","condA","","resources/audio/wordStim/S9_AU_20_bxa_Step-2.wav","48","","","","","AU","resources/audio/wordStim/S9_AU_20_bxa_Step-2.wav","S9","20","bxa","2","CN","1","0","false"
"null","","fixation","html-keyboard-response","121","426302","0.0-8.0-0.47","5e9b443223881d04be740737","condA","","<div class=""vertical-center"" style='width:60%;'><p style='font-weight:bold;'>Does the middle word sound more like the first word (A) or the last word (B)?</p> <br> <div class=""container""> <div id=""a-box""> <p class=""title-text"">A</h3></p> </div> <div id=""x-box""> <p class=""title-text"">X<p> </div> <div id=""b-box""> <p class=""title-text"">B</p></div> <br> <div style='float: left;padding-left:30px;'><p>Press '1' for A</p></div><div style='float: right;padding-right:30px;'><p>Press '0' for B</p> </div> </div></div>","null","","","","","","","","","","","","","",""
"3131","","test","audio-keyboard-response","122","429437","0.0-8.0-1.47","5e9b443223881d04be740737","condA","","resources/audio/wordStim/S3_AI_25_bxa_Step-4.wav","48","","","","","AI","resources/audio/wordStim/S3_AI_25_bxa_Step-4.wav","S3","25","bxa","4","MI","1","0","false"
"null","","fixation","html-keyboard-response","123","430438","0.0-8.0-0.48","5e9b443223881d04be740737","condA","","<div class=""vertical-center"" style='width:60%;'><p style='font-weight:bold;'>Does the middle word sound more like the first word (A) or the last word (B)?</p> <br> <div class=""container""> <div id=""a-box""> <p class=""title-text"">A</h3></p> </div> <div id=""x-box""> <p class=""title-text"">X<p> </div> <div id=""b-box""> <p class=""title-text"">B</p></div> <br> <div style='float: left;padding-left:30px;'><p>Press '1' for A</p></div><div style='float: right;padding-right:30px;'><p>Press '0' for B</p> </div> </div></div>","null","","","","","","","","","","","","","",""
"2840","","test","audio-keyboard-response","124","433277","0.0-8.0-1.48","5e9b443223881d04be740737","condA","","resources/audio/wordStim/S9_AU_16_axb_Step-3.wav","49","","","","","AU","resources/audio/wordStim/S9_AU_16_axb_Step-3.wav","S9","16","axb","3","CN","0","1","false"
"null","","fixation","html-keyboard-response","125","434278","0.0-8.0-0.49","5e9b443223881d04be740737","condA","","<div class=""vertical-center"" style='width:60%;'><p style='font-weight:bold;'>Does the middle word sound more like the first word (A) or the last word (B)?</p> <br> <div class=""container""> <div id=""a-box""> <p class=""title-text"">A</h3></p> </div> <div id=""x-box""> <p class=""title-text"">X<p> </div> <div id=""b-box""> <p class=""title-text"">B</p></div> <br> <div style='float: left;padding-left:30px;'><p>Press '1' for A</p></div><div style='float: right;padding-right:30px;'><p>Press '0' for B</p> </div> </div></div>","null","","","","","","","","","","","","","",""
"3040","","test","audio-keyboard-response","126","437317","0.0-8.0-1.49","5e9b443223881d04be740737","condA","","resources/audio/wordStim/S9_AU_16_axb_Step-7.wav","48","","","","","AU","resources/audio/wordStim/S9_AU_16_axb_Step-7.wav","S9","16","axb","7","CN","0","0","true"
"null","","fixation","html-keyboard-response","127","438319","0.0-8.0-0.50","5e9b443223881d04be740737","condA","","<div class=""vertical-center"" style='width:60%;'><p style='font-weight:bold;'>Does the middle word sound more like the first word (A) or the last word (B)?</p> <br> <div class=""container""> <div id=""a-box""> <p class=""title-text"">A</h3></p> </div> <div id=""x-box""> <p class=""title-text"">X<p> </div> <div id=""b-box""> <p class=""title-text"">B</p></div> <br> <div style='float: left;padding-left:30px;'><p>Press '1' for A</p></div><div style='float: right;padding-right:30px;'><p>Press '0' for B</p> </div> </div></div>","null","","","","","","","","","","","","","",""
"4168","","test","audio-keyboard-response","128","442493","0.0-8.0-1.50","5e9b443223881d04be740737","condA","","resources/audio/wordStim/S3_AU_17_bxa_Step-4.wav","49","","","","","AU","resources/audio/wordStim/S3_AU_17_bxa_Step-4.wav","S3","17","bxa","4","MI","1","1","true"
"null","","fixation","html-keyboard-response","129","443494","0.0-8.0-0.51","5e9b443223881d04be740737","condA","","<div class=""vertical-center"" style='width:60%;'><p style='font-weight:bold;'>Does the middle word sound more like the first word (A) or the last word (B)?</p> <br> <div class=""container""> <div id=""a-box""> <p class=""title-text"">A</h3></p> </div> <div id=""x-box""> <p class=""title-text"">X<p> </div> <div id=""b-box""> <p class=""title-text"">B</p></div> <br> <div style='float: left;padding-left:30px;'><p>Press '1' for A</p></div><div style='float: right;padding-right:30px;'><p>Press '0' for B</p> </div> </div></div>","null","","","","","","","","","","","","","",""
"3069","","test","audio-keyboard-response","130","446564","0.0-8.0-1.51","5e9b443223881d04be740737","condA","","resources/audio/wordStim/S9_AU_14_bxa_Step-4.wav","48","","","","","AU","resources/audio/wordStim/S9_AU_14_bxa_Step-4.wav","S9","14","bxa","4","CN","1","0","false"
"null","","fixation","html-keyboard-response","131","447566","0.0-8.0-0.52","5e9b443223881d04be740737","condA","","<div class=""vertical-center"" style='width:60%;'><p style='font-weight:bold;'>Does the middle word sound more like the first word (A) or the last word (B)?</p> <br> <div class=""container""> <div id=""a-box""> <p class=""title-text"">A</h3></p> </div> <div id=""x-box""> <p class=""title-text"">X<p> </div> <div id=""b-box""> <p class=""title-text"">B</p></div> <br> <div style='float: left;padding-left:30px;'><p>Press '1' for A</p></div><div style='float: right;padding-right:30px;'><p>Press '0' for B</p> </div> </div></div>","null","","","","","","","","","","","","","",""
"4101","","test","audio-keyboard-response","132","451669","0.0-8.0-1.52","5e9b443223881d04be740737","condA","","resources/audio/wordStim/S9_AI_30_axb_Step-7.wav","49","","","","","AI","resources/audio/wordStim/S9_AI_30_axb_Step-7.wav","S9","30","axb","7","CN","0","1","false"
"null","","fixation","html-keyboard-response","133","452671","0.0-8.0-0.53","5e9b443223881d04be740737","condA","","<div class=""vertical-center"" style='width:60%;'><p style='font-weight:bold;'>Does the middle word sound more like the first word (A) or the last word (B)?</p> <br> <div class=""container""> <div id=""a-box""> <p class=""title-text"">A</h3></p> </div> <div id=""x-box""> <p class=""title-text"">X<p> </div> <div id=""b-box""> <p class=""title-text"">B</p></div> <br> <div style='float: left;padding-left:30px;'><p>Press '1' for A</p></div><div style='float: right;padding-right:30px;'><p>Press '0' for B</p> </div> </div></div>","null","","","","","","","","","","","","","",""
"2789","","test","audio-keyboard-response","134","455461","0.0-8.0-1.53","5e9b443223881d04be740737","condA","","resources/audio/wordStim/S9_AU_16_axb_Step-5.wav","49","","","","","AU","resources/audio/wordStim/S9_AU_16_axb_Step-5.wav","S9","16","axb","5","CN","0","1","false"
"2555.2200000020093","","break","html-keyboard-response","135","458516","0.0-8.0-2.53-0.53","5e9b443223881d04be740737","condA","","<div class=""vertical-center""><p>Feel free to take a break!</p><i>When you're ready to continue, press SPACE to begin the next trial.</i></p></div>","32","","","","","","","","","","","","","",""
"null","","fixation","html-keyboard-response","136","459018","0.0-8.0-0.54","5e9b443223881d04be740737","condA","","<div class=""vertical-center"" style='width:60%;'><p style='font-weight:bold;'>Does the middle word sound more like the first word (A) or the last word (B)?</p> <br> <div class=""container""> <div id=""a-box""> <p class=""title-text"">A</h3></p> </div> <div id=""x-box""> <p class=""title-text"">X<p> </div> <div id=""b-box""> <p class=""title-text"">B</p></div> <br> <div style='float: left;padding-left:30px;'><p>Press '1' for A</p></div><div style='float: right;padding-right:30px;'><p>Press '0' for B</p> </div> </div></div>","null","","","","","","","","","","","","","",""
"2869","","test","audio-keyboard-response","137","461884","0.0-8.0-1.54","5e9b443223881d04be740737","condA","","resources/audio/wordStim/S3_AU_19_axb_Step-9.wav","48","","","","","AU","resources/audio/wordStim/S3_AU_19_axb_Step-9.wav","S3","19","axb","9","MI","0","0","true"
"null","","fixation","html-keyboard-response","138","462886","0.0-8.0-0.55","5e9b443223881d04be740737","condA","","<div class=""vertical-center"" style='width:60%;'><p style='font-weight:bold;'>Does the middle word sound more like the first word (A) or the last word (B)?</p> <br> <div class=""container""> <div id=""a-box""> <p class=""title-text"">A</h3></p> </div> <div id=""x-box""> <p class=""title-text"">X<p> </div> <div id=""b-box""> <p class=""title-text"">B</p></div> <br> <div style='float: left;padding-left:30px;'><p>Press '1' for A</p></div><div style='float: right;padding-right:30px;'><p>Press '0' for B</p> </div> </div></div>","null","","","","","","","","","","","","","",""
"3352","","test","audio-keyboard-response","139","466237","0.0-8.0-1.55","5e9b443223881d04be740737","condA","","resources/audio/wordStim/S3_AI_30_axb_Step-3.wav","49","","","","","AI","resources/audio/wordStim/S3_AI_30_axb_Step-3.wav","S3","30","axb","3","MI","0","1","false"
"null","","fixation","html-keyboard-response","140","467239","0.0-8.0-0.56","5e9b443223881d04be740737","condA","","<div class=""vertical-center"" style='width:60%;'><p style='font-weight:bold;'>Does the middle word sound more like the first word (A) or the last word (B)?</p> <br> <div class=""container""> <div id=""a-box""> <p class=""title-text"">A</h3></p> </div> <div id=""x-box""> <p class=""title-text"">X<p> </div> <div id=""b-box""> <p class=""title-text"">B</p></div> <br> <div style='float: left;padding-left:30px;'><p>Press '1' for A</p></div><div style='float: right;padding-right:30px;'><p>Press '0' for B</p> </div> </div></div>","null","","","","","","","","","","","","","",""
"3808","","test","audio-keyboard-response","141","471052","0.0-8.0-1.56","5e9b443223881d04be740737","condA","","resources/audio/wordStim/S3_AU_17_bxa_Step-6.wav","48","","","","","AU","resources/audio/wordStim/S3_AU_17_bxa_Step-6.wav","S3","17","bxa","6","MI","1","0","false"
"null","","fixation","html-keyboard-response","142","472056","0.0-8.0-0.57","5e9b443223881d04be740737","condA","","<div class=""vertical-center"" style='width:60%;'><p style='font-weight:bold;'>Does the middle word sound more like the first word (A) or the last word (B)?</p> <br> <div class=""container""> <div id=""a-box""> <p class=""title-text"">A</h3></p> </div> <div id=""x-box""> <p class=""title-text"">X<p> </div> <div id=""b-box""> <p class=""title-text"">B</p></div> <br> <div style='float: left;padding-left:30px;'><p>Press '1' for A</p></div><div style='float: right;padding-right:30px;'><p>Press '0' for B</p> </div> </div></div>","null","","","","","","","","","","","","","",""
"2909","","test","audio-keyboard-response","143","474972","0.0-8.0-1.57","5e9b443223881d04be740737","condA","","resources/audio/wordStim/S3_AI_23_axb_Step-10.wav","48","","","","","AI","resources/audio/wordStim/S3_AI_23_axb_Step-10.wav","S3","23","axb","10","MI","0","0","true"
"null","","fixation","html-keyboard-response","144","475975","0.0-8.0-0.58","5e9b443223881d04be740737","condA","","<div class=""vertical-center"" style='width:60%;'><p style='font-weight:bold;'>Does the middle word sound more like the first word (A) or the last word (B)?</p> <br> <div class=""container""> <div id=""a-box""> <p class=""title-text"">A</h3></p> </div> <div id=""x-box""> <p class=""title-text"">X<p> </div> <div id=""b-box""> <p class=""title-text"">B</p></div> <br> <div style='float: left;padding-left:30px;'><p>Press '1' for A</p></div><div style='float: right;padding-right:30px;'><p>Press '0' for B</p> </div> </div></div>","null","","","","","","","","","","","","","",""
"4229","","test","audio-keyboard-response","145","480213","0.0-8.0-1.58","5e9b443223881d04be740737","condA","","resources/audio/wordStim/S9_AI_24_bxa_Step-4.wav","48","","","","","AI","resources/audio/wordStim/S9_AI_24_bxa_Step-4.wav","S9","24","bxa","4","CN","1","0","false"
"null","","fixation","html-keyboard-response","146","481214","0.0-8.0-0.59","5e9b443223881d04be740737","condA","","<div class=""vertical-center"" style='width:60%;'><p style='font-weight:bold;'>Does the middle word sound more like the first word (A) or the last word (B)?</p> <br> <div class=""container""> <div id=""a-box""> <p class=""title-text"">A</h3></p> </div> <div id=""x-box""> <p class=""title-text"">X<p> </div> <div id=""b-box""> <p class=""title-text"">B</p></div> <br> <div style='float: left;padding-left:30px;'><p>Press '1' for A</p></div><div style='float: right;padding-right:30px;'><p>Press '0' for B</p> </div> </div></div>","null","","","","","","","","","","","","","",""
"2741","","test","audio-keyboard-response","147","483957","0.0-8.0-1.59","5e9b443223881d04be740737","condA","","resources/audio/wordStim/S3_AU_14_bxa_Step-2.wav","48","","","","","AU","resources/audio/wordStim/S3_AU_14_bxa_Step-2.wav","S3","14","bxa","2","MI","1","0","false"
"null","","fixation","html-keyboard-response","148","484959","0.0-8.0-0.60","5e9b443223881d04be740737","condA","","<div class=""vertical-center"" style='width:60%;'><p style='font-weight:bold;'>Does the middle word sound more like the first word (A) or the last word (B)?</p> <br> <div class=""container""> <div id=""a-box""> <p class=""title-text"">A</h3></p> </div> <div id=""x-box""> <p class=""title-text"">X<p> </div> <div id=""b-box""> <p class=""title-text"">B</p></div> <br> <div style='float: left;padding-left:30px;'><p>Press '1' for A</p></div><div style='float: right;padding-right:30px;'><p>Press '0' for B</p> </div> </div></div>","null","","","","","","","","","","","","","",""
"3339","","test","audio-keyboard-response","149","488300","0.0-8.0-1.60","5e9b443223881d04be740737","condA","","resources/audio/wordStim/S3_AU_18_axb_Step-7.wav","49","","","","","AU","resources/audio/wordStim/S3_AU_18_axb_Step-7.wav","S3","18","axb","7","MI","0","1","false"
"null","","fixation","html-keyboard-response","150","489302","0.0-8.0-0.61","5e9b443223881d04be740737","condA","","<div class=""vertical-center"" style='width:60%;'><p style='font-weight:bold;'>Does the middle word sound more like the first word (A) or the last word (B)?</p> <br> <div class=""container""> <div id=""a-box""> <p class=""title-text"">A</h3></p> </div> <div id=""x-box""> <p class=""title-text"">X<p> </div> <div id=""b-box""> <p class=""title-text"">B</p></div> <br> <div style='float: left;padding-left:30px;'><p>Press '1' for A</p></div><div style='float: right;padding-right:30px;'><p>Press '0' for B</p> </div> </div></div>","null","","","","","","","","","","","","","",""
"3320","","test","audio-keyboard-response","151","492620","0.0-8.0-1.61","5e9b443223881d04be740737","condA","","resources/audio/wordStim/S3_AI_23_bxa_Step-8.wav","49","","","","","AI","resources/audio/wordStim/S3_AI_23_bxa_Step-8.wav","S3","23","bxa","8","MI","1","1","true"
"null","","fixation","html-keyboard-response","152","493621","0.0-8.0-0.62","5e9b443223881d04be740737","condA","","<div class=""vertical-center"" style='width:60%;'><p style='font-weight:bold;'>Does the middle word sound more like the first word (A) or the last word (B)?</p> <br> <div class=""container""> <div id=""a-box""> <p class=""title-text"">A</h3></p> </div> <div id=""x-box""> <p class=""title-text"">X<p> </div> <div id=""b-box""> <p class=""title-text"">B</p></div> <br> <div style='float: left;padding-left:30px;'><p>Press '1' for A</p></div><div style='float: right;padding-right:30px;'><p>Press '0' for B</p> </div> </div></div>","null","","","","","","","","","","","","","",""
"3709","","test","audio-keyboard-response","153","497325","0.0-8.0-1.62","5e9b443223881d04be740737","condA","","resources/audio/wordStim/S3_AU_11_bxa_Step-2.wav","49","","","","","AU","resources/audio/wordStim/S3_AU_11_bxa_Step-2.wav","S3","11","bxa","2","MI","1","1","true"
"null","","fixation","html-keyboard-response","154","498327","0.0-8.0-0.63","5e9b443223881d04be740737","condA","","<div class=""vertical-center"" style='width:60%;'><p style='font-weight:bold;'>Does the middle word sound more like the first word (A) or the last word (B)?</p> <br> <div class=""container""> <div id=""a-box""> <p class=""title-text"">A</h3></p> </div> <div id=""x-box""> <p class=""title-text"">X<p> </div> <div id=""b-box""> <p class=""title-text"">B</p></div> <br> <div style='float: left;padding-left:30px;'><p>Press '1' for A</p></div><div style='float: right;padding-right:30px;'><p>Press '0' for B</p> </div> </div></div>","null","","","","","","","","","","","","","",""
"3051","","test","audio-keyboard-response","155","501381","0.0-8.0-1.63","5e9b443223881d04be740737","condA","","resources/audio/wordStim/S3_AI_22_bxa_Step-2.wav","48","","","","","AI","resources/audio/wordStim/S3_AI_22_bxa_Step-2.wav","S3","22","bxa","2","MI","1","0","false"
"null","","fixation","html-keyboard-response","156","502383","0.0-8.0-0.64","5e9b443223881d04be740737","condA","","<div class=""vertical-center"" style='width:60%;'><p style='font-weight:bold;'>Does the middle word sound more like the first word (A) or the last word (B)?</p> <br> <div class=""container""> <div id=""a-box""> <p class=""title-text"">A</h3></p> </div> <div id=""x-box""> <p class=""title-text"">X<p> </div> <div id=""b-box""> <p class=""title-text"">B</p></div> <br> <div style='float: left;padding-left:30px;'><p>Press '1' for A</p></div><div style='float: right;padding-right:30px;'><p>Press '0' for B</p> </div> </div></div>","null","","","","","","","","","","","","","",""
"4099","","test","audio-keyboard-response","157","506492","0.0-8.0-1.64","5e9b443223881d04be740737","condA","","resources/audio/wordStim/S9_AI_22_bxa_Step-8.wav","48","","","","","AI","resources/audio/wordStim/S9_AI_22_bxa_Step-8.wav","S9","22","bxa","8","CN","1","0","false"
"null","","fixation","html-keyboard-response","158","507494","0.0-8.0-0.65","5e9b443223881d04be740737","condA","","<div class=""vertical-center"" style='width:60%;'><p style='font-weight:bold;'>Does the middle word sound more like the first word (A) or the last word (B)?</p> <br> <div class=""container""> <div id=""a-box""> <p class=""title-text"">A</h3></p> </div> <div id=""x-box""> <p class=""title-text"">X<p> </div> <div id=""b-box""> <p class=""title-text"">B</p></div> <br> <div style='float: left;padding-left:30px;'><p>Press '1' for A</p></div><div style='float: right;padding-right:30px;'><p>Press '0' for B</p> </div> </div></div>","null","","","","","","","","","","","","","",""
"3069","","test","audio-keyboard-response","159","510572","0.0-8.0-1.65","5e9b443223881d04be740737","condA","","resources/audio/wordStim/S3_AU_11_axb_Step-9.wav","48","","","","","AU","resources/audio/wordStim/S3_AU_11_axb_Step-9.wav","S3","11","axb","9","MI","0","0","true"
"null","","fixation","html-keyboard-response","160","511576","0.0-8.0-0.66","5e9b443223881d04be740737","condA","","<div class=""vertical-center"" style='width:60%;'><p style='font-weight:bold;'>Does the middle word sound more like the first word (A) or the last word (B)?</p> <br> <div class=""container""> <div id=""a-box""> <p class=""title-text"">A</h3></p> </div> <div id=""x-box""> <p class=""title-text"">X<p> </div> <div id=""b-box""> <p class=""title-text"">B</p></div> <br> <div style='float: left;padding-left:30px;'><p>Press '1' for A</p></div><div style='float: right;padding-right:30px;'><p>Press '0' for B</p> </div> </div></div>","null","","","","","","","","","","","","","",""
"3669","","test","audio-keyboard-response","161","515253","0.0-8.0-1.66","5e9b443223881d04be740737","condA","","resources/audio/wordStim/S3_AU_16_axb_Step-10.wav","49","","","","","AU","resources/audio/wordStim/S3_AU_16_axb_Step-10.wav","S3","16","axb","10","MI","0","1","false"
"null","","fixation","html-keyboard-response","162","516254","0.0-8.0-0.67","5e9b443223881d04be740737","condA","","<div class=""vertical-center"" style='width:60%;'><p style='font-weight:bold;'>Does the middle word sound more like the first word (A) or the last word (B)?</p> <br> <div class=""container""> <div id=""a-box""> <p class=""title-text"">A</h3></p> </div> <div id=""x-box""> <p class=""title-text"">X<p> </div> <div id=""b-box""> <p class=""title-text"">B</p></div> <br> <div style='float: left;padding-left:30px;'><p>Press '1' for A</p></div><div style='float: right;padding-right:30px;'><p>Press '0' for B</p> </div> </div></div>","null","","","","","","","","","","","","","",""
"3301","","test","audio-keyboard-response","163","519556","0.0-8.0-1.67","5e9b443223881d04be740737","condA","","resources/audio/wordStim/S9_AI_27_axb_Step-5.wav","48","","","","","AI","resources/audio/wordStim/S9_AI_27_axb_Step-5.wav","S9","27","axb","5","CN","0","0","true"
"null","","fixation","html-keyboard-response","164","520559","0.0-8.0-0.68","5e9b443223881d04be740737","condA","","<div class=""vertical-center"" style='width:60%;'><p style='font-weight:bold;'>Does the middle word sound more like the first word (A) or the last word (B)?</p> <br> <div class=""container""> <div id=""a-box""> <p class=""title-text"">A</h3></p> </div> <div id=""x-box""> <p class=""title-text"">X<p> </div> <div id=""b-box""> <p class=""title-text"">B</p></div> <br> <div style='float: left;padding-left:30px;'><p>Press '1' for A</p></div><div style='float: right;padding-right:30px;'><p>Press '0' for B</p> </div> </div></div>","null","","","","","","","","","","","","","",""
"3280","","test","audio-keyboard-response","165","523836","0.0-8.0-1.68","5e9b443223881d04be740737","condA","","resources/audio/wordStim/S3_AU_20_axb_Step-5.wav","49","","","","","AU","resources/audio/wordStim/S3_AU_20_axb_Step-5.wav","S3","20","axb","5","MI","0","1","false"
"null","","fixation","html-keyboard-response","166","524838","0.0-8.0-0.69","5e9b443223881d04be740737","condA","","<div class=""vertical-center"" style='width:60%;'><p style='font-weight:bold;'>Does the middle word sound more like the first word (A) or the last word (B)?</p> <br> <div class=""container""> <div id=""a-box""> <p class=""title-text"">A</h3></p> </div> <div id=""x-box""> <p class=""title-text"">X<p> </div> <div id=""b-box""> <p class=""title-text"">B</p></div> <br> <div style='float: left;padding-left:30px;'><p>Press '1' for A</p></div><div style='float: right;padding-right:30px;'><p>Press '0' for B</p> </div> </div></div>","null","","","","","","","","","","","","","",""
"3349","","test","audio-keyboard-response","167","528188","0.0-8.0-1.69","5e9b443223881d04be740737","condA","","resources/audio/wordStim/S3_AU_18_axb_Step-10.wav","48","","","","","AU","resources/audio/wordStim/S3_AU_18_axb_Step-10.wav","S3","18","axb","10","MI","0","0","true"
"null","","fixation","html-keyboard-response","168","529191","0.0-8.0-0.70","5e9b443223881d04be740737","condA","","<div class=""vertical-center"" style='width:60%;'><p style='font-weight:bold;'>Does the middle word sound more like the first word (A) or the last word (B)?</p> <br> <div class=""container""> <div id=""a-box""> <p class=""title-text"">A</h3></p> </div> <div id=""x-box""> <p class=""title-text"">X<p> </div> <div id=""b-box""> <p class=""title-text"">B</p></div> <br> <div style='float: left;padding-left:30px;'><p>Press '1' for A</p></div><div style='float: right;padding-right:30px;'><p>Press '0' for B</p> </div> </div></div>","null","","","","","","","","","","","","","",""
"3339","","test","audio-keyboard-response","169","532532","0.0-8.0-1.70","5e9b443223881d04be740737","condA","","resources/audio/wordStim/S9_AI_24_axb_Step-5.wav","48","","","","","AI","resources/audio/wordStim/S9_AI_24_axb_Step-5.wav","S9","24","axb","5","CN","0","0","true"
"null","","fixation","html-keyboard-response","170","533535","0.0-8.0-0.71","5e9b443223881d04be740737","condA","","<div class=""vertical-center"" style='width:60%;'><p style='font-weight:bold;'>Does the middle word sound more like the first word (A) or the last word (B)?</p> <br> <div class=""container""> <div id=""a-box""> <p class=""title-text"">A</h3></p> </div> <div id=""x-box""> <p class=""title-text"">X<p> </div> <div id=""b-box""> <p class=""title-text"">B</p></div> <br> <div style='float: left;padding-left:30px;'><p>Press '1' for A</p></div><div style='float: right;padding-right:30px;'><p>Press '0' for B</p> </div> </div></div>","null","","","","","","","","","","","","","",""
"3149","","test","audio-keyboard-response","171","536692","0.0-8.0-1.71","5e9b443223881d04be740737","condA","","resources/audio/wordStim/S9_AU_17_bxa_Step-6.wav","49","","","","","AU","resources/audio/wordStim/S9_AU_17_bxa_Step-6.wav","S9","17","bxa","6","CN","1","1","true"
"null","","fixation","html-keyboard-response","172","537695","0.0-8.0-0.72","5e9b443223881d04be740737","condA","","<div class=""vertical-center"" style='width:60%;'><p style='font-weight:bold;'>Does the middle word sound more like the first word (A) or the last word (B)?</p> <br> <div class=""container""> <div id=""a-box""> <p class=""title-text"">A</h3></p> </div> <div id=""x-box""> <p class=""title-text"">X<p> </div> <div id=""b-box""> <p class=""title-text"">B</p></div> <br> <div style='float: left;padding-left:30px;'><p>Press '1' for A</p></div><div style='float: right;padding-right:30px;'><p>Press '0' for B</p> </div> </div></div>","null","","","","","","","","","","","","","",""
"3901","","test","audio-keyboard-response","173","541596","0.0-8.0-1.72","5e9b443223881d04be740737","condA","","resources/audio/wordStim/S9_AI_23_bxa_Step-8.wav","48","","","","","AI","resources/audio/wordStim/S9_AI_23_bxa_Step-8.wav","S9","23","bxa","8","CN","1","0","false"
"null","","fixation","html-keyboard-response","174","542598","0.0-8.0-0.73","5e9b443223881d04be740737","condA","","<div class=""vertical-center"" style='width:60%;'><p style='font-weight:bold;'>Does the middle word sound more like the first word (A) or the last word (B)?</p> <br> <div class=""container""> <div id=""a-box""> <p class=""title-text"">A</h3></p> </div> <div id=""x-box""> <p class=""title-text"">X<p> </div> <div id=""b-box""> <p class=""title-text"">B</p></div> <br> <div style='float: left;padding-left:30px;'><p>Press '1' for A</p></div><div style='float: right;padding-right:30px;'><p>Press '0' for B</p> </div> </div></div>","null","","","","","","","","","","","","","",""
"3848","","test","audio-keyboard-response","175","546452","0.0-8.0-1.73","5e9b443223881d04be740737","condA","","resources/audio/wordStim/S9_AI_22_axb_Step-7.wav","49","","","","","AI","resources/audio/wordStim/S9_AI_22_axb_Step-7.wav","S9","22","axb","7","CN","0","1","false"
"null","","fixation","html-keyboard-response","176","547454","0.0-8.0-0.74","5e9b443223881d04be740737","condA","","<div class=""vertical-center"" style='width:60%;'><p style='font-weight:bold;'>Does the middle word sound more like the first word (A) or the last word (B)?</p> <br> <div class=""container""> <div id=""a-box""> <p class=""title-text"">A</h3></p> </div> <div id=""x-box""> <p class=""title-text"">X<p> </div> <div id=""b-box""> <p class=""title-text"">B</p></div> <br> <div style='float: left;padding-left:30px;'><p>Press '1' for A</p></div><div style='float: right;padding-right:30px;'><p>Press '0' for B</p> </div> </div></div>","null","","","","","","","","","","","","","",""
"2669","","test","audio-keyboard-response","177","550124","0.0-8.0-1.74","5e9b443223881d04be740737","condA","","resources/audio/wordStim/S3_AU_20_axb_Step-10.wav","48","","","","","AU","resources/audio/wordStim/S3_AU_20_axb_Step-10.wav","S3","20","axb","10","MI","0","0","true"
"null","","fixation","html-keyboard-response","178","551126","0.0-8.0-0.75","5e9b443223881d04be740737","condA","","<div class=""vertical-center"" style='width:60%;'><p style='font-weight:bold;'>Does the middle word sound more like the first word (A) or the last word (B)?</p> <br> <div class=""container""> <div id=""a-box""> <p class=""title-text"">A</h3></p> </div> <div id=""x-box""> <p class=""title-text"">X<p> </div> <div id=""b-box""> <p class=""title-text"">B</p></div> <br> <div style='float: left;padding-left:30px;'><p>Press '1' for A</p></div><div style='float: right;padding-right:30px;'><p>Press '0' for B</p> </div> </div></div>","null","","","","","","","","","","","","","",""
"3200","","test","audio-keyboard-response","179","554324","0.0-8.0-1.75","5e9b443223881d04be740737","condA","","resources/audio/wordStim/S9_AI_29_axb_Step-5.wav","48","","","","","AI","resources/audio/wordStim/S9_AI_29_axb_Step-5.wav","S9","29","axb","5","CN","0","0","true"
"null","","fixation","html-keyboard-response","180","555326","0.0-8.0-0.76","5e9b443223881d04be740737","condA","","<div class=""vertical-center"" style='width:60%;'><p style='font-weight:bold;'>Does the middle word sound more like the first word (A) or the last word (B)?</p> <br> <div class=""container""> <div id=""a-box""> <p class=""title-text"">A</h3></p> </div> <div id=""x-box""> <p class=""title-text"">X<p> </div> <div id=""b-box""> <p class=""title-text"">B</p></div> <br> <div style='float: left;padding-left:30px;'><p>Press '1' for A</p></div><div style='float: right;padding-right:30px;'><p>Press '0' for B</p> </div> </div></div>","null","","","","","","","","","","","","","",""
"4600","","test","audio-keyboard-response","181","559932","0.0-8.0-1.76","5e9b443223881d04be740737","condA","","resources/audio/wordStim/S9_AI_22_axb_Step-10.wav","48","","","","","AI","resources/audio/wordStim/S9_AI_22_axb_Step-10.wav","S9","22","axb","10","CN","0","0","true"
"null","","fixation","html-keyboard-response","182","560934","0.0-8.0-0.77","5e9b443223881d04be740737","condA","","<div class=""vertical-center"" style='width:60%;'><p style='font-weight:bold;'>Does the middle word sound more like the first word (A) or the last word (B)?</p> <br> <div class=""container""> <div id=""a-box""> <p class=""title-text"">A</h3></p> </div> <div id=""x-box""> <p class=""title-text"">X<p> </div> <div id=""b-box""> <p class=""title-text"">B</p></div> <br> <div style='float: left;padding-left:30px;'><p>Press '1' for A</p></div><div style='float: right;padding-right:30px;'><p>Press '0' for B</p> </div> </div></div>","null","","","","","","","","","","","","","",""
"3381","","test","audio-keyboard-response","183","564316","0.0-8.0-1.77","5e9b443223881d04be740737","condA","","resources/audio/wordStim/S3_AU_20_axb_Step-7.wav","48","","","","","AU","resources/audio/wordStim/S3_AU_20_axb_Step-7.wav","S3","20","axb","7","MI","0","0","true"
"null","","fixation","html-keyboard-response","184","565318","0.0-8.0-0.78","5e9b443223881d04be740737","condA","","<div class=""vertical-center"" style='width:60%;'><p style='font-weight:bold;'>Does the middle word sound more like the first word (A) or the last word (B)?</p> <br> <div class=""container""> <div id=""a-box""> <p class=""title-text"">A</h3></p> </div> <div id=""x-box""> <p class=""title-text"">X<p> </div> <div id=""b-box""> <p class=""title-text"">B</p></div> <br> <div style='float: left;padding-left:30px;'><p>Press '1' for A</p></div><div style='float: right;padding-right:30px;'><p>Press '0' for B</p> </div> </div></div>","null","","","","","","","","","","","","","",""
"2888","","test","audio-keyboard-response","185","568205","0.0-8.0-1.78","5e9b443223881d04be740737","condA","","resources/audio/wordStim/S3_AI_25_bxa_Step-2.wav","48","","","","","AI","resources/audio/wordStim/S3_AI_25_bxa_Step-2.wav","S3","25","bxa","2","MI","1","0","false"
"null","","fixation","html-keyboard-response","186","569207","0.0-8.0-0.79","5e9b443223881d04be740737","condA","","<div class=""vertical-center"" style='width:60%;'><p style='font-weight:bold;'>Does the middle word sound more like the first word (A) or the last word (B)?</p> <br> <div class=""container""> <div id=""a-box""> <p class=""title-text"">A</h3></p> </div> <div id=""x-box""> <p class=""title-text"">X<p> </div> <div id=""b-box""> <p class=""title-text"">B</p></div> <br> <div style='float: left;padding-left:30px;'><p>Press '1' for A</p></div><div style='float: right;padding-right:30px;'><p>Press '0' for B</p> </div> </div></div>","null","","","","","","","","","","","","","",""
"3040","","test","audio-keyboard-response","187","572252","0.0-8.0-1.79","5e9b443223881d04be740737","condA","","resources/audio/wordStim/S9_AI_30_axb_Step-10.wav","48","","","","","AI","resources/audio/wordStim/S9_AI_30_axb_Step-10.wav","S9","30","axb","10","CN","0","0","true"
"null","","fixation","html-keyboard-response","188","573254","0.0-8.0-0.80","5e9b443223881d04be740737","condA","","<div class=""vertical-center"" style='width:60%;'><p style='font-weight:bold;'>Does the middle word sound more like the first word (A) or the last word (B)?</p> <br> <div class=""container""> <div id=""a-box""> <p class=""title-text"">A</h3></p> </div> <div id=""x-box""> <p class=""title-text"">X<p> </div> <div id=""b-box""> <p class=""title-text"">B</p></div> <br> <div style='float: left;padding-left:30px;'><p>Press '1' for A</p></div><div style='float: right;padding-right:30px;'><p>Press '0' for B</p> </div> </div></div>","null","","","","","","","","","","","","","",""
"4080","","test","audio-keyboard-response","189","577340","0.0-8.0-1.80","5e9b443223881d04be740737","condA","","resources/audio/wordStim/S9_AU_13_axb_Step-10.wav","49","","","","","AU","resources/audio/wordStim/S9_AU_13_axb_Step-10.wav","S9","13","axb","10","CN","0","1","false"
"5683.4450000023935","","break","html-keyboard-response","190","583524","0.0-8.0-2.80-0.80","5e9b443223881d04be740737","condA","","<div class=""vertical-center""><p>Feel free to take a break!</p><i>When you're ready to continue, press SPACE to begin the next trial.</i></p></div>","32","","","","","","","","","","","","","",""
"null","","fixation","html-keyboard-response","191","584025","0.0-8.0-0.81","5e9b443223881d04be740737","condA","","<div class=""vertical-center"" style='width:60%;'><p style='font-weight:bold;'>Does the middle word sound more like the first word (A) or the last word (B)?</p> <br> <div class=""container""> <div id=""a-box""> <p class=""title-text"">A</h3></p> </div> <div id=""x-box""> <p class=""title-text"">X<p> </div> <div id=""b-box""> <p class=""title-text"">B</p></div> <br> <div style='float: left;padding-left:30px;'><p>Press '1' for A</p></div><div style='float: right;padding-right:30px;'><p>Press '0' for B</p> </div> </div></div>","null","","","","","","","","","","","","","",""
"3859","","test","audio-keyboard-response","192","587884","0.0-8.0-1.81","5e9b443223881d04be740737","condA","","resources/audio/wordStim/S3_AU_17_bxa_Step-2.wav","48","","","","","AU","resources/audio/wordStim/S3_AU_17_bxa_Step-2.wav","S3","17","bxa","2","MI","1","0","false"
"null","","fixation","html-keyboard-response","193","588886","0.0-8.0-0.82","5e9b443223881d04be740737","condA","","<div class=""vertical-center"" style='width:60%;'><p style='font-weight:bold;'>Does the middle word sound more like the first word (A) or the last word (B)?</p> <br> <div class=""container""> <div id=""a-box""> <p class=""title-text"">A</h3></p> </div> <div id=""x-box""> <p class=""title-text"">X<p> </div> <div id=""b-box""> <p class=""title-text"">B</p></div> <br> <div style='float: left;padding-left:30px;'><p>Press '1' for A</p></div><div style='float: right;padding-right:30px;'><p>Press '0' for B</p> </div> </div></div>","null","","","","","","","","","","","","","",""
"3560","","test","audio-keyboard-response","194","592452","0.0-8.0-1.82","5e9b443223881d04be740737","condA","","resources/audio/wordStim/S9_AI_23_axb_Step-5.wav","49","","","","","AI","resources/audio/wordStim/S9_AI_23_axb_Step-5.wav","S9","23","axb","5","CN","0","1","false"
"null","","fixation","html-keyboard-response","195","593454","0.0-8.0-0.83","5e9b443223881d04be740737","condA","","<div class=""vertical-center"" style='width:60%;'><p style='font-weight:bold;'>Does the middle word sound more like the first word (A) or the last word (B)?</p> <br> <div class=""container""> <div id=""a-box""> <p class=""title-text"">A</h3></p> </div> <div id=""x-box""> <p class=""title-text"">X<p> </div> <div id=""b-box""> <p class=""title-text"">B</p></div> <br> <div style='float: left;padding-left:30px;'><p>Press '1' for A</p></div><div style='float: right;padding-right:30px;'><p>Press '0' for B</p> </div> </div></div>","null","","","","","","","","","","","","","",""
"3520","","test","audio-keyboard-response","196","596981","0.0-8.0-1.83","5e9b443223881d04be740737","condA","","resources/audio/wordStim/S9_AU_14_bxa_Step-8.wav","49","","","","","AU","resources/audio/wordStim/S9_AU_14_bxa_Step-8.wav","S9","14","bxa","8","CN","1","1","true"
"null","","fixation","html-keyboard-response","197","597982","0.0-8.0-0.84","5e9b443223881d04be740737","condA","","<div class=""vertical-center"" style='width:60%;'><p style='font-weight:bold;'>Does the middle word sound more like the first word (A) or the last word (B)?</p> <br> <div class=""container""> <div id=""a-box""> <p class=""title-text"">A</h3></p> </div> <div id=""x-box""> <p class=""title-text"">X<p> </div> <div id=""b-box""> <p class=""title-text"">B</p></div> <br> <div style='float: left;padding-left:30px;'><p>Press '1' for A</p></div><div style='float: right;padding-right:30px;'><p>Press '0' for B</p> </div> </div></div>","null","","","","","","","","","","","","","",""
"4229","","test","audio-keyboard-response","198","602204","0.0-8.0-1.84","5e9b443223881d04be740737","condA","","resources/audio/wordStim/S9_AI_22_axb_Step-5.wav","49","","","","","AI","resources/audio/wordStim/S9_AI_22_axb_Step-5.wav","S9","22","axb","5","CN","0","1","false"
"null","","fixation","html-keyboard-response","199","603208","0.0-8.0-0.85","5e9b443223881d04be740737","condA","","<div class=""vertical-center"" style='width:60%;'><p style='font-weight:bold;'>Does the middle word sound more like the first word (A) or the last word (B)?</p> <br> <div class=""container""> <div id=""a-box""> <p class=""title-text"">A</h3></p> </div> <div id=""x-box""> <p class=""title-text"">X<p> </div> <div id=""b-box""> <p class=""title-text"">B</p></div> <br> <div style='float: left;padding-left:30px;'><p>Press '1' for A</p></div><div style='float: right;padding-right:30px;'><p>Press '0' for B</p> </div> </div></div>","null","","","","","","","","","","","","","",""
"3840","","test","audio-keyboard-response","200","607053","0.0-8.0-1.85","5e9b443223881d04be740737","condA","","resources/audio/wordStim/S3_AU_18_bxa_Step-2.wav","49","","","","","AU","resources/audio/wordStim/S3_AU_18_bxa_Step-2.wav","S3","18","bxa","2","MI","1","1","true"
"null","","fixation","html-keyboard-response","201","608054","0.0-8.0-0.86","5e9b443223881d04be740737","condA","","<div class=""vertical-center"" style='width:60%;'><p style='font-weight:bold;'>Does the middle word sound more like the first word (A) or the last word (B)?</p> <br> <div class=""container""> <div id=""a-box""> <p class=""title-text"">A</h3></p> </div> <div id=""x-box""> <p class=""title-text"">X<p> </div> <div id=""b-box""> <p class=""title-text"">B</p></div> <br> <div style='float: left;padding-left:30px;'><p>Press '1' for A</p></div><div style='float: right;padding-right:30px;'><p>Press '0' for B</p> </div> </div></div>","null","","","","","","","","","","","","","",""
"3080","","test","audio-keyboard-response","202","611140","0.0-8.0-1.86","5e9b443223881d04be740737","condA","","resources/audio/wordStim/S9_AU_14_axb_Step-3.wav","49","","","","","AU","resources/audio/wordStim/S9_AU_14_axb_Step-3.wav","S9","14","axb","3","CN","0","1","false"
"null","","fixation","html-keyboard-response","203","612142","0.0-8.0-0.87","5e9b443223881d04be740737","condA","","<div class=""vertical-center"" style='width:60%;'><p style='font-weight:bold;'>Does the middle word sound more like the first word (A) or the last word (B)?</p> <br> <div class=""container""> <div id=""a-box""> <p class=""title-text"">A</h3></p> </div> <div id=""x-box""> <p class=""title-text"">X<p> </div> <div id=""b-box""> <p class=""title-text"">B</p></div> <br> <div style='float: left;padding-left:30px;'><p>Press '1' for A</p></div><div style='float: right;padding-right:30px;'><p>Press '0' for B</p> </div> </div></div>","null","","","","","","","","","","","","","",""
"3771","","test","audio-keyboard-response","204","615916","0.0-8.0-1.87","5e9b443223881d04be740737","condA","","resources/audio/wordStim/S3_AU_18_axb_Step-9.wav","48","","","","","AU","resources/audio/wordStim/S3_AU_18_axb_Step-9.wav","S3","18","axb","9","MI","0","0","true"
"null","","fixation","html-keyboard-response","205","616919","0.0-8.0-0.88","5e9b443223881d04be740737","condA","","<div class=""vertical-center"" style='width:60%;'><p style='font-weight:bold;'>Does the middle word sound more like the first word (A) or the last word (B)?</p> <br> <div class=""container""> <div id=""a-box""> <p class=""title-text"">A</h3></p> </div> <div id=""x-box""> <p class=""title-text"">X<p> </div> <div id=""b-box""> <p class=""title-text"">B</p></div> <br> <div style='float: left;padding-left:30px;'><p>Press '1' for A</p></div><div style='float: right;padding-right:30px;'><p>Press '0' for B</p> </div> </div></div>","null","","","","","","","","","","","","","",""
"2728","","test","audio-keyboard-response","206","619644","0.0-8.0-1.88","5e9b443223881d04be740737","condA","","resources/audio/wordStim/S3_AI_21_bxa_Step-8.wav","49","","","","","AI","resources/audio/wordStim/S3_AI_21_bxa_Step-8.wav","S3","21","bxa","8","MI","1","1","true"
"null","","fixation","html-keyboard-response","207","620646","0.0-8.0-0.89","5e9b443223881d04be740737","condA","","<div class=""vertical-center"" style='width:60%;'><p style='font-weight:bold;'>Does the middle word sound more like the first word (A) or the last word (B)?</p> <br> <div class=""container""> <div id=""a-box""> <p class=""title-text"">A</h3></p> </div> <div id=""x-box""> <p class=""title-text"">X<p> </div> <div id=""b-box""> <p class=""title-text"">B</p></div> <br> <div style='float: left;padding-left:30px;'><p>Press '1' for A</p></div><div style='float: right;padding-right:30px;'><p>Press '0' for B</p> </div> </div></div>","null","","","","","","","","","","","","","",""
"3181","","test","audio-keyboard-response","208","623828","0.0-8.0-1.89","5e9b443223881d04be740737","condA","","resources/audio/wordStim/S3_AI_30_bxa_Step-8.wav","48","","","","","AI","resources/audio/wordStim/S3_AI_30_bxa_Step-8.wav","S3","30","bxa","8","MI","1","0","false"
"null","","fixation","html-keyboard-response","209","624830","0.0-8.0-0.90","5e9b443223881d04be740737","condA","","<div class=""vertical-center"" style='width:60%;'><p style='font-weight:bold;'>Does the middle word sound more like the first word (A) or the last word (B)?</p> <br> <div class=""container""> <div id=""a-box""> <p class=""title-text"">A</h3></p> </div> <div id=""x-box""> <p class=""title-text"">X<p> </div> <div id=""b-box""> <p class=""title-text"">B</p></div> <br> <div style='float: left;padding-left:30px;'><p>Press '1' for A</p></div><div style='float: right;padding-right:30px;'><p>Press '0' for B</p> </div> </div></div>","null","","","","","","","","","","","","","",""
"4979","","test","audio-keyboard-response","210","629804","0.0-8.0-1.90","5e9b443223881d04be740737","condA","","resources/audio/wordStim/S3_AI_28_bxa_Step-6.wav","48","","","","","AI","resources/audio/wordStim/S3_AI_28_bxa_Step-6.wav","S3","28","bxa","6","MI","1","0","false"
"null","","fixation","html-keyboard-response","211","630806","0.0-8.0-0.91","5e9b443223881d04be740737","condA","","<div class=""vertical-center"" style='width:60%;'><p style='font-weight:bold;'>Does the middle word sound more like the first word (A) or the last word (B)?</p> <br> <div class=""container""> <div id=""a-box""> <p class=""title-text"">A</h3></p> </div> <div id=""x-box""> <p class=""title-text"">X<p> </div> <div id=""b-box""> <p class=""title-text"">B</p></div> <br> <div style='float: left;padding-left:30px;'><p>Press '1' for A</p></div><div style='float: right;padding-right:30px;'><p>Press '0' for B</p> </div> </div></div>","null","","","","","","","","","","","","","",""
"3851","","test","audio-keyboard-response","212","634660","0.0-8.0-1.91","5e9b443223881d04be740737","condA","","resources/audio/wordStim/S3_AU_16_bxa_Step-2.wav","48","","","","","AU","resources/audio/wordStim/S3_AU_16_bxa_Step-2.wav","S3","16","bxa","2","MI","1","0","false"
"null","","fixation","html-keyboard-response","213","635663","0.0-8.0-0.92","5e9b443223881d04be740737","condA","","<div class=""vertical-center"" style='width:60%;'><p style='font-weight:bold;'>Does the middle word sound more like the first word (A) or the last word (B)?</p> <br> <div class=""container""> <div id=""a-box""> <p class=""title-text"">A</h3></p> </div> <div id=""x-box""> <p class=""title-text"">X<p> </div> <div id=""b-box""> <p class=""title-text"">B</p></div> <br> <div style='float: left;padding-left:30px;'><p>Press '1' for A</p></div><div style='float: right;padding-right:30px;'><p>Press '0' for B</p> </div> </div></div>","null","","","","","","","","","","","","","",""
"3589","","test","audio-keyboard-response","214","639260","0.0-8.0-1.92","5e9b443223881d04be740737","condA","","resources/audio/wordStim/S9_AI_25_axb_Step-10.wav","48","","","","","AI","resources/audio/wordStim/S9_AI_25_axb_Step-10.wav","S9","25","axb","10","CN","0","0","true"
