"rt","url","trial_role","trial_type","trial_index","time_elapsed","internal_node_id","participantId","condition","view_history","stimulus","key_press","button_pressed","correct_answer","correct_response","success","vowel","wordStim","speaker","sentNum","order","step","speakerIdentity","raised_answer","key_response","raised_response"
"89230.16000003554","micr.con.consent.html","consent","external-html","0","89329","0.0-0.0","5eb6e12a2541f25eb790569a","condA","","","","","","","","","","","","","","","","",""
"52430.174999986775","","instructions","instructions","1","141761","0.0-1.0","5eb6e12a2541f25eb790569a","condA","[{""page_index"":0,""viewing_time"":11402.204999991227},{""page_index"":1,""viewing_time"":25731.620000035036},{""page_index"":2,""viewing_time"":15295.569999958389}]","","","","","","","","","","","","","","","",""
"null","","fixation","html-keyboard-response","2","142265","0.0-2.0-0.0","5eb6e12a2541f25eb790569a","condA","","<div class=""vertical-center"" style=""font-size:60px;"">+</div>","null","","","","","","","","","","","","","",""
"6040.875000006054","","tonetest","audio-button-response","3","148312","0.0-2.0-1.0","5eb6e12a2541f25eb790569a","condA","","../../src/audio/toneTest_3.wav","","2","2","true","","","","","","","","","","",""
"null","","fixation","html-keyboard-response","4","148815","0.0-2.0-0.1","5eb6e12a2541f25eb790569a","condA","","<div class=""vertical-center"" style=""font-size:60px;"">+</div>","null","","","","","","","","","","","","","",""
"5698.71000002604","","tonetest","audio-button-response","5","154515","0.0-2.0-1.1","5eb6e12a2541f25eb790569a","condA","","../../src/audio/toneTest_1.wav","","2","2","true","","","","","","","","","","",""
"null","","fixation","html-keyboard-response","6","155016","0.0-2.0-0.2","5eb6e12a2541f25eb790569a","condA","","<div class=""vertical-center"" style=""font-size:60px;"">+</div>","null","","","","","","","","","","","","","",""
"5574.78500000434","","tonetest","audio-button-response","7","160593","0.0-2.0-1.2","5eb6e12a2541f25eb790569a","condA","","../../src/audio/toneTest_1.wav","","2","2","true","","","","","","","","","","",""
"null","","fixation","html-keyboard-response","8","161095","0.0-2.0-0.3","5eb6e12a2541f25eb790569a","condA","","<div class=""vertical-center"" style=""font-size:60px;"">+</div>","null","","","","","","","","","","","","","",""
"5289.860000018962","","tonetest","audio-button-response","9","166387","0.0-2.0-1.3","5eb6e12a2541f25eb790569a","condA","","../../src/audio/toneTest_1.wav","","2","2","true","","","","","","","","","","",""
"null","","fixation","html-keyboard-response","10","166888","0.0-2.0-0.4","5eb6e12a2541f25eb790569a","condA","","<div class=""vertical-center"" style=""font-size:60px;"">+</div>","null","","","","","","","","","","","","","",""
"4740.59500003932","","tonetest","audio-button-response","11","171631","0.0-2.0-1.4","5eb6e12a2541f25eb790569a","condA","","../../src/audio/toneTest_5.wav","","0","0","true","","","","","","","","","","",""
"null","","fixation","html-keyboard-response","12","172133","0.0-2.0-0.5","5eb6e12a2541f25eb790569a","condA","","<div class=""vertical-center"" style=""font-size:60px;"">+</div>","null","","","","","","","","","","","","","",""
"4683.569999993779","","tonetest","audio-button-response","13","176819","0.0-2.0-1.5","5eb6e12a2541f25eb790569a","condA","","../../src/audio/toneTest_1.wav","","2","2","true","","","","","","","","","","",""
"21015.405000012834","","instructions","html-keyboard-response","14","197836","0.0-3.0","5eb6e12a2541f25eb790569a","condA","","<div class=""vertical-center""><p><b>Your score was 6/6.</b></p><p>If you scored below 6, please ensure that you are wearing properly functioning headphones and in a quiet location free of distractions.</p><p><i>To continue to the main experiment, press SPACE.</i></p></div>","32","","","","","","","","","","","","","",""
"","","","fullscreen","15","202835","0.0-4.0","5eb6e12a2541f25eb790569a","condA","","","","","","","true","","","","","","","","","",""
"57661.96500003571","","instructions","instructions","16","260499","0.0-5.0","5eb6e12a2541f25eb790569a","condA","[{""page_index"":0,""viewing_time"":57661.39500000281}]","","","","","","","","","","","","","","","",""
"null","","fixation","html-keyboard-response","17","261001","0.0-6.0-0.0","5eb6e12a2541f25eb790569a","condA","","<div class=""vertical-center"" style='width:60%;'><p style='font-weight:bold;'>Does the middle word sound more like the first word (A) or the last word (B)?</p> <br> <div class=""container""> <div id=""a-box""> <p class=""title-text"">A</h3></p> </div> <div id=""x-box""> <p class=""title-text"">X<p> </div> <div id=""b-box""> <p class=""title-text"">B</p></div> <br> <div style='float: left;padding-left:30px;'><p>Press '1' for A</p></div><div style='float: right;padding-right:30px;'><p>Press '0' for B</p> </div> </div></div>","null","","","","","","","","","","","","","",""
"60592","","practice","audio-keyboard-response","18","321642","0.0-6.0-1.0","5eb6e12a2541f25eb790569a","condA","","resources/audio/practiceStim/S1_AU_14_axb_Step-6.wav","48","","","","","","","","","","","","","",""
"null","","fixation","html-keyboard-response","19","322645","0.0-6.0-0.1","5eb6e12a2541f25eb790569a","condA","","<div class=""vertical-center"" style='width:60%;'><p style='font-weight:bold;'>Does the middle word sound more like the first word (A) or the last word (B)?</p> <br> <div class=""container""> <div id=""a-box""> <p class=""title-text"">A</h3></p> </div> <div id=""x-box""> <p class=""title-text"">X<p> </div> <div id=""b-box""> <p class=""title-text"">B</p></div> <br> <div style='float: left;padding-left:30px;'><p>Press '1' for A</p></div><div style='float: right;padding-right:30px;'><p>Press '0' for B</p> </div> </div></div>","null","","","","","","","","","","","","","",""
"4480","","practice","audio-keyboard-response","20","327176","0.0-6.0-1.1","5eb6e12a2541f25eb790569a","condA","","resources/audio/practiceStim/S1_AI_21_axb_Step-6.wav","49","","","","","","","","","","","","","",""
"null","","fixation","html-keyboard-response","21","328194","0.0-6.0-0.2","5eb6e12a2541f25eb790569a","condA","","<div class=""vertical-center"" style='width:60%;'><p style='font-weight:bold;'>Does the middle word sound more like the first word (A) or the last word (B)?</p> <br> <div class=""container""> <div id=""a-box""> <p class=""title-text"">A</h3></p> </div> <div id=""x-box""> <p class=""title-text"">X<p> </div> <div id=""b-box""> <p class=""title-text"">B</p></div> <br> <div style='float: left;padding-left:30px;'><p>Press '1' for A</p></div><div style='float: right;padding-right:30px;'><p>Press '0' for B</p> </div> </div></div>","null","","","","","","","","","","","","","",""
"4019","","practice","audio-keyboard-response","22","332216","0.0-6.0-1.2","5eb6e12a2541f25eb790569a","condA","","resources/audio/practiceStim/S1_AU_14_bxa_Step-6.wav","48","","","","","","","","","","","","","",""
"null","","fixation","html-keyboard-response","23","333241","0.0-6.0-0.3","5eb6e12a2541f25eb790569a","condA","","<div class=""vertical-center"" style='width:60%;'><p style='font-weight:bold;'>Does the middle word sound more like the first word (A) or the last word (B)?</p> <br> <div class=""container""> <div id=""a-box""> <p class=""title-text"">A</h3></p> </div> <div id=""x-box""> <p class=""title-text"">X<p> </div> <div id=""b-box""> <p class=""title-text"">B</p></div> <br> <div style='float: left;padding-left:30px;'><p>Press '1' for A</p></div><div style='float: right;padding-right:30px;'><p>Press '0' for B</p> </div> </div></div>","null","","","","","","","","","","","","","",""
"4680","","practice","audio-keyboard-response","24","337920","0.0-6.0-1.3","5eb6e12a2541f25eb790569a","condA","","resources/audio/practiceStim/S1_AI_21_bxa_Step-6.wav","49","","","","","","","","","","","","","",""
"3921.650000032969","","instructions","instructions","25","342345","0.0-7.0","5eb6e12a2541f25eb790569a","condA","[{""page_index"":0,""viewing_time"":3921.1349999532104}]","","","","","","","","","","","","","","","",""
"null","","fixation","html-keyboard-response","26","342858","0.0-8.0-0.0","5eb6e12a2541f25eb790569a","condA","","<div class=""vertical-center"" style='width:60%;'><p style='font-weight:bold;'>Does the middle word sound more like the first word (A) or the last word (B)?</p> <br> <div class=""container""> <div id=""a-box""> <p class=""title-text"">A</h3></p> </div> <div id=""x-box""> <p class=""title-text"">X<p> </div> <div id=""b-box""> <p class=""title-text"">B</p></div> <br> <div style='float: left;padding-left:30px;'><p>Press '1' for A</p></div><div style='float: right;padding-right:30px;'><p>Press '0' for B</p> </div> </div></div>","null","","","","","","","","","","","","","",""
"6389","","test","audio-keyboard-response","27","349256","0.0-8.0-1.0","5eb6e12a2541f25eb790569a","condA","","resources/audio/wordStim/S3_AU_14_axb_Step-5.wav","49","","","","","AU","resources/audio/wordStim/S3_AU_14_axb_Step-5.wav","S3","14","axb","5","MI","0","1","false"
"null","","fixation","html-keyboard-response","28","350278","0.0-8.0-0.1","5eb6e12a2541f25eb790569a","condA","","<div class=""vertical-center"" style='width:60%;'><p style='font-weight:bold;'>Does the middle word sound more like the first word (A) or the last word (B)?</p> <br> <div class=""container""> <div id=""a-box""> <p class=""title-text"">A</h3></p> </div> <div id=""x-box""> <p class=""title-text"">X<p> </div> <div id=""b-box""> <p class=""title-text"">B</p></div> <br> <div style='float: left;padding-left:30px;'><p>Press '1' for A</p></div><div style='float: right;padding-right:30px;'><p>Press '0' for B</p> </div> </div></div>","null","","","","","","","","","","","","","",""
"4629","","test","audio-keyboard-response","29","354912","0.0-8.0-1.1","5eb6e12a2541f25eb790569a","condA","","resources/audio/wordStim/S9_AI_22_bxa_Step-4.wav","49","","","","","AI","resources/audio/wordStim/S9_AI_22_bxa_Step-4.wav","S9","22","bxa","4","CN","1","1","true"
"null","","fixation","html-keyboard-response","30","355936","0.0-8.0-0.2","5eb6e12a2541f25eb790569a","condA","","<div class=""vertical-center"" style='width:60%;'><p style='font-weight:bold;'>Does the middle word sound more like the first word (A) or the last word (B)?</p> <br> <div class=""container""> <div id=""a-box""> <p class=""title-text"">A</h3></p> </div> <div id=""x-box""> <p class=""title-text"">X<p> </div> <div id=""b-box""> <p class=""title-text"">B</p></div> <br> <div style='float: left;padding-left:30px;'><p>Press '1' for A</p></div><div style='float: right;padding-right:30px;'><p>Press '0' for B</p> </div> </div></div>","null","","","","","","","","","","","","","",""
"3440","","test","audio-keyboard-response","31","359376","0.0-8.0-1.2","5eb6e12a2541f25eb790569a","condA","","resources/audio/wordStim/S3_AI_21_axb_Step-10.wav","48","","","","","AI","resources/audio/wordStim/S3_AI_21_axb_Step-10.wav","S3","21","axb","10","MI","0","0","true"
"null","","fixation","html-keyboard-response","32","360390","0.0-8.0-0.3","5eb6e12a2541f25eb790569a","condA","","<div class=""vertical-center"" style='width:60%;'><p style='font-weight:bold;'>Does the middle word sound more like the first word (A) or the last word (B)?</p> <br> <div class=""container""> <div id=""a-box""> <p class=""title-text"">A</h3></p> </div> <div id=""x-box""> <p class=""title-text"">X<p> </div> <div id=""b-box""> <p class=""title-text"">B</p></div> <br> <div style='float: left;padding-left:30px;'><p>Press '1' for A</p></div><div style='float: right;padding-right:30px;'><p>Press '0' for B</p> </div> </div></div>","null","","","","","","","","","","","","","",""
"4229","","test","audio-keyboard-response","33","364625","0.0-8.0-1.3","5eb6e12a2541f25eb790569a","condA","","resources/audio/wordStim/S9_AU_11_bxa_Step-6.wav","49","","","","","AU","resources/audio/wordStim/S9_AU_11_bxa_Step-6.wav","S9","11","bxa","6","CN","1","1","true"
"null","","fixation","html-keyboard-response","34","365653","0.0-8.0-0.4","5eb6e12a2541f25eb790569a","condA","","<div class=""vertical-center"" style='width:60%;'><p style='font-weight:bold;'>Does the middle word sound more like the first word (A) or the last word (B)?</p> <br> <div class=""container""> <div id=""a-box""> <p class=""title-text"">A</h3></p> </div> <div id=""x-box""> <p class=""title-text"">X<p> </div> <div id=""b-box""> <p class=""title-text"">B</p></div> <br> <div style='float: left;padding-left:30px;'><p>Press '1' for A</p></div><div style='float: right;padding-right:30px;'><p>Press '0' for B</p> </div> </div></div>","null","","","","","","","","","","","","","",""
"3912","","test","audio-keyboard-response","35","369561","0.0-8.0-1.4","5eb6e12a2541f25eb790569a","condA","","resources/audio/wordStim/S9_AU_11_bxa_Step-2.wav","49","","","","","AU","resources/audio/wordStim/S9_AU_11_bxa_Step-2.wav","S9","11","bxa","2","CN","1","1","true"
"null","","fixation","html-keyboard-response","36","370578","0.0-8.0-0.5","5eb6e12a2541f25eb790569a","condA","","<div class=""vertical-center"" style='width:60%;'><p style='font-weight:bold;'>Does the middle word sound more like the first word (A) or the last word (B)?</p> <br> <div class=""container""> <div id=""a-box""> <p class=""title-text"">A</h3></p> </div> <div id=""x-box""> <p class=""title-text"">X<p> </div> <div id=""b-box""> <p class=""title-text"">B</p></div> <br> <div style='float: left;padding-left:30px;'><p>Press '1' for A</p></div><div style='float: right;padding-right:30px;'><p>Press '0' for B</p> </div> </div></div>","null","","","","","","","","","","","","","",""
"3811","","test","audio-keyboard-response","37","374392","0.0-8.0-1.5","5eb6e12a2541f25eb790569a","condA","","resources/audio/wordStim/S3_AI_23_axb_Step-9.wav","49","","","","","AI","resources/audio/wordStim/S3_AI_23_axb_Step-9.wav","S3","23","axb","9","MI","0","1","false"
"null","","fixation","html-keyboard-response","38","375417","0.0-8.0-0.6","5eb6e12a2541f25eb790569a","condA","","<div class=""vertical-center"" style='width:60%;'><p style='font-weight:bold;'>Does the middle word sound more like the first word (A) or the last word (B)?</p> <br> <div class=""container""> <div id=""a-box""> <p class=""title-text"">A</h3></p> </div> <div id=""x-box""> <p class=""title-text"">X<p> </div> <div id=""b-box""> <p class=""title-text"">B</p></div> <br> <div style='float: left;padding-left:30px;'><p>Press '1' for A</p></div><div style='float: right;padding-right:30px;'><p>Press '0' for B</p> </div> </div></div>","null","","","","","","","","","","","","","",""
"4160","","test","audio-keyboard-response","39","379584","0.0-8.0-1.6","5eb6e12a2541f25eb790569a","condA","","resources/audio/wordStim/S9_AI_29_axb_Step-5.wav","48","","","","","AI","resources/audio/wordStim/S9_AI_29_axb_Step-5.wav","S9","29","axb","5","CN","0","0","true"
"null","","fixation","html-keyboard-response","40","380600","0.0-8.0-0.7","5eb6e12a2541f25eb790569a","condA","","<div class=""vertical-center"" style='width:60%;'><p style='font-weight:bold;'>Does the middle word sound more like the first word (A) or the last word (B)?</p> <br> <div class=""container""> <div id=""a-box""> <p class=""title-text"">A</h3></p> </div> <div id=""x-box""> <p class=""title-text"">X<p> </div> <div id=""b-box""> <p class=""title-text"">B</p></div> <br> <div style='float: left;padding-left:30px;'><p>Press '1' for A</p></div><div style='float: right;padding-right:30px;'><p>Press '0' for B</p> </div> </div></div>","null","","","","","","","","","","","","","",""
"4240","","test","audio-keyboard-response","41","384840","0.0-8.0-1.7","5eb6e12a2541f25eb790569a","condA","","resources/audio/wordStim/S3_AU_17_bxa_Step-6.wav","49","","","","","AU","resources/audio/wordStim/S3_AU_17_bxa_Step-6.wav","S3","17","bxa","6","MI","1","1","true"
"null","","fixation","html-keyboard-response","42","385867","0.0-8.0-0.8","5eb6e12a2541f25eb790569a","condA","","<div class=""vertical-center"" style='width:60%;'><p style='font-weight:bold;'>Does the middle word sound more like the first word (A) or the last word (B)?</p> <br> <div class=""container""> <div id=""a-box""> <p class=""title-text"">A</h3></p> </div> <div id=""x-box""> <p class=""title-text"">X<p> </div> <div id=""b-box""> <p class=""title-text"">B</p></div> <br> <div style='float: left;padding-left:30px;'><p>Press '1' for A</p></div><div style='float: right;padding-right:30px;'><p>Press '0' for B</p> </div> </div></div>","null","","","","","","","","","","","","","",""
"6051","","test","audio-keyboard-response","43","391928","0.0-8.0-1.8","5eb6e12a2541f25eb790569a","condA","","resources/audio/wordStim/S3_AI_22_bxa_Step-4.wav","48","","","","","AI","resources/audio/wordStim/S3_AI_22_bxa_Step-4.wav","S3","22","bxa","4","MI","1","0","false"
"null","","fixation","html-keyboard-response","44","392948","0.0-8.0-0.9","5eb6e12a2541f25eb790569a","condA","","<div class=""vertical-center"" style='width:60%;'><p style='font-weight:bold;'>Does the middle word sound more like the first word (A) or the last word (B)?</p> <br> <div class=""container""> <div id=""a-box""> <p class=""title-text"">A</h3></p> </div> <div id=""x-box""> <p class=""title-text"">X<p> </div> <div id=""b-box""> <p class=""title-text"">B</p></div> <br> <div style='float: left;padding-left:30px;'><p>Press '1' for A</p></div><div style='float: right;padding-right:30px;'><p>Press '0' for B</p> </div> </div></div>","null","","","","","","","","","","","","","",""
"4040","","test","audio-keyboard-response","45","396991","0.0-8.0-1.9","5eb6e12a2541f25eb790569a","condA","","resources/audio/wordStim/S9_AI_24_bxa_Step-2.wav","49","","","","","AI","resources/audio/wordStim/S9_AI_24_bxa_Step-2.wav","S9","24","bxa","2","CN","1","1","true"
"null","","fixation","html-keyboard-response","46","398012","0.0-8.0-0.10","5eb6e12a2541f25eb790569a","condA","","<div class=""vertical-center"" style='width:60%;'><p style='font-weight:bold;'>Does the middle word sound more like the first word (A) or the last word (B)?</p> <br> <div class=""container""> <div id=""a-box""> <p class=""title-text"">A</h3></p> </div> <div id=""x-box""> <p class=""title-text"">X<p> </div> <div id=""b-box""> <p class=""title-text"">B</p></div> <br> <div style='float: left;padding-left:30px;'><p>Press '1' for A</p></div><div style='float: right;padding-right:30px;'><p>Press '0' for B</p> </div> </div></div>","null","","","","","","","","","","","","","",""
"3811","","test","audio-keyboard-response","47","401824","0.0-8.0-1.10","5eb6e12a2541f25eb790569a","condA","","resources/audio/wordStim/S9_AI_22_axb_Step-7.wav","49","","","","","AI","resources/audio/wordStim/S9_AI_22_axb_Step-7.wav","S9","22","axb","7","CN","0","1","false"
"null","","fixation","html-keyboard-response","48","402847","0.0-8.0-0.11","5eb6e12a2541f25eb790569a","condA","","<div class=""vertical-center"" style='width:60%;'><p style='font-weight:bold;'>Does the middle word sound more like the first word (A) or the last word (B)?</p> <br> <div class=""container""> <div id=""a-box""> <p class=""title-text"">A</h3></p> </div> <div id=""x-box""> <p class=""title-text"">X<p> </div> <div id=""b-box""> <p class=""title-text"">B</p></div> <br> <div style='float: left;padding-left:30px;'><p>Press '1' for A</p></div><div style='float: right;padding-right:30px;'><p>Press '0' for B</p> </div> </div></div>","null","","","","","","","","","","","","","",""
"3312","","test","audio-keyboard-response","49","406159","0.0-8.0-1.11","5eb6e12a2541f25eb790569a","condA","","resources/audio/wordStim/S3_AU_19_axb_Step-3.wav","49","","","","","AU","resources/audio/wordStim/S3_AU_19_axb_Step-3.wav","S3","19","axb","3","MI","0","1","false"
"null","","fixation","html-keyboard-response","50","407187","0.0-8.0-0.12","5eb6e12a2541f25eb790569a","condA","","<div class=""vertical-center"" style='width:60%;'><p style='font-weight:bold;'>Does the middle word sound more like the first word (A) or the last word (B)?</p> <br> <div class=""container""> <div id=""a-box""> <p class=""title-text"">A</h3></p> </div> <div id=""x-box""> <p class=""title-text"">X<p> </div> <div id=""b-box""> <p class=""title-text"">B</p></div> <br> <div style='float: left;padding-left:30px;'><p>Press '1' for A</p></div><div style='float: right;padding-right:30px;'><p>Press '0' for B</p> </div> </div></div>","null","","","","","","","","","","","","","",""
"3579","","test","audio-keyboard-response","51","410776","0.0-8.0-1.12","5eb6e12a2541f25eb790569a","condA","","resources/audio/wordStim/S3_AI_28_bxa_Step-2.wav","48","","","","","AI","resources/audio/wordStim/S3_AI_28_bxa_Step-2.wav","S3","28","bxa","2","MI","1","0","false"
"null","","fixation","html-keyboard-response","52","411798","0.0-8.0-0.13","5eb6e12a2541f25eb790569a","condA","","<div class=""vertical-center"" style='width:60%;'><p style='font-weight:bold;'>Does the middle word sound more like the first word (A) or the last word (B)?</p> <br> <div class=""container""> <div id=""a-box""> <p class=""title-text"">A</h3></p> </div> <div id=""x-box""> <p class=""title-text"">X<p> </div> <div id=""b-box""> <p class=""title-text"">B</p></div> <br> <div style='float: left;padding-left:30px;'><p>Press '1' for A</p></div><div style='float: right;padding-right:30px;'><p>Press '0' for B</p> </div> </div></div>","null","","","","","","","","","","","","","",""
"3459","","test","audio-keyboard-response","53","415263","0.0-8.0-1.13","5eb6e12a2541f25eb790569a","condA","","resources/audio/wordStim/S3_AU_20_axb_Step-3.wav","49","","","","","AU","resources/audio/wordStim/S3_AU_20_axb_Step-3.wav","S3","20","axb","3","MI","0","1","false"
"null","","fixation","html-keyboard-response","54","416288","0.0-8.0-0.14","5eb6e12a2541f25eb790569a","condA","","<div class=""vertical-center"" style='width:60%;'><p style='font-weight:bold;'>Does the middle word sound more like the first word (A) or the last word (B)?</p> <br> <div class=""container""> <div id=""a-box""> <p class=""title-text"">A</h3></p> </div> <div id=""x-box""> <p class=""title-text"">X<p> </div> <div id=""b-box""> <p class=""title-text"">B</p></div> <br> <div style='float: left;padding-left:30px;'><p>Press '1' for A</p></div><div style='float: right;padding-right:30px;'><p>Press '0' for B</p> </div> </div></div>","null","","","","","","","","","","","","","",""
"3171","","test","audio-keyboard-response","55","419463","0.0-8.0-1.14","5eb6e12a2541f25eb790569a","condA","","resources/audio/wordStim/S9_AU_20_bxa_Step-8.wav","49","","","","","AU","resources/audio/wordStim/S9_AU_20_bxa_Step-8.wav","S9","20","bxa","8","CN","1","1","true"
"null","","fixation","html-keyboard-response","56","420480","0.0-8.0-0.15","5eb6e12a2541f25eb790569a","condA","","<div class=""vertical-center"" style='width:60%;'><p style='font-weight:bold;'>Does the middle word sound more like the first word (A) or the last word (B)?</p> <br> <div class=""container""> <div id=""a-box""> <p class=""title-text"">A</h3></p> </div> <div id=""x-box""> <p class=""title-text"">X<p> </div> <div id=""b-box""> <p class=""title-text"">B</p></div> <br> <div style='float: left;padding-left:30px;'><p>Press '1' for A</p></div><div style='float: right;padding-right:30px;'><p>Press '0' for B</p> </div> </div></div>","null","","","","","","","","","","","","","",""
"3760","","test","audio-keyboard-response","57","424248","0.0-8.0-1.15","5eb6e12a2541f25eb790569a","condA","","resources/audio/wordStim/S3_AU_20_bxa_Step-4.wav","48","","","","","AU","resources/audio/wordStim/S3_AU_20_bxa_Step-4.wav","S3","20","bxa","4","MI","1","0","false"
"null","","fixation","html-keyboard-response","58","425274","0.0-8.0-0.16","5eb6e12a2541f25eb790569a","condA","","<div class=""vertical-center"" style='width:60%;'><p style='font-weight:bold;'>Does the middle word sound more like the first word (A) or the last word (B)?</p> <br> <div class=""container""> <div id=""a-box""> <p class=""title-text"">A</h3></p> </div> <div id=""x-box""> <p class=""title-text"">X<p> </div> <div id=""b-box""> <p class=""title-text"">B</p></div> <br> <div style='float: left;padding-left:30px;'><p>Press '1' for A</p></div><div style='float: right;padding-right:30px;'><p>Press '0' for B</p> </div> </div></div>","null","","","","","","","","","","","","","",""
"4291","","test","audio-keyboard-response","59","429559","0.0-8.0-1.16","5eb6e12a2541f25eb790569a","condA","","resources/audio/wordStim/S3_AU_16_bxa_Step-4.wav","49","","","","","AU","resources/audio/wordStim/S3_AU_16_bxa_Step-4.wav","S3","16","bxa","4","MI","1","1","true"
"null","","fixation","html-keyboard-response","60","430573","0.0-8.0-0.17","5eb6e12a2541f25eb790569a","condA","","<div class=""vertical-center"" style='width:60%;'><p style='font-weight:bold;'>Does the middle word sound more like the first word (A) or the last word (B)?</p> <br> <div class=""container""> <div id=""a-box""> <p class=""title-text"">A</h3></p> </div> <div id=""x-box""> <p class=""title-text"">X<p> </div> <div id=""b-box""> <p class=""title-text"">B</p></div> <br> <div style='float: left;padding-left:30px;'><p>Press '1' for A</p></div><div style='float: right;padding-right:30px;'><p>Press '0' for B</p> </div> </div></div>","null","","","","","","","","","","","","","",""
"4661","","test","audio-keyboard-response","61","435233","0.0-8.0-1.17","5eb6e12a2541f25eb790569a","condA","","resources/audio/wordStim/S3_AU_11_bxa_Step-4.wav","48","","","","","AU","resources/audio/wordStim/S3_AU_11_bxa_Step-4.wav","S3","11","bxa","4","MI","1","0","false"
"null","","fixation","html-keyboard-response","62","436262","0.0-8.0-0.18","5eb6e12a2541f25eb790569a","condA","","<div class=""vertical-center"" style='width:60%;'><p style='font-weight:bold;'>Does the middle word sound more like the first word (A) or the last word (B)?</p> <br> <div class=""container""> <div id=""a-box""> <p class=""title-text"">A</h3></p> </div> <div id=""x-box""> <p class=""title-text"">X<p> </div> <div id=""b-box""> <p class=""title-text"">B</p></div> <br> <div style='float: left;padding-left:30px;'><p>Press '1' for A</p></div><div style='float: right;padding-right:30px;'><p>Press '0' for B</p> </div> </div></div>","null","","","","","","","","","","","","","",""
"3701","","test","audio-keyboard-response","63","439968","0.0-8.0-1.18","5eb6e12a2541f25eb790569a","condA","","resources/audio/wordStim/S3_AU_17_axb_Step-3.wav","49","","","","","AU","resources/audio/wordStim/S3_AU_17_axb_Step-3.wav","S3","17","axb","3","MI","0","1","false"
"null","","fixation","html-keyboard-response","64","441001","0.0-8.0-0.19","5eb6e12a2541f25eb790569a","condA","","<div class=""vertical-center"" style='width:60%;'><p style='font-weight:bold;'>Does the middle word sound more like the first word (A) or the last word (B)?</p> <br> <div class=""container""> <div id=""a-box""> <p class=""title-text"">A</h3></p> </div> <div id=""x-box""> <p class=""title-text"">X<p> </div> <div id=""b-box""> <p class=""title-text"">B</p></div> <br> <div style='float: left;padding-left:30px;'><p>Press '1' for A</p></div><div style='float: right;padding-right:30px;'><p>Press '0' for B</p> </div> </div></div>","null","","","","","","","","","","","","","",""
"3608","","test","audio-keyboard-response","65","444616","0.0-8.0-1.19","5eb6e12a2541f25eb790569a","condA","","resources/audio/wordStim/S9_AU_13_axb_Step-5.wav","49","","","","","AU","resources/audio/wordStim/S9_AU_13_axb_Step-5.wav","S9","13","axb","5","CN","0","1","false"
"null","","fixation","html-keyboard-response","66","445638","0.0-8.0-0.20","5eb6e12a2541f25eb790569a","condA","","<div class=""vertical-center"" style='width:60%;'><p style='font-weight:bold;'>Does the middle word sound more like the first word (A) or the last word (B)?</p> <br> <div class=""container""> <div id=""a-box""> <p class=""title-text"">A</h3></p> </div> <div id=""x-box""> <p class=""title-text"">X<p> </div> <div id=""b-box""> <p class=""title-text"">B</p></div> <br> <div style='float: left;padding-left:30px;'><p>Press '1' for A</p></div><div style='float: right;padding-right:30px;'><p>Press '0' for B</p> </div> </div></div>","null","","","","","","","","","","","","","",""
"3549","","test","audio-keyboard-response","67","449192","0.0-8.0-1.20","5eb6e12a2541f25eb790569a","condA","","resources/audio/wordStim/S9_AU_19_bxa_Step-4.wav","49","","","","","AU","resources/audio/wordStim/S9_AU_19_bxa_Step-4.wav","S9","19","bxa","4","CN","1","1","true"
"null","","fixation","html-keyboard-response","68","450217","0.0-8.0-0.21","5eb6e12a2541f25eb790569a","condA","","<div class=""vertical-center"" style='width:60%;'><p style='font-weight:bold;'>Does the middle word sound more like the first word (A) or the last word (B)?</p> <br> <div class=""container""> <div id=""a-box""> <p class=""title-text"">A</h3></p> </div> <div id=""x-box""> <p class=""title-text"">X<p> </div> <div id=""b-box""> <p class=""title-text"">B</p></div> <br> <div style='float: left;padding-left:30px;'><p>Press '1' for A</p></div><div style='float: right;padding-right:30px;'><p>Press '0' for B</p> </div> </div></div>","null","","","","","","","","","","","","","",""
"4429","","test","audio-keyboard-response","69","454656","0.0-8.0-1.21","5eb6e12a2541f25eb790569a","condA","","resources/audio/wordStim/S3_AI_30_axb_Step-5.wav","48","","","","","AI","resources/audio/wordStim/S3_AI_30_axb_Step-5.wav","S3","30","axb","5","MI","0","0","true"
"null","","fixation","html-keyboard-response","70","455683","0.0-8.0-0.22","5eb6e12a2541f25eb790569a","condA","","<div class=""vertical-center"" style='width:60%;'><p style='font-weight:bold;'>Does the middle word sound more like the first word (A) or the last word (B)?</p> <br> <div class=""container""> <div id=""a-box""> <p class=""title-text"">A</h3></p> </div> <div id=""x-box""> <p class=""title-text"">X<p> </div> <div id=""b-box""> <p class=""title-text"">B</p></div> <br> <div style='float: left;padding-left:30px;'><p>Press '1' for A</p></div><div style='float: right;padding-right:30px;'><p>Press '0' for B</p> </div> </div></div>","null","","","","","","","","","","","","","",""
"3248","","test","audio-keyboard-response","71","458935","0.0-8.0-1.22","5eb6e12a2541f25eb790569a","condA","","resources/audio/wordStim/S3_AU_20_axb_Step-5.wav","49","","","","","AU","resources/audio/wordStim/S3_AU_20_axb_Step-5.wav","S3","20","axb","5","MI","0","1","false"
"null","","fixation","html-keyboard-response","72","459967","0.0-8.0-0.23","5eb6e12a2541f25eb790569a","condA","","<div class=""vertical-center"" style='width:60%;'><p style='font-weight:bold;'>Does the middle word sound more like the first word (A) or the last word (B)?</p> <br> <div class=""container""> <div id=""a-box""> <p class=""title-text"">A</h3></p> </div> <div id=""x-box""> <p class=""title-text"">X<p> </div> <div id=""b-box""> <p class=""title-text"">B</p></div> <br> <div style='float: left;padding-left:30px;'><p>Press '1' for A</p></div><div style='float: right;padding-right:30px;'><p>Press '0' for B</p> </div> </div></div>","null","","","","","","","","","","","","","",""
"2941","","test","audio-keyboard-response","73","462910","0.0-8.0-1.23","5eb6e12a2541f25eb790569a","condA","","resources/audio/wordStim/S3_AU_19_bxa_Step-6.wav","49","","","","","AU","resources/audio/wordStim/S3_AU_19_bxa_Step-6.wav","S3","19","bxa","6","MI","1","1","true"
"null","","fixation","html-keyboard-response","74","463927","0.0-8.0-0.24","5eb6e12a2541f25eb790569a","condA","","<div class=""vertical-center"" style='width:60%;'><p style='font-weight:bold;'>Does the middle word sound more like the first word (A) or the last word (B)?</p> <br> <div class=""container""> <div id=""a-box""> <p class=""title-text"">A</h3></p> </div> <div id=""x-box""> <p class=""title-text"">X<p> </div> <div id=""b-box""> <p class=""title-text"">B</p></div> <br> <div style='float: left;padding-left:30px;'><p>Press '1' for A</p></div><div style='float: right;padding-right:30px;'><p>Press '0' for B</p> </div> </div></div>","null","","","","","","","","","","","","","",""
"3952","","test","audio-keyboard-response","75","467880","0.0-8.0-1.24","5eb6e12a2541f25eb790569a","condA","","resources/audio/wordStim/S3_AU_17_bxa_Step-2.wav","49","","","","","AU","resources/audio/wordStim/S3_AU_17_bxa_Step-2.wav","S3","17","bxa","2","MI","1","1","true"
"null","","fixation","html-keyboard-response","76","468892","0.0-8.0-0.25","5eb6e12a2541f25eb790569a","condA","","<div class=""vertical-center"" style='width:60%;'><p style='font-weight:bold;'>Does the middle word sound more like the first word (A) or the last word (B)?</p> <br> <div class=""container""> <div id=""a-box""> <p class=""title-text"">A</h3></p> </div> <div id=""x-box""> <p class=""title-text"">X<p> </div> <div id=""b-box""> <p class=""title-text"">B</p></div> <br> <div style='float: left;padding-left:30px;'><p>Press '1' for A</p></div><div style='float: right;padding-right:30px;'><p>Press '0' for B</p> </div> </div></div>","null","","","","","","","","","","","","","",""
"3661","","test","audio-keyboard-response","77","472552","0.0-8.0-1.25","5eb6e12a2541f25eb790569a","condA","","resources/audio/wordStim/S3_AU_15_bxa_Step-4.wav","49","","","","","AU","resources/audio/wordStim/S3_AU_15_bxa_Step-4.wav","S3","15","bxa","4","MI","1","1","true"
"null","","fixation","html-keyboard-response","78","473578","0.0-8.0-0.26","5eb6e12a2541f25eb790569a","condA","","<div class=""vertical-center"" style='width:60%;'><p style='font-weight:bold;'>Does the middle word sound more like the first word (A) or the last word (B)?</p> <br> <div class=""container""> <div id=""a-box""> <p class=""title-text"">A</h3></p> </div> <div id=""x-box""> <p class=""title-text"">X<p> </div> <div id=""b-box""> <p class=""title-text"">B</p></div> <br> <div style='float: left;padding-left:30px;'><p>Press '1' for A</p></div><div style='float: right;padding-right:30px;'><p>Press '0' for B</p> </div> </div></div>","null","","","","","","","","","","","","","",""
"3309","","test","audio-keyboard-response","79","476895","0.0-8.0-1.26","5eb6e12a2541f25eb790569a","condA","","resources/audio/wordStim/S9_AU_16_axb_Step-10.wav","48","","","","","AU","resources/audio/wordStim/S9_AU_16_axb_Step-10.wav","S9","16","axb","10","CN","0","0","true"
"16314.810000010766","","break","html-keyboard-response","80","493714","0.0-8.0-2.26-0.26","5eb6e12a2541f25eb790569a","condA","","<div class=""vertical-center""><p>Feel free to take a break!</p><i>When you're ready to continue, press SPACE to begin the next trial.</i></p></div>","32","","","","","","","","","","","","","",""
"null","","fixation","html-keyboard-response","81","494230","0.0-8.0-0.27","5eb6e12a2541f25eb790569a","condA","","<div class=""vertical-center"" style='width:60%;'><p style='font-weight:bold;'>Does the middle word sound more like the first word (A) or the last word (B)?</p> <br> <div class=""container""> <div id=""a-box""> <p class=""title-text"">A</h3></p> </div> <div id=""x-box""> <p class=""title-text"">X<p> </div> <div id=""b-box""> <p class=""title-text"">B</p></div> <br> <div style='float: left;padding-left:30px;'><p>Press '1' for A</p></div><div style='float: right;padding-right:30px;'><p>Press '0' for B</p> </div> </div></div>","null","","","","","","","","","","","","","",""
"3211","","test","audio-keyboard-response","82","497447","0.0-8.0-1.27","5eb6e12a2541f25eb790569a","condA","","resources/audio/wordStim/S9_AI_27_bxa_Step-4.wav","49","","","","","AI","resources/audio/wordStim/S9_AI_27_bxa_Step-4.wav","S9","27","bxa","4","CN","1","1","true"
"null","","fixation","html-keyboard-response","83","498466","0.0-8.0-0.28","5eb6e12a2541f25eb790569a","condA","","<div class=""vertical-center"" style='width:60%;'><p style='font-weight:bold;'>Does the middle word sound more like the first word (A) or the last word (B)?</p> <br> <div class=""container""> <div id=""a-box""> <p class=""title-text"">A</h3></p> </div> <div id=""x-box""> <p class=""title-text"">X<p> </div> <div id=""b-box""> <p class=""title-text"">B</p></div> <br> <div style='float: left;padding-left:30px;'><p>Press '1' for A</p></div><div style='float: right;padding-right:30px;'><p>Press '0' for B</p> </div> </div></div>","null","","","","","","","","","","","","","",""
"3899","","test","audio-keyboard-response","84","502375","0.0-8.0-1.28","5eb6e12a2541f25eb790569a","condA","","resources/audio/wordStim/S9_AI_22_bxa_Step-2.wav","49","","","","","AI","resources/audio/wordStim/S9_AI_22_bxa_Step-2.wav","S9","22","bxa","2","CN","1","1","true"
"null","","fixation","html-keyboard-response","85","503388","0.0-8.0-0.29","5eb6e12a2541f25eb790569a","condA","","<div class=""vertical-center"" style='width:60%;'><p style='font-weight:bold;'>Does the middle word sound more like the first word (A) or the last word (B)?</p> <br> <div class=""container""> <div id=""a-box""> <p class=""title-text"">A</h3></p> </div> <div id=""x-box""> <p class=""title-text"">X<p> </div> <div id=""b-box""> <p class=""title-text"">B</p></div> <br> <div style='float: left;padding-left:30px;'><p>Press '1' for A</p></div><div style='float: right;padding-right:30px;'><p>Press '0' for B</p> </div> </div></div>","null","","","","","","","","","","","","","",""
"4149","","test","audio-keyboard-response","86","507543","0.0-8.0-1.29","5eb6e12a2541f25eb790569a","condA","","resources/audio/wordStim/S9_AI_27_bxa_Step-2.wav","49","","","","","AI","resources/audio/wordStim/S9_AI_27_bxa_Step-2.wav","S9","27","bxa","2","CN","1","1","true"
"null","","fixation","html-keyboard-response","87","508560","0.0-8.0-0.30","5eb6e12a2541f25eb790569a","condA","","<div class=""vertical-center"" style='width:60%;'><p style='font-weight:bold;'>Does the middle word sound more like the first word (A) or the last word (B)?</p> <br> <div class=""container""> <div id=""a-box""> <p class=""title-text"">A</h3></p> </div> <div id=""x-box""> <p class=""title-text"">X<p> </div> <div id=""b-box""> <p class=""title-text"">B</p></div> <br> <div style='float: left;padding-left:30px;'><p>Press '1' for A</p></div><div style='float: right;padding-right:30px;'><p>Press '0' for B</p> </div> </div></div>","null","","","","","","","","","","","","","",""
"3320","","test","audio-keyboard-response","88","511887","0.0-8.0-1.30","5eb6e12a2541f25eb790569a","condA","","resources/audio/wordStim/S9_AU_17_bxa_Step-2.wav","48","","","","","AU","resources/audio/wordStim/S9_AU_17_bxa_Step-2.wav","S9","17","bxa","2","CN","1","0","false"
"null","","fixation","html-keyboard-response","89","512912","0.0-8.0-0.31","5eb6e12a2541f25eb790569a","condA","","<div class=""vertical-center"" style='width:60%;'><p style='font-weight:bold;'>Does the middle word sound more like the first word (A) or the last word (B)?</p> <br> <div class=""container""> <div id=""a-box""> <p class=""title-text"">A</h3></p> </div> <div id=""x-box""> <p class=""title-text"">X<p> </div> <div id=""b-box""> <p class=""title-text"">B</p></div> <br> <div style='float: left;padding-left:30px;'><p>Press '1' for A</p></div><div style='float: right;padding-right:30px;'><p>Press '0' for B</p> </div> </div></div>","null","","","","","","","","","","","","","",""
"3280","","test","audio-keyboard-response","90","516190","0.0-8.0-1.31","5eb6e12a2541f25eb790569a","condA","","resources/audio/wordStim/S3_AI_21_axb_Step-9.wav","48","","","","","AI","resources/audio/wordStim/S3_AI_21_axb_Step-9.wav","S3","21","axb","9","MI","0","0","true"
"null","","fixation","html-keyboard-response","91","517202","0.0-8.0-0.32","5eb6e12a2541f25eb790569a","condA","","<div class=""vertical-center"" style='width:60%;'><p style='font-weight:bold;'>Does the middle word sound more like the first word (A) or the last word (B)?</p> <br> <div class=""container""> <div id=""a-box""> <p class=""title-text"">A</h3></p> </div> <div id=""x-box""> <p class=""title-text"">X<p> </div> <div id=""b-box""> <p class=""title-text"">B</p></div> <br> <div style='float: left;padding-left:30px;'><p>Press '1' for A</p></div><div style='float: right;padding-right:30px;'><p>Press '0' for B</p> </div> </div></div>","null","","","","","","","","","","","","","",""
"3408","","test","audio-keyboard-response","92","520615","0.0-8.0-1.32","5eb6e12a2541f25eb790569a","condA","","resources/audio/wordStim/S3_AU_11_bxa_Step-8.wav","49","","","","","AU","resources/audio/wordStim/S3_AU_11_bxa_Step-8.wav","S3","11","bxa","8","MI","1","1","true"
"null","","fixation","html-keyboard-response","93","521639","0.0-8.0-0.33","5eb6e12a2541f25eb790569a","condA","","<div class=""vertical-center"" style='width:60%;'><p style='font-weight:bold;'>Does the middle word sound more like the first word (A) or the last word (B)?</p> <br> <div class=""container""> <div id=""a-box""> <p class=""title-text"">A</h3></p> </div> <div id=""x-box""> <p class=""title-text"">X<p> </div> <div id=""b-box""> <p class=""title-text"">B</p></div> <br> <div style='float: left;padding-left:30px;'><p>Press '1' for A</p></div><div style='float: right;padding-right:30px;'><p>Press '0' for B</p> </div> </div></div>","null","","","","","","","","","","","","","",""
"3469","","test","audio-keyboard-response","94","525111","0.0-8.0-1.33","5eb6e12a2541f25eb790569a","condA","","resources/audio/wordStim/S9_AU_19_axb_Step-5.wav","49","","","","","AU","resources/audio/wordStim/S9_AU_19_axb_Step-5.wav","S9","19","axb","5","CN","0","1","false"
"null","","fixation","html-keyboard-response","95","526136","0.0-8.0-0.34","5eb6e12a2541f25eb790569a","condA","","<div class=""vertical-center"" style='width:60%;'><p style='font-weight:bold;'>Does the middle word sound more like the first word (A) or the last word (B)?</p> <br> <div class=""container""> <div id=""a-box""> <p class=""title-text"">A</h3></p> </div> <div id=""x-box""> <p class=""title-text"">X<p> </div> <div id=""b-box""> <p class=""title-text"">B</p></div> <br> <div style='float: left;padding-left:30px;'><p>Press '1' for A</p></div><div style='float: right;padding-right:30px;'><p>Press '0' for B</p> </div> </div></div>","null","","","","","","","","","","","","","",""
"3531","","test","audio-keyboard-response","96","529663","0.0-8.0-1.34","5eb6e12a2541f25eb790569a","condA","","resources/audio/wordStim/S9_AU_17_bxa_Step-8.wav","49","","","","","AU","resources/audio/wordStim/S9_AU_17_bxa_Step-8.wav","S9","17","bxa","8","CN","1","1","true"
"null","","fixation","html-keyboard-response","97","530677","0.0-8.0-0.35","5eb6e12a2541f25eb790569a","condA","","<div class=""vertical-center"" style='width:60%;'><p style='font-weight:bold;'>Does the middle word sound more like the first word (A) or the last word (B)?</p> <br> <div class=""container""> <div id=""a-box""> <p class=""title-text"">A</h3></p> </div> <div id=""x-box""> <p class=""title-text"">X<p> </div> <div id=""b-box""> <p class=""title-text"">B</p></div> <br> <div style='float: left;padding-left:30px;'><p>Press '1' for A</p></div><div style='float: right;padding-right:30px;'><p>Press '0' for B</p> </div> </div></div>","null","","","","","","","","","","","","","",""
"3829","","test","audio-keyboard-response","98","534509","0.0-8.0-1.35","5eb6e12a2541f25eb790569a","condA","","resources/audio/wordStim/S3_AU_18_axb_Step-3.wav","49","","","","","AU","resources/audio/wordStim/S3_AU_18_axb_Step-3.wav","S3","18","axb","3","MI","0","1","false"
"null","","fixation","html-keyboard-response","99","535524","0.0-8.0-0.36","5eb6e12a2541f25eb790569a","condA","","<div class=""vertical-center"" style='width:60%;'><p style='font-weight:bold;'>Does the middle word sound more like the first word (A) or the last word (B)?</p> <br> <div class=""container""> <div id=""a-box""> <p class=""title-text"">A</h3></p> </div> <div id=""x-box""> <p class=""title-text"">X<p> </div> <div id=""b-box""> <p class=""title-text"">B</p></div> <br> <div style='float: left;padding-left:30px;'><p>Press '1' for A</p></div><div style='float: right;padding-right:30px;'><p>Press '0' for B</p> </div> </div></div>","null","","","","","","","","","","","","","",""
"3080","","test","audio-keyboard-response","100","538607","0.0-8.0-1.36","5eb6e12a2541f25eb790569a","condA","","resources/audio/wordStim/S9_AU_16_bxa_Step-4.wav","48","","","","","AU","resources/audio/wordStim/S9_AU_16_bxa_Step-4.wav","S9","16","bxa","4","CN","1","0","false"
"null","","fixation","html-keyboard-response","101","539634","0.0-8.0-0.37","5eb6e12a2541f25eb790569a","condA","","<div class=""vertical-center"" style='width:60%;'><p style='font-weight:bold;'>Does the middle word sound more like the first word (A) or the last word (B)?</p> <br> <div class=""container""> <div id=""a-box""> <p class=""title-text"">A</h3></p> </div> <div id=""x-box""> <p class=""title-text"">X<p> </div> <div id=""b-box""> <p class=""title-text"">B</p></div> <br> <div style='float: left;padding-left:30px;'><p>Press '1' for A</p></div><div style='float: right;padding-right:30px;'><p>Press '0' for B</p> </div> </div></div>","null","","","","","","","","","","","","","",""
"3651","","test","audio-keyboard-response","102","543278","0.0-8.0-1.37","5eb6e12a2541f25eb790569a","condA","","resources/audio/wordStim/S3_AI_22_bxa_Step-8.wav","49","","","","","AI","resources/audio/wordStim/S3_AI_22_bxa_Step-8.wav","S3","22","bxa","8","MI","1","1","true"
"null","","fixation","html-keyboard-response","103","544306","0.0-8.0-0.38","5eb6e12a2541f25eb790569a","condA","","<div class=""vertical-center"" style='width:60%;'><p style='font-weight:bold;'>Does the middle word sound more like the first word (A) or the last word (B)?</p> <br> <div class=""container""> <div id=""a-box""> <p class=""title-text"">A</h3></p> </div> <div id=""x-box""> <p class=""title-text"">X<p> </div> <div id=""b-box""> <p class=""title-text"">B</p></div> <br> <div style='float: left;padding-left:30px;'><p>Press '1' for A</p></div><div style='float: right;padding-right:30px;'><p>Press '0' for B</p> </div> </div></div>","null","","","","","","","","","","","","","",""
"3611","","test","audio-keyboard-response","104","547919","0.0-8.0-1.38","5eb6e12a2541f25eb790569a","condA","","resources/audio/wordStim/S9_AI_29_bxa_Step-4.wav","48","","","","","AI","resources/audio/wordStim/S9_AI_29_bxa_Step-4.wav","S9","29","bxa","4","CN","1","0","false"
"null","","fixation","html-keyboard-response","105","548937","0.0-8.0-0.39","5eb6e12a2541f25eb790569a","condA","","<div class=""vertical-center"" style='width:60%;'><p style='font-weight:bold;'>Does the middle word sound more like the first word (A) or the last word (B)?</p> <br> <div class=""container""> <div id=""a-box""> <p class=""title-text"">A</h3></p> </div> <div id=""x-box""> <p class=""title-text"">X<p> </div> <div id=""b-box""> <p class=""title-text"">B</p></div> <br> <div style='float: left;padding-left:30px;'><p>Press '1' for A</p></div><div style='float: right;padding-right:30px;'><p>Press '0' for B</p> </div> </div></div>","null","","","","","","","","","","","","","",""
"4000","","test","audio-keyboard-response","106","552942","0.0-8.0-1.39","5eb6e12a2541f25eb790569a","condA","","resources/audio/wordStim/S9_AI_30_axb_Step-10.wav","48","","","","","AI","resources/audio/wordStim/S9_AI_30_axb_Step-10.wav","S9","30","axb","10","CN","0","0","true"
"null","","fixation","html-keyboard-response","107","553970","0.0-8.0-0.40","5eb6e12a2541f25eb790569a","condA","","<div class=""vertical-center"" style='width:60%;'><p style='font-weight:bold;'>Does the middle word sound more like the first word (A) or the last word (B)?</p> <br> <div class=""container""> <div id=""a-box""> <p class=""title-text"">A</h3></p> </div> <div id=""x-box""> <p class=""title-text"">X<p> </div> <div id=""b-box""> <p class=""title-text"">B</p></div> <br> <div style='float: left;padding-left:30px;'><p>Press '1' for A</p></div><div style='float: right;padding-right:30px;'><p>Press '0' for B</p> </div> </div></div>","null","","","","","","","","","","","","","",""
"3592","","test","audio-keyboard-response","108","557558","0.0-8.0-1.40","5eb6e12a2541f25eb790569a","condA","","resources/audio/wordStim/S3_AU_18_axb_Step-10.wav","48","","","","","AU","resources/audio/wordStim/S3_AU_18_axb_Step-10.wav","S3","18","axb","10","MI","0","0","true"
"null","","fixation","html-keyboard-response","109","558575","0.0-8.0-0.41","5eb6e12a2541f25eb790569a","condA","","<div class=""vertical-center"" style='width:60%;'><p style='font-weight:bold;'>Does the middle word sound more like the first word (A) or the last word (B)?</p> <br> <div class=""container""> <div id=""a-box""> <p class=""title-text"">A</h3></p> </div> <div id=""x-box""> <p class=""title-text"">X<p> </div> <div id=""b-box""> <p class=""title-text"">B</p></div> <br> <div style='float: left;padding-left:30px;'><p>Press '1' for A</p></div><div style='float: right;padding-right:30px;'><p>Press '0' for B</p> </div> </div></div>","null","","","","","","","","","","","","","",""
"3691","","test","audio-keyboard-response","110","562270","0.0-8.0-1.41","5eb6e12a2541f25eb790569a","condA","","resources/audio/wordStim/S9_AI_23_axb_Step-7.wav","49","","","","","AI","resources/audio/wordStim/S9_AI_23_axb_Step-7.wav","S9","23","axb","7","CN","0","1","false"
"null","","fixation","html-keyboard-response","111","563285","0.0-8.0-0.42","5eb6e12a2541f25eb790569a","condA","","<div class=""vertical-center"" style='width:60%;'><p style='font-weight:bold;'>Does the middle word sound more like the first word (A) or the last word (B)?</p> <br> <div class=""container""> <div id=""a-box""> <p class=""title-text"">A</h3></p> </div> <div id=""x-box""> <p class=""title-text"">X<p> </div> <div id=""b-box""> <p class=""title-text"">B</p></div> <br> <div style='float: left;padding-left:30px;'><p>Press '1' for A</p></div><div style='float: right;padding-right:30px;'><p>Press '0' for B</p> </div> </div></div>","null","","","","","","","","","","","","","",""
"3701","","test","audio-keyboard-response","112","566990","0.0-8.0-1.42","5eb6e12a2541f25eb790569a","condA","","resources/audio/wordStim/S9_AU_11_bxa_Step-4.wav","48","","","","","AU","resources/audio/wordStim/S9_AU_11_bxa_Step-4.wav","S9","11","bxa","4","CN","1","0","false"
"null","","fixation","html-keyboard-response","113","568010","0.0-8.0-0.43","5eb6e12a2541f25eb790569a","condA","","<div class=""vertical-center"" style='width:60%;'><p style='font-weight:bold;'>Does the middle word sound more like the first word (A) or the last word (B)?</p> <br> <div class=""container""> <div id=""a-box""> <p class=""title-text"">A</h3></p> </div> <div id=""x-box""> <p class=""title-text"">X<p> </div> <div id=""b-box""> <p class=""title-text"">B</p></div> <br> <div style='float: left;padding-left:30px;'><p>Press '1' for A</p></div><div style='float: right;padding-right:30px;'><p>Press '0' for B</p> </div> </div></div>","null","","","","","","","","","","","","","",""
"3480","","test","audio-keyboard-response","114","571493","0.0-8.0-1.43","5eb6e12a2541f25eb790569a","condA","","resources/audio/wordStim/S3_AU_11_bxa_Step-2.wav","48","","","","","AU","resources/audio/wordStim/S3_AU_11_bxa_Step-2.wav","S3","11","bxa","2","MI","1","0","false"
"null","","fixation","html-keyboard-response","115","572509","0.0-8.0-0.44","5eb6e12a2541f25eb790569a","condA","","<div class=""vertical-center"" style='width:60%;'><p style='font-weight:bold;'>Does the middle word sound more like the first word (A) or the last word (B)?</p> <br> <div class=""container""> <div id=""a-box""> <p class=""title-text"">A</h3></p> </div> <div id=""x-box""> <p class=""title-text"">X<p> </div> <div id=""b-box""> <p class=""title-text"">B</p></div> <br> <div style='float: left;padding-left:30px;'><p>Press '1' for A</p></div><div style='float: right;padding-right:30px;'><p>Press '0' for B</p> </div> </div></div>","null","","","","","","","","","","","","","",""
"3411","","test","audio-keyboard-response","116","575926","0.0-8.0-1.44","5eb6e12a2541f25eb790569a","condA","","resources/audio/wordStim/S9_AU_19_axb_Step-9.wav","48","","","","","AU","resources/audio/wordStim/S9_AU_19_axb_Step-9.wav","S9","19","axb","9","CN","0","0","true"
"null","","fixation","html-keyboard-response","117","576953","0.0-8.0-0.45","5eb6e12a2541f25eb790569a","condA","","<div class=""vertical-center"" style='width:60%;'><p style='font-weight:bold;'>Does the middle word sound more like the first word (A) or the last word (B)?</p> <br> <div class=""container""> <div id=""a-box""> <p class=""title-text"">A</h3></p> </div> <div id=""x-box""> <p class=""title-text"">X<p> </div> <div id=""b-box""> <p class=""title-text"">B</p></div> <br> <div style='float: left;padding-left:30px;'><p>Press '1' for A</p></div><div style='float: right;padding-right:30px;'><p>Press '0' for B</p> </div> </div></div>","null","","","","","","","","","","","","","",""
"3611","","test","audio-keyboard-response","118","580557","0.0-8.0-1.45","5eb6e12a2541f25eb790569a","condA","","resources/audio/wordStim/S9_AU_11_bxa_Step-8.wav","49","","","","","AU","resources/audio/wordStim/S9_AU_11_bxa_Step-8.wav","S9","11","bxa","8","CN","1","1","true"
"null","","fixation","html-keyboard-response","119","581573","0.0-8.0-0.46","5eb6e12a2541f25eb790569a","condA","","<div class=""vertical-center"" style='width:60%;'><p style='font-weight:bold;'>Does the middle word sound more like the first word (A) or the last word (B)?</p> <br> <div class=""container""> <div id=""a-box""> <p class=""title-text"">A</h3></p> </div> <div id=""x-box""> <p class=""title-text"">X<p> </div> <div id=""b-box""> <p class=""title-text"">B</p></div> <br> <div style='float: left;padding-left:30px;'><p>Press '1' for A</p></div><div style='float: right;padding-right:30px;'><p>Press '0' for B</p> </div> </div></div>","null","","","","","","","","","","","","","",""
"3392","","test","audio-keyboard-response","120","584957","0.0-8.0-1.46","5eb6e12a2541f25eb790569a","condA","","resources/audio/wordStim/S9_AU_19_bxa_Step-8.wav","49","","","","","AU","resources/audio/wordStim/S9_AU_19_bxa_Step-8.wav","S9","19","bxa","8","CN","1","1","true"
"null","","fixation","html-keyboard-response","121","585984","0.0-8.0-0.47","5eb6e12a2541f25eb790569a","condA","","<div class=""vertical-center"" style='width:60%;'><p style='font-weight:bold;'>Does the middle word sound more like the first word (A) or the last word (B)?</p> <br> <div class=""container""> <div id=""a-box""> <p class=""title-text"">A</h3></p> </div> <div id=""x-box""> <p class=""title-text"">X<p> </div> <div id=""b-box""> <p class=""title-text"">B</p></div> <br> <div style='float: left;padding-left:30px;'><p>Press '1' for A</p></div><div style='float: right;padding-right:30px;'><p>Press '0' for B</p> </div> </div></div>","null","","","","","","","","","","","","","",""
"3411","","test","audio-keyboard-response","122","589389","0.0-8.0-1.47","5eb6e12a2541f25eb790569a","condA","","resources/audio/wordStim/S9_AI_27_bxa_Step-8.wav","49","","","","","AI","resources/audio/wordStim/S9_AI_27_bxa_Step-8.wav","S9","27","bxa","8","CN","1","1","true"
"null","","fixation","html-keyboard-response","123","590425","0.0-8.0-0.48","5eb6e12a2541f25eb790569a","condA","","<div class=""vertical-center"" style='width:60%;'><p style='font-weight:bold;'>Does the middle word sound more like the first word (A) or the last word (B)?</p> <br> <div class=""container""> <div id=""a-box""> <p class=""title-text"">A</h3></p> </div> <div id=""x-box""> <p class=""title-text"">X<p> </div> <div id=""b-box""> <p class=""title-text"">B</p></div> <br> <div style='float: left;padding-left:30px;'><p>Press '1' for A</p></div><div style='float: right;padding-right:30px;'><p>Press '0' for B</p> </div> </div></div>","null","","","","","","","","","","","","","",""
"5059","","test","audio-keyboard-response","124","595493","0.0-8.0-1.48","5eb6e12a2541f25eb790569a","condA","","resources/audio/wordStim/S3_AI_30_axb_Step-9.wav","48","","","","","AI","resources/audio/wordStim/S3_AI_30_axb_Step-9.wav","S3","30","axb","9","MI","0","0","true"
"null","","fixation","html-keyboard-response","125","596515","0.0-8.0-0.49","5eb6e12a2541f25eb790569a","condA","","<div class=""vertical-center"" style='width:60%;'><p style='font-weight:bold;'>Does the middle word sound more like the first word (A) or the last word (B)?</p> <br> <div class=""container""> <div id=""a-box""> <p class=""title-text"">A</h3></p> </div> <div id=""x-box""> <p class=""title-text"">X<p> </div> <div id=""b-box""> <p class=""title-text"">B</p></div> <br> <div style='float: left;padding-left:30px;'><p>Press '1' for A</p></div><div style='float: right;padding-right:30px;'><p>Press '0' for B</p> </div> </div></div>","null","","","","","","","","","","","","","",""
"3560","","test","audio-keyboard-response","126","600086","0.0-8.0-1.49","5eb6e12a2541f25eb790569a","condA","","resources/audio/wordStim/S9_AI_24_bxa_Step-6.wav","49","","","","","AI","resources/audio/wordStim/S9_AI_24_bxa_Step-6.wav","S9","24","bxa","6","CN","1","1","true"
"null","","fixation","html-keyboard-response","127","601115","0.0-8.0-0.50","5eb6e12a2541f25eb790569a","condA","","<div class=""vertical-center"" style='width:60%;'><p style='font-weight:bold;'>Does the middle word sound more like the first word (A) or the last word (B)?</p> <br> <div class=""container""> <div id=""a-box""> <p class=""title-text"">A</h3></p> </div> <div id=""x-box""> <p class=""title-text"">X<p> </div> <div id=""b-box""> <p class=""title-text"">B</p></div> <br> <div style='float: left;padding-left:30px;'><p>Press '1' for A</p></div><div style='float: right;padding-right:30px;'><p>Press '0' for B</p> </div> </div></div>","null","","","","","","","","","","","","","",""
"3608","","test","audio-keyboard-response","128","604733","0.0-8.0-1.50","5eb6e12a2541f25eb790569a","condA","","resources/audio/wordStim/S3_AI_29_axb_Step-5.wav","49","","","","","AI","resources/audio/wordStim/S3_AI_29_axb_Step-5.wav","S3","29","axb","5","MI","0","1","false"
"null","","fixation","html-keyboard-response","129","605747","0.0-8.0-0.51","5eb6e12a2541f25eb790569a","condA","","<div class=""vertical-center"" style='width:60%;'><p style='font-weight:bold;'>Does the middle word sound more like the first word (A) or the last word (B)?</p> <br> <div class=""container""> <div id=""a-box""> <p class=""title-text"">A</h3></p> </div> <div id=""x-box""> <p class=""title-text"">X<p> </div> <div id=""b-box""> <p class=""title-text"">B</p></div> <br> <div style='float: left;padding-left:30px;'><p>Press '1' for A</p></div><div style='float: right;padding-right:30px;'><p>Press '0' for B</p> </div> </div></div>","null","","","","","","","","","","","","","",""
"3651","","test","audio-keyboard-response","130","609397","0.0-8.0-1.51","5eb6e12a2541f25eb790569a","condA","","resources/audio/wordStim/S9_AI_24_bxa_Step-8.wav","48","","","","","AI","resources/audio/wordStim/S9_AI_24_bxa_Step-8.wav","S9","24","bxa","8","CN","1","0","false"
"null","","fixation","html-keyboard-response","131","610405","0.0-8.0-0.52","5eb6e12a2541f25eb790569a","condA","","<div class=""vertical-center"" style='width:60%;'><p style='font-weight:bold;'>Does the middle word sound more like the first word (A) or the last word (B)?</p> <br> <div class=""container""> <div id=""a-box""> <p class=""title-text"">A</h3></p> </div> <div id=""x-box""> <p class=""title-text"">X<p> </div> <div id=""b-box""> <p class=""title-text"">B</p></div> <br> <div style='float: left;padding-left:30px;'><p>Press '1' for A</p></div><div style='float: right;padding-right:30px;'><p>Press '0' for B</p> </div> </div></div>","null","","","","","","","","","","","","","",""
"3480","","test","audio-keyboard-response","132","613894","0.0-8.0-1.52","5eb6e12a2541f25eb790569a","condA","","resources/audio/wordStim/S9_AI_24_bxa_Step-4.wav","49","","","","","AI","resources/audio/wordStim/S9_AI_24_bxa_Step-4.wav","S9","24","bxa","4","CN","1","1","true"
"null","","fixation","html-keyboard-response","133","614920","0.0-8.0-0.53","5eb6e12a2541f25eb790569a","condA","","<div class=""vertical-center"" style='width:60%;'><p style='font-weight:bold;'>Does the middle word sound more like the first word (A) or the last word (B)?</p> <br> <div class=""container""> <div id=""a-box""> <p class=""title-text"">A</h3></p> </div> <div id=""x-box""> <p class=""title-text"">X<p> </div> <div id=""b-box""> <p class=""title-text"">B</p></div> <br> <div style='float: left;padding-left:30px;'><p>Press '1' for A</p></div><div style='float: right;padding-right:30px;'><p>Press '0' for B</p> </div> </div></div>","null","","","","","","","","","","","","","",""
"3259","","test","audio-keyboard-response","134","618180","0.0-8.0-1.53","5eb6e12a2541f25eb790569a","condA","","resources/audio/wordStim/S3_AI_23_axb_Step-3.wav","49","","","","","AI","resources/audio/wordStim/S3_AI_23_axb_Step-3.wav","S3","23","axb","3","MI","0","1","false"
"12744.33500005398","","break","html-keyboard-response","135","631439","0.0-8.0-2.53-0.53","5eb6e12a2541f25eb790569a","condA","","<div class=""vertical-center""><p>Feel free to take a break!</p><i>When you're ready to continue, press SPACE to begin the next trial.</i></p></div>","32","","","","","","","","","","","","","",""
"null","","fixation","html-keyboard-response","136","631944","0.0-8.0-0.54","5eb6e12a2541f25eb790569a","condA","","<div class=""vertical-center"" style='width:60%;'><p style='font-weight:bold;'>Does the middle word sound more like the first word (A) or the last word (B)?</p> <br> <div class=""container""> <div id=""a-box""> <p class=""title-text"">A</h3></p> </div> <div id=""x-box""> <p class=""title-text"">X<p> </div> <div id=""b-box""> <p class=""title-text"">B</p></div> <br> <div style='float: left;padding-left:30px;'><p>Press '1' for A</p></div><div style='float: right;padding-right:30px;'><p>Press '0' for B</p> </div> </div></div>","null","","","","","","","","","","","","","",""
"3331","","test","audio-keyboard-response","137","635276","0.0-8.0-1.54","5eb6e12a2541f25eb790569a","condA","","resources/audio/wordStim/S9_AI_23_axb_Step-5.wav","49","","","","","AI","resources/audio/wordStim/S9_AI_23_axb_Step-5.wav","S9","23","axb","5","CN","0","1","false"
"null","","fixation","html-keyboard-response","138","636304","0.0-8.0-0.55","5eb6e12a2541f25eb790569a","condA","","<div class=""vertical-center"" style='width:60%;'><p style='font-weight:bold;'>Does the middle word sound more like the first word (A) or the last word (B)?</p> <br> <div class=""container""> <div id=""a-box""> <p class=""title-text"">A</h3></p> </div> <div id=""x-box""> <p class=""title-text"">X<p> </div> <div id=""b-box""> <p class=""title-text"">B</p></div> <br> <div style='float: left;padding-left:30px;'><p>Press '1' for A</p></div><div style='float: right;padding-right:30px;'><p>Press '0' for B</p> </div> </div></div>","null","","","","","","","","","","","","","",""
"3371","","test","audio-keyboard-response","139","639684","0.0-8.0-1.55","5eb6e12a2541f25eb790569a","condA","","resources/audio/wordStim/S3_AI_30_bxa_Step-4.wav","49","","","","","AI","resources/audio/wordStim/S3_AI_30_bxa_Step-4.wav","S3","30","bxa","4","MI","1","1","true"
"null","","fixation","html-keyboard-response","140","640698","0.0-8.0-0.56","5eb6e12a2541f25eb790569a","condA","","<div class=""vertical-center"" style='width:60%;'><p style='font-weight:bold;'>Does the middle word sound more like the first word (A) or the last word (B)?</p> <br> <div class=""container""> <div id=""a-box""> <p class=""title-text"">A</h3></p> </div> <div id=""x-box""> <p class=""title-text"">X<p> </div> <div id=""b-box""> <p class=""title-text"">B</p></div> <br> <div style='float: left;padding-left:30px;'><p>Press '1' for A</p></div><div style='float: right;padding-right:30px;'><p>Press '0' for B</p> </div> </div></div>","null","","","","","","","","","","","","","",""
"3461","","test","audio-keyboard-response","141","644164","0.0-8.0-1.56","5eb6e12a2541f25eb790569a","condA","","resources/audio/wordStim/S9_AU_20_bxa_Step-4.wav","48","","","","","AU","resources/audio/wordStim/S9_AU_20_bxa_Step-4.wav","S9","20","bxa","4","CN","1","0","false"
"null","","fixation","html-keyboard-response","142","645193","0.0-8.0-0.57","5eb6e12a2541f25eb790569a","condA","","<div class=""vertical-center"" style='width:60%;'><p style='font-weight:bold;'>Does the middle word sound more like the first word (A) or the last word (B)?</p> <br> <div class=""container""> <div id=""a-box""> <p class=""title-text"">A</h3></p> </div> <div id=""x-box""> <p class=""title-text"">X<p> </div> <div id=""b-box""> <p class=""title-text"">B</p></div> <br> <div style='float: left;padding-left:30px;'><p>Press '1' for A</p></div><div style='float: right;padding-right:30px;'><p>Press '0' for B</p> </div> </div></div>","null","","","","","","","","","","","","","",""
"3648","","test","audio-keyboard-response","143","648852","0.0-8.0-1.57","5eb6e12a2541f25eb790569a","condA","","resources/audio/wordStim/S9_AU_18_axb_Step-3.wav","49","","","","","AU","resources/audio/wordStim/S9_AU_18_axb_Step-3.wav","S9","18","axb","3","CN","0","1","false"
"null","","fixation","html-keyboard-response","144","649879","0.0-8.0-0.58","5eb6e12a2541f25eb790569a","condA","","<div class=""vertical-center"" style='width:60%;'><p style='font-weight:bold;'>Does the middle word sound more like the first word (A) or the last word (B)?</p> <br> <div class=""container""> <div id=""a-box""> <p class=""title-text"">A</h3></p> </div> <div id=""x-box""> <p class=""title-text"">X<p> </div> <div id=""b-box""> <p class=""title-text"">B</p></div> <br> <div style='float: left;padding-left:30px;'><p>Press '1' for A</p></div><div style='float: right;padding-right:30px;'><p>Press '0' for B</p> </div> </div></div>","null","","","","","","","","","","","","","",""
"3560","","test","audio-keyboard-response","145","653444","0.0-8.0-1.58","5eb6e12a2541f25eb790569a","condA","","resources/audio/wordStim/S3_AU_20_bxa_Step-2.wav","49","","","","","AU","resources/audio/wordStim/S3_AU_20_bxa_Step-2.wav","S3","20","bxa","2","MI","1","1","true"
"null","","fixation","html-keyboard-response","146","654463","0.0-8.0-0.59","5eb6e12a2541f25eb790569a","condA","","<div class=""vertical-center"" style='width:60%;'><p style='font-weight:bold;'>Does the middle word sound more like the first word (A) or the last word (B)?</p> <br> <div class=""container""> <div id=""a-box""> <p class=""title-text"">A</h3></p> </div> <div id=""x-box""> <p class=""title-text"">X<p> </div> <div id=""b-box""> <p class=""title-text"">B</p></div> <br> <div style='float: left;padding-left:30px;'><p>Press '1' for A</p></div><div style='float: right;padding-right:30px;'><p>Press '0' for B</p> </div> </div></div>","null","","","","","","","","","","","","","",""
"3160","","test","audio-keyboard-response","147","657628","0.0-8.0-1.59","5eb6e12a2541f25eb790569a","condA","","resources/audio/wordStim/S3_AI_25_bxa_Step-2.wav","48","","","","","AI","resources/audio/wordStim/S3_AI_25_bxa_Step-2.wav","S3","25","bxa","2","MI","1","0","false"
"null","","fixation","html-keyboard-response","148","658664","0.0-8.0-0.60","5eb6e12a2541f25eb790569a","condA","","<div class=""vertical-center"" style='width:60%;'><p style='font-weight:bold;'>Does the middle word sound more like the first word (A) or the last word (B)?</p> <br> <div class=""container""> <div id=""a-box""> <p class=""title-text"">A</h3></p> </div> <div id=""x-box""> <p class=""title-text"">X<p> </div> <div id=""b-box""> <p class=""title-text"">B</p></div> <br> <div style='float: left;padding-left:30px;'><p>Press '1' for A</p></div><div style='float: right;padding-right:30px;'><p>Press '0' for B</p> </div> </div></div>","null","","","","","","","","","","","","","",""
"3600","","test","audio-keyboard-response","149","662267","0.0-8.0-1.60","5eb6e12a2541f25eb790569a","condA","","resources/audio/wordStim/S3_AI_29_axb_Step-3.wav","49","","","","","AI","resources/audio/wordStim/S3_AI_29_axb_Step-3.wav","S3","29","axb","3","MI","0","1","false"
"null","","fixation","html-keyboard-response","150","663304","0.0-8.0-0.61","5eb6e12a2541f25eb790569a","condA","","<div class=""vertical-center"" style='width:60%;'><p style='font-weight:bold;'>Does the middle word sound more like the first word (A) or the last word (B)?</p> <br> <div class=""container""> <div id=""a-box""> <p class=""title-text"">A</h3></p> </div> <div id=""x-box""> <p class=""title-text"">X<p> </div> <div id=""b-box""> <p class=""title-text"">B</p></div> <br> <div style='float: left;padding-left:30px;'><p>Press '1' for A</p></div><div style='float: right;padding-right:30px;'><p>Press '0' for B</p> </div> </div></div>","null","","","","","","","","","","","","","",""
"2979","","test","audio-keyboard-response","151","666291","0.0-8.0-1.61","5eb6e12a2541f25eb790569a","condA","","resources/audio/wordStim/S3_AU_19_axb_Step-9.wav","48","","","","","AU","resources/audio/wordStim/S3_AU_19_axb_Step-9.wav","S3","19","axb","9","MI","0","0","true"
"null","","fixation","html-keyboard-response","152","667323","0.0-8.0-0.62","5eb6e12a2541f25eb790569a","condA","","<div class=""vertical-center"" style='width:60%;'><p style='font-weight:bold;'>Does the middle word sound more like the first word (A) or the last word (B)?</p> <br> <div class=""container""> <div id=""a-box""> <p class=""title-text"">A</h3></p> </div> <div id=""x-box""> <p class=""title-text"">X<p> </div> <div id=""b-box""> <p class=""title-text"">B</p></div> <br> <div style='float: left;padding-left:30px;'><p>Press '1' for A</p></div><div style='float: right;padding-right:30px;'><p>Press '0' for B</p> </div> </div></div>","null","","","","","","","","","","","","","",""
"3400","","test","audio-keyboard-response","153","670732","0.0-8.0-1.62","5eb6e12a2541f25eb790569a","condA","","resources/audio/wordStim/S3_AI_29_axb_Step-9.wav","48","","","","","AI","resources/audio/wordStim/S3_AI_29_axb_Step-9.wav","S3","29","axb","9","MI","0","0","true"
"null","","fixation","html-keyboard-response","154","671764","0.0-8.0-0.63","5eb6e12a2541f25eb790569a","condA","","<div class=""vertical-center"" style='width:60%;'><p style='font-weight:bold;'>Does the middle word sound more like the first word (A) or the last word (B)?</p> <br> <div class=""container""> <div id=""a-box""> <p class=""title-text"">A</h3></p> </div> <div id=""x-box""> <p class=""title-text"">X<p> </div> <div id=""b-box""> <p class=""title-text"">B</p></div> <br> <div style='float: left;padding-left:30px;'><p>Press '1' for A</p></div><div style='float: right;padding-right:30px;'><p>Press '0' for B</p> </div> </div></div>","null","","","","","","","","","","","","","",""
"3792","","test","audio-keyboard-response","155","675564","0.0-8.0-1.63","5eb6e12a2541f25eb790569a","condA","","resources/audio/wordStim/S3_AI_30_axb_Step-7.wav","49","","","","","AI","resources/audio/wordStim/S3_AI_30_axb_Step-7.wav","S3","30","axb","7","MI","0","1","false"
"null","","fixation","html-keyboard-response","156","676585","0.0-8.0-0.64","5eb6e12a2541f25eb790569a","condA","","<div class=""vertical-center"" style='width:60%;'><p style='font-weight:bold;'>Does the middle word sound more like the first word (A) or the last word (B)?</p> <br> <div class=""container""> <div id=""a-box""> <p class=""title-text"">A</h3></p> </div> <div id=""x-box""> <p class=""title-text"">X<p> </div> <div id=""b-box""> <p class=""title-text"">B</p></div> <br> <div style='float: left;padding-left:30px;'><p>Press '1' for A</p></div><div style='float: right;padding-right:30px;'><p>Press '0' for B</p> </div> </div></div>","null","","","","","","","","","","","","","",""
"3539","","test","audio-keyboard-response","157","680131","0.0-8.0-1.64","5eb6e12a2541f25eb790569a","condA","","resources/audio/wordStim/S3_AU_18_bxa_Step-8.wav","49","","","","","AU","resources/audio/wordStim/S3_AU_18_bxa_Step-8.wav","S3","18","bxa","8","MI","1","1","true"
"null","","fixation","html-keyboard-response","158","681137","0.0-8.0-0.65","5eb6e12a2541f25eb790569a","condA","","<div class=""vertical-center"" style='width:60%;'><p style='font-weight:bold;'>Does the middle word sound more like the first word (A) or the last word (B)?</p> <br> <div class=""container""> <div id=""a-box""> <p class=""title-text"">A</h3></p> </div> <div id=""x-box""> <p class=""title-text"">X<p> </div> <div id=""b-box""> <p class=""title-text"">B</p></div> <br> <div style='float: left;padding-left:30px;'><p>Press '1' for A</p></div><div style='float: right;padding-right:30px;'><p>Press '0' for B</p> </div> </div></div>","null","","","","","","","","","","","","","",""
"3421","","test","audio-keyboard-response","159","684556","0.0-8.0-1.65","5eb6e12a2541f25eb790569a","condA","","resources/audio/wordStim/S9_AU_18_bxa_Step-2.wav","48","","","","","AU","resources/audio/wordStim/S9_AU_18_bxa_Step-2.wav","S9","18","bxa","2","CN","1","0","false"
"null","","fixation","html-keyboard-response","160","685570","0.0-8.0-0.66","5eb6e12a2541f25eb790569a","condA","","<div class=""vertical-center"" style='width:60%;'><p style='font-weight:bold;'>Does the middle word sound more like the first word (A) or the last word (B)?</p> <br> <div class=""container""> <div id=""a-box""> <p class=""title-text"">A</h3></p> </div> <div id=""x-box""> <p class=""title-text"">X<p> </div> <div id=""b-box""> <p class=""title-text"">B</p></div> <br> <div style='float: left;padding-left:30px;'><p>Press '1' for A</p></div><div style='float: right;padding-right:30px;'><p>Press '0' for B</p> </div> </div></div>","null","","","","","","","","","","","","","",""
"3392","","test","audio-keyboard-response","161","688963","0.0-8.0-1.66","5eb6e12a2541f25eb790569a","condA","","resources/audio/wordStim/S3_AU_14_bxa_Step-6.wav","48","","","","","AU","resources/audio/wordStim/S3_AU_14_bxa_Step-6.wav","S3","14","bxa","6","MI","1","0","false"
"null","","fixation","html-keyboard-response","162","689978","0.0-8.0-0.67","5eb6e12a2541f25eb790569a","condA","","<div class=""vertical-center"" style='width:60%;'><p style='font-weight:bold;'>Does the middle word sound more like the first word (A) or the last word (B)?</p> <br> <div class=""container""> <div id=""a-box""> <p class=""title-text"">A</h3></p> </div> <div id=""x-box""> <p class=""title-text"">X<p> </div> <div id=""b-box""> <p class=""title-text"">B</p></div> <br> <div style='float: left;padding-left:30px;'><p>Press '1' for A</p></div><div style='float: right;padding-right:30px;'><p>Press '0' for B</p> </div> </div></div>","null","","","","","","","","","","","","","",""
"3629","","test","audio-keyboard-response","163","693611","0.0-8.0-1.67","5eb6e12a2541f25eb790569a","condA","","resources/audio/wordStim/S3_AU_18_axb_Step-5.wav","49","","","","","AU","resources/audio/wordStim/S3_AU_18_axb_Step-5.wav","S3","18","axb","5","MI","0","1","false"
"null","","fixation","html-keyboard-response","164","694632","0.0-8.0-0.68","5eb6e12a2541f25eb790569a","condA","","<div class=""vertical-center"" style='width:60%;'><p style='font-weight:bold;'>Does the middle word sound more like the first word (A) or the last word (B)?</p> <br> <div class=""container""> <div id=""a-box""> <p class=""title-text"">A</h3></p> </div> <div id=""x-box""> <p class=""title-text"">X<p> </div> <div id=""b-box""> <p class=""title-text"">B</p></div> <br> <div style='float: left;padding-left:30px;'><p>Press '1' for A</p></div><div style='float: right;padding-right:30px;'><p>Press '0' for B</p> </div> </div></div>","null","","","","","","","","","","","","","",""
"3200","","test","audio-keyboard-response","165","697836","0.0-8.0-1.68","5eb6e12a2541f25eb790569a","condA","","resources/audio/wordStim/S9_AI_25_axb_Step-10.wav","48","","","","","AI","resources/audio/wordStim/S9_AI_25_axb_Step-10.wav","S9","25","axb","10","CN","0","0","true"
"null","","fixation","html-keyboard-response","166","698873","0.0-8.0-0.69","5eb6e12a2541f25eb790569a","condA","","<div class=""vertical-center"" style='width:60%;'><p style='font-weight:bold;'>Does the middle word sound more like the first word (A) or the last word (B)?</p> <br> <div class=""container""> <div id=""a-box""> <p class=""title-text"">A</h3></p> </div> <div id=""x-box""> <p class=""title-text"">X<p> </div> <div id=""b-box""> <p class=""title-text"">B</p></div> <br> <div style='float: left;padding-left:30px;'><p>Press '1' for A</p></div><div style='float: right;padding-right:30px;'><p>Press '0' for B</p> </div> </div></div>","null","","","","","","","","","","","","","",""
"3869","","test","audio-keyboard-response","167","702747","0.0-8.0-1.69","5eb6e12a2541f25eb790569a","condA","","resources/audio/wordStim/S3_AU_16_axb_Step-10.wav","48","","","","","AU","resources/audio/wordStim/S3_AU_16_axb_Step-10.wav","S3","16","axb","10","MI","0","0","true"
"null","","fixation","html-keyboard-response","168","703763","0.0-8.0-0.70","5eb6e12a2541f25eb790569a","condA","","<div class=""vertical-center"" style='width:60%;'><p style='font-weight:bold;'>Does the middle word sound more like the first word (A) or the last word (B)?</p> <br> <div class=""container""> <div id=""a-box""> <p class=""title-text"">A</h3></p> </div> <div id=""x-box""> <p class=""title-text"">X<p> </div> <div id=""b-box""> <p class=""title-text"">B</p></div> <br> <div style='float: left;padding-left:30px;'><p>Press '1' for A</p></div><div style='float: right;padding-right:30px;'><p>Press '0' for B</p> </div> </div></div>","null","","","","","","","","","","","","","",""
"3040","","test","audio-keyboard-response","169","706811","0.0-8.0-1.70","5eb6e12a2541f25eb790569a","condA","","resources/audio/wordStim/S3_AI_25_axb_Step-10.wav","48","","","","","AI","resources/audio/wordStim/S3_AI_25_axb_Step-10.wav","S3","25","axb","10","MI","0","0","true"
"null","","fixation","html-keyboard-response","170","707832","0.0-8.0-0.71","5eb6e12a2541f25eb790569a","condA","","<div class=""vertical-center"" style='width:60%;'><p style='font-weight:bold;'>Does the middle word sound more like the first word (A) or the last word (B)?</p> <br> <div class=""container""> <div id=""a-box""> <p class=""title-text"">A</h3></p> </div> <div id=""x-box""> <p class=""title-text"">X<p> </div> <div id=""b-box""> <p class=""title-text"">B</p></div> <br> <div style='float: left;padding-left:30px;'><p>Press '1' for A</p></div><div style='float: right;padding-right:30px;'><p>Press '0' for B</p> </div> </div></div>","null","","","","","","","","","","","","","",""
"3059","","test","audio-keyboard-response","171","710899","0.0-8.0-1.71","5eb6e12a2541f25eb790569a","condA","","resources/audio/wordStim/S3_AI_28_axb_Step-10.wav","48","","","","","AI","resources/audio/wordStim/S3_AI_28_axb_Step-10.wav","S3","28","axb","10","MI","0","0","true"
"null","","fixation","html-keyboard-response","172","711909","0.0-8.0-0.72","5eb6e12a2541f25eb790569a","condA","","<div class=""vertical-center"" style='width:60%;'><p style='font-weight:bold;'>Does the middle word sound more like the first word (A) or the last word (B)?</p> <br> <div class=""container""> <div id=""a-box""> <p class=""title-text"">A</h3></p> </div> <div id=""x-box""> <p class=""title-text"">X<p> </div> <div id=""b-box""> <p class=""title-text"">B</p></div> <br> <div style='float: left;padding-left:30px;'><p>Press '1' for A</p></div><div style='float: right;padding-right:30px;'><p>Press '0' for B</p> </div> </div></div>","null","","","","","","","","","","","","","",""
"5579","","test","audio-keyboard-response","173","717491","0.0-8.0-1.72","5eb6e12a2541f25eb790569a","condA","","resources/audio/wordStim/S9_AI_29_axb_Step-3.wav","48","","","","","AI","resources/audio/wordStim/S9_AI_29_axb_Step-3.wav","S9","29","axb","3","CN","0","0","true"
"null","","fixation","html-keyboard-response","174","718506","0.0-8.0-0.73","5eb6e12a2541f25eb790569a","condA","","<div class=""vertical-center"" style='width:60%;'><p style='font-weight:bold;'>Does the middle word sound more like the first word (A) or the last word (B)?</p> <br> <div class=""container""> <div id=""a-box""> <p class=""title-text"">A</h3></p> </div> <div id=""x-box""> <p class=""title-text"">X<p> </div> <div id=""b-box""> <p class=""title-text"">B</p></div> <br> <div style='float: left;padding-left:30px;'><p>Press '1' for A</p></div><div style='float: right;padding-right:30px;'><p>Press '0' for B</p> </div> </div></div>","null","","","","","","","","","","","","","",""
"3840","","test","audio-keyboard-response","175","722347","0.0-8.0-1.73","5eb6e12a2541f25eb790569a","condA","","resources/audio/wordStim/S3_AU_17_axb_Step-5.wav","49","","","","","AU","resources/audio/wordStim/S3_AU_17_axb_Step-5.wav","S3","17","axb","5","MI","0","1","false"
"null","","fixation","html-keyboard-response","176","723383","0.0-8.0-0.74","5eb6e12a2541f25eb790569a","condA","","<div class=""vertical-center"" style='width:60%;'><p style='font-weight:bold;'>Does the middle word sound more like the first word (A) or the last word (B)?</p> <br> <div class=""container""> <div id=""a-box""> <p class=""title-text"">A</h3></p> </div> <div id=""x-box""> <p class=""title-text"">X<p> </div> <div id=""b-box""> <p class=""title-text"">B</p></div> <br> <div style='float: left;padding-left:30px;'><p>Press '1' for A</p></div><div style='float: right;padding-right:30px;'><p>Press '0' for B</p> </div> </div></div>","null","","","","","","","","","","","","","",""
"2979","","test","audio-keyboard-response","177","726370","0.0-8.0-1.74","5eb6e12a2541f25eb790569a","condA","","resources/audio/wordStim/S9_AU_20_axb_Step-10.wav","48","","","","","AU","resources/audio/wordStim/S9_AU_20_axb_Step-10.wav","S9","20","axb","10","CN","0","0","true"
"null","","fixation","html-keyboard-response","178","727382","0.0-8.0-0.75","5eb6e12a2541f25eb790569a","condA","","<div class=""vertical-center"" style='width:60%;'><p style='font-weight:bold;'>Does the middle word sound more like the first word (A) or the last word (B)?</p> <br> <div class=""container""> <div id=""a-box""> <p class=""title-text"">A</h3></p> </div> <div id=""x-box""> <p class=""title-text"">X<p> </div> <div id=""b-box""> <p class=""title-text"">B</p></div> <br> <div style='float: left;padding-left:30px;'><p>Press '1' for A</p></div><div style='float: right;padding-right:30px;'><p>Press '0' for B</p> </div> </div></div>","null","","","","","","","","","","","","","",""
"3461","","test","audio-keyboard-response","179","730835","0.0-8.0-1.75","5eb6e12a2541f25eb790569a","condA","","resources/audio/wordStim/S9_AU_13_axb_Step-7.wav","49","","","","","AU","resources/audio/wordStim/S9_AU_13_axb_Step-7.wav","S9","13","axb","7","CN","0","1","false"
"null","","fixation","html-keyboard-response","180","731843","0.0-8.0-0.76","5eb6e12a2541f25eb790569a","condA","","<div class=""vertical-center"" style='width:60%;'><p style='font-weight:bold;'>Does the middle word sound more like the first word (A) or the last word (B)?</p> <br> <div class=""container""> <div id=""a-box""> <p class=""title-text"">A</h3></p> </div> <div id=""x-box""> <p class=""title-text"">X<p> </div> <div id=""b-box""> <p class=""title-text"">B</p></div> <br> <div style='float: left;padding-left:30px;'><p>Press '1' for A</p></div><div style='float: right;padding-right:30px;'><p>Press '0' for B</p> </div> </div></div>","null","","","","","","","","","","","","","",""
"4752","","test","audio-keyboard-response","181","736603","0.0-8.0-1.76","5eb6e12a2541f25eb790569a","condA","","resources/audio/wordStim/S9_AI_30_axb_Step-7.wav","48","","","","","AI","resources/audio/wordStim/S9_AI_30_axb_Step-7.wav","S9","30","axb","7","CN","0","0","true"
"null","","fixation","html-keyboard-response","182","737631","0.0-8.0-0.77","5eb6e12a2541f25eb790569a","condA","","<div class=""vertical-center"" style='width:60%;'><p style='font-weight:bold;'>Does the middle word sound more like the first word (A) or the last word (B)?</p> <br> <div class=""container""> <div id=""a-box""> <p class=""title-text"">A</h3></p> </div> <div id=""x-box""> <p class=""title-text"">X<p> </div> <div id=""b-box""> <p class=""title-text"">B</p></div> <br> <div style='float: left;padding-left:30px;'><p>Press '1' for A</p></div><div style='float: right;padding-right:30px;'><p>Press '0' for B</p> </div> </div></div>","null","","","","","","","","","","","","","",""
"4651","","test","audio-keyboard-response","183","742275","0.0-8.0-1.77","5eb6e12a2541f25eb790569a","condA","","resources/audio/wordStim/S3_AU_18_bxa_Step-6.wav","49","","","","","AU","resources/audio/wordStim/S3_AU_18_bxa_Step-6.wav","S3","18","bxa","6","MI","1","1","true"
"null","","fixation","html-keyboard-response","184","743286","0.0-8.0-0.78","5eb6e12a2541f25eb790569a","condA","","<div class=""vertical-center"" style='width:60%;'><p style='font-weight:bold;'>Does the middle word sound more like the first word (A) or the last word (B)?</p> <br> <div class=""container""> <div id=""a-box""> <p class=""title-text"">A</h3></p> </div> <div id=""x-box""> <p class=""title-text"">X<p> </div> <div id=""b-box""> <p class=""title-text"">B</p></div> <br> <div style='float: left;padding-left:30px;'><p>Press '1' for A</p></div><div style='float: right;padding-right:30px;'><p>Press '0' for B</p> </div> </div></div>","null","","","","","","","","","","","","","",""
"3781","","test","audio-keyboard-response","185","747067","0.0-8.0-1.78","5eb6e12a2541f25eb790569a","condA","","resources/audio/wordStim/S9_AU_17_axb_Step-7.wav","48","","","","","AU","resources/audio/wordStim/S9_AU_17_axb_Step-7.wav","S9","17","axb","7","CN","0","0","true"
"null","","fixation","html-keyboard-response","186","748094","0.0-8.0-0.79","5eb6e12a2541f25eb790569a","condA","","<div class=""vertical-center"" style='width:60%;'><p style='font-weight:bold;'>Does the middle word sound more like the first word (A) or the last word (B)?</p> <br> <div class=""container""> <div id=""a-box""> <p class=""title-text"">A</h3></p> </div> <div id=""x-box""> <p class=""title-text"">X<p> </div> <div id=""b-box""> <p class=""title-text"">B</p></div> <br> <div style='float: left;padding-left:30px;'><p>Press '1' for A</p></div><div style='float: right;padding-right:30px;'><p>Press '0' for B</p> </div> </div></div>","null","","","","","","","","","","","","","",""
"3621","","test","audio-keyboard-response","187","751723","0.0-8.0-1.79","5eb6e12a2541f25eb790569a","condA","","resources/audio/wordStim/S9_AU_11_axb_Step-3.wav","49","","","","","AU","resources/audio/wordStim/S9_AU_11_axb_Step-3.wav","S9","11","axb","3","CN","0","1","false"
"null","","fixation","html-keyboard-response","188","752752","0.0-8.0-0.80","5eb6e12a2541f25eb790569a","condA","","<div class=""vertical-center"" style='width:60%;'><p style='font-weight:bold;'>Does the middle word sound more like the first word (A) or the last word (B)?</p> <br> <div class=""container""> <div id=""a-box""> <p class=""title-text"">A</h3></p> </div> <div id=""x-box""> <p class=""title-text"">X<p> </div> <div id=""b-box""> <p class=""title-text"">B</p></div> <br> <div style='float: left;padding-left:30px;'><p>Press '1' for A</p></div><div style='float: right;padding-right:30px;'><p>Press '0' for B</p> </div> </div></div>","null","","","","","","","","","","","","","",""
"5928","","test","audio-keyboard-response","189","758691","0.0-8.0-1.80","5eb6e12a2541f25eb790569a","condA","","resources/audio/wordStim/S3_AI_30_bxa_Step-6.wav","48","","","","","AI","resources/audio/wordStim/S3_AI_30_bxa_Step-6.wav","S3","30","bxa","6","MI","1","0","false"
"10127.420000033453","","break","html-keyboard-response","190","769332","0.0-8.0-2.80-0.80","5eb6e12a2541f25eb790569a","condA","","<div class=""vertical-center""><p>Feel free to take a break!</p><i>When you're ready to continue, press SPACE to begin the next trial.</i></p></div>","32","","","","","","","","","","","","","",""
"null","","fixation","html-keyboard-response","191","769852","0.0-8.0-0.81","5eb6e12a2541f25eb790569a","condA","","<div class=""vertical-center"" style='width:60%;'><p style='font-weight:bold;'>Does the middle word sound more like the first word (A) or the last word (B)?</p> <br> <div class=""container""> <div id=""a-box""> <p class=""title-text"">A</h3></p> </div> <div id=""x-box""> <p class=""title-text"">X<p> </div> <div id=""b-box""> <p class=""title-text"">B</p></div> <br> <div style='float: left;padding-left:30px;'><p>Press '1' for A</p></div><div style='float: right;padding-right:30px;'><p>Press '0' for B</p> </div> </div></div>","null","","","","","","","","","","","","","",""
"3749","","test","audio-keyboard-response","192","773611","0.0-8.0-1.81","5eb6e12a2541f25eb790569a","condA","","resources/audio/wordStim/S3_AI_23_bxa_Step-6.wav","48","","","","","AI","resources/audio/wordStim/S3_AI_23_bxa_Step-6.wav","S3","23","bxa","6","MI","1","0","false"
"null","","fixation","html-keyboard-response","193","774622","0.0-8.0-0.82","5eb6e12a2541f25eb790569a","condA","","<div class=""vertical-center"" style='width:60%;'><p style='font-weight:bold;'>Does the middle word sound more like the first word (A) or the last word (B)?</p> <br> <div class=""container""> <div id=""a-box""> <p class=""title-text"">A</h3></p> </div> <div id=""x-box""> <p class=""title-text"">X<p> </div> <div id=""b-box""> <p class=""title-text"">B</p></div> <br> <div style='float: left;padding-left:30px;'><p>Press '1' for A</p></div><div style='float: right;padding-right:30px;'><p>Press '0' for B</p> </div> </div></div>","null","","","","","","","","","","","","","",""
"3040","","test","audio-keyboard-response","194","777666","0.0-8.0-1.82","5eb6e12a2541f25eb790569a","condA","","resources/audio/wordStim/S3_AU_11_axb_Step-10.wav","48","","","","","AU","resources/audio/wordStim/S3_AU_11_axb_Step-10.wav","S3","11","axb","10","MI","0","0","true"
"null","","fixation","html-keyboard-response","195","778685","0.0-8.0-0.83","5eb6e12a2541f25eb790569a","condA","","<div class=""vertical-center"" style='width:60%;'><p style='font-weight:bold;'>Does the middle word sound more like the first word (A) or the last word (B)?</p> <br> <div class=""container""> <div id=""a-box""> <p class=""title-text"">A</h3></p> </div> <div id=""x-box""> <p class=""title-text"">X<p> </div> <div id=""b-box""> <p class=""title-text"">B</p></div> <br> <div style='float: left;padding-left:30px;'><p>Press '1' for A</p></div><div style='float: right;padding-right:30px;'><p>Press '0' for B</p> </div> </div></div>","null","","","","","","","","","","","","","",""
"3341","","test","audio-keyboard-response","196","782026","0.0-8.0-1.83","5eb6e12a2541f25eb790569a","condA","","resources/audio/wordStim/S9_AU_18_axb_Step-9.wav","48","","","","","AU","resources/audio/wordStim/S9_AU_18_axb_Step-9.wav","S9","18","axb","9","CN","0","0","true"
"null","","fixation","html-keyboard-response","197","783038","0.0-8.0-0.84","5eb6e12a2541f25eb790569a","condA","","<div class=""vertical-center"" style='width:60%;'><p style='font-weight:bold;'>Does the middle word sound more like the first word (A) or the last word (B)?</p> <br> <div class=""container""> <div id=""a-box""> <p class=""title-text"">A</h3></p> </div> <div id=""x-box""> <p class=""title-text"">X<p> </div> <div id=""b-box""> <p class=""title-text"">B</p></div> <br> <div style='float: left;padding-left:30px;'><p>Press '1' for A</p></div><div style='float: right;padding-right:30px;'><p>Press '0' for B</p> </div> </div></div>","null","","","","","","","","","","","","","",""
"3309","","test","audio-keyboard-response","198","786346","0.0-8.0-1.84","5eb6e12a2541f25eb790569a","condA","","resources/audio/wordStim/S9_AI_24_axb_Step-7.wav","49","","","","","AI","resources/audio/wordStim/S9_AI_24_axb_Step-7.wav","S9","24","axb","7","CN","0","1","false"
"null","","fixation","html-keyboard-response","199","787371","0.0-8.0-0.85","5eb6e12a2541f25eb790569a","condA","","<div class=""vertical-center"" style='width:60%;'><p style='font-weight:bold;'>Does the middle word sound more like the first word (A) or the last word (B)?</p> <br> <div class=""container""> <div id=""a-box""> <p class=""title-text"">A</h3></p> </div> <div id=""x-box""> <p class=""title-text"">X<p> </div> <div id=""b-box""> <p class=""title-text"">B</p></div> <br> <div style='float: left;padding-left:30px;'><p>Press '1' for A</p></div><div style='float: right;padding-right:30px;'><p>Press '0' for B</p> </div> </div></div>","null","","","","","","","","","","","","","",""
"3040","","test","audio-keyboard-response","200","790410","0.0-8.0-1.85","5eb6e12a2541f25eb790569a","condA","","resources/audio/wordStim/S3_AI_28_axb_Step-3.wav","49","","","","","AI","resources/audio/wordStim/S3_AI_28_axb_Step-3.wav","S3","28","axb","3","MI","0","1","false"
"null","","fixation","html-keyboard-response","201","791430","0.0-8.0-0.86","5eb6e12a2541f25eb790569a","condA","","<div class=""vertical-center"" style='width:60%;'><p style='font-weight:bold;'>Does the middle word sound more like the first word (A) or the last word (B)?</p> <br> <div class=""container""> <div id=""a-box""> <p class=""title-text"">A</h3></p> </div> <div id=""x-box""> <p class=""title-text"">X<p> </div> <div id=""b-box""> <p class=""title-text"">B</p></div> <br> <div style='float: left;padding-left:30px;'><p>Press '1' for A</p></div><div style='float: right;padding-right:30px;'><p>Press '0' for B</p> </div> </div></div>","null","","","","","","","","","","","","","",""
"2451","","test","audio-keyboard-response","202","793883","0.0-8.0-1.86","5eb6e12a2541f25eb790569a","condA","","resources/audio/wordStim/S3_AI_21_bxa_Step-2.wav","48","","","","","AI","resources/audio/wordStim/S3_AI_21_bxa_Step-2.wav","S3","21","bxa","2","MI","1","0","false"
"null","","fixation","html-keyboard-response","203","794902","0.0-8.0-0.87","5eb6e12a2541f25eb790569a","condA","","<div class=""vertical-center"" style='width:60%;'><p style='font-weight:bold;'>Does the middle word sound more like the first word (A) or the last word (B)?</p> <br> <div class=""container""> <div id=""a-box""> <p class=""title-text"">A</h3></p> </div> <div id=""x-box""> <p class=""title-text"">X<p> </div> <div id=""b-box""> <p class=""title-text"">B</p></div> <br> <div style='float: left;padding-left:30px;'><p>Press '1' for A</p></div><div style='float: right;padding-right:30px;'><p>Press '0' for B</p> </div> </div></div>","null","","","","","","","","","","","","","",""
"3429","","test","audio-keyboard-response","204","798340","0.0-8.0-1.87","5eb6e12a2541f25eb790569a","condA","","resources/audio/wordStim/S3_AI_29_bxa_Step-4.wav","49","","","","","AI","resources/audio/wordStim/S3_AI_29_bxa_Step-4.wav","S3","29","bxa","4","MI","1","1","true"
"null","","fixation","html-keyboard-response","205","799355","0.0-8.0-0.88","5eb6e12a2541f25eb790569a","condA","","<div class=""vertical-center"" style='width:60%;'><p style='font-weight:bold;'>Does the middle word sound more like the first word (A) or the last word (B)?</p> <br> <div class=""container""> <div id=""a-box""> <p class=""title-text"">A</h3></p> </div> <div id=""x-box""> <p class=""title-text"">X<p> </div> <div id=""b-box""> <p class=""title-text"">B</p></div> <br> <div style='float: left;padding-left:30px;'><p>Press '1' for A</p></div><div style='float: right;padding-right:30px;'><p>Press '0' for B</p> </div> </div></div>","null","","","","","","","","","","","","","",""
"3640","","test","audio-keyboard-response","206","802996","0.0-8.0-1.88","5eb6e12a2541f25eb790569a","condA","","resources/audio/wordStim/S9_AI_30_axb_Step-3.wav","49","","","","","AI","resources/audio/wordStim/S9_AI_30_axb_Step-3.wav","S9","30","axb","3","CN","0","1","false"
"null","","fixation","html-keyboard-response","207","804027","0.0-8.0-0.89","5eb6e12a2541f25eb790569a","condA","","<div class=""vertical-center"" style='width:60%;'><p style='font-weight:bold;'>Does the middle word sound more like the first word (A) or the last word (B)?</p> <br> <div class=""container""> <div id=""a-box""> <p class=""title-text"">A</h3></p> </div> <div id=""x-box""> <p class=""title-text"">X<p> </div> <div id=""b-box""> <p class=""title-text"">B</p></div> <br> <div style='float: left;padding-left:30px;'><p>Press '1' for A</p></div><div style='float: right;padding-right:30px;'><p>Press '0' for B</p> </div> </div></div>","null","","","","","","","","","","","","","",""
"6451","","test","audio-keyboard-response","208","810485","0.0-8.0-1.89","5eb6e12a2541f25eb790569a","condA","","resources/audio/wordStim/S9_AU_17_bxa_Step-4.wav","49","","","","","AU","resources/audio/wordStim/S9_AU_17_bxa_Step-4.wav","S9","17","bxa","4","CN","1","1","true"
"null","","fixation","html-keyboard-response","209","811504","0.0-8.0-0.90","5eb6e12a2541f25eb790569a","condA","","<div class=""vertical-center"" style='width:60%;'><p style='font-weight:bold;'>Does the middle word sound more like the first word (A) or the last word (B)?</p> <br> <div class=""container""> <div id=""a-box""> <p class=""title-text"">A</h3></p> </div> <div id=""x-box""> <p class=""title-text"">X<p> </div> <div id=""b-box""> <p class=""title-text"">B</p></div> <br> <div style='float: left;padding-left:30px;'><p>Press '1' for A</p></div><div style='float: right;padding-right:30px;'><p>Press '0' for B</p> </div> </div></div>","null","","","","","","","","","","","","","",""
"3029","","test","audio-keyboard-response","210","814539","0.0-8.0-1.90","5eb6e12a2541f25eb790569a","condA","","resources/audio/wordStim/S3_AI_28_axb_Step-9.wav","48","","","","","AI","resources/audio/wordStim/S3_AI_28_axb_Step-9.wav","S3","28","axb","9","MI","0","0","true"
"null","","fixation","html-keyboard-response","211","815563","0.0-8.0-0.91","5eb6e12a2541f25eb790569a","condA","","<div class=""vertical-center"" style='width:60%;'><p style='font-weight:bold;'>Does the middle word sound more like the first word (A) or the last word (B)?</p> <br> <div class=""container""> <div id=""a-box""> <p class=""title-text"">A</h3></p> </div> <div id=""x-box""> <p class=""title-text"">X<p> </div> <div id=""b-box""> <p class=""title-text"">B</p></div> <br> <div style='float: left;padding-left:30px;'><p>Press '1' for A</p></div><div style='float: right;padding-right:30px;'><p>Press '0' for B</p> </div> </div></div>","null","","","","","","","","","","","","","",""
"3432","","test","audio-keyboard-response","212","818996","0.0-8.0-1.91","5eb6e12a2541f25eb790569a","condA","","resources/audio/wordStim/S9_AI_27_axb_Step-3.wav","49","","","","","AI","resources/audio/wordStim/S9_AI_27_axb_Step-3.wav","S9","27","axb","3","CN","0","1","false"
"null","","fixation","html-keyboard-response","213","820014","0.0-8.0-0.92","5eb6e12a2541f25eb790569a","condA","","<div class=""vertical-center"" style='width:60%;'><p style='font-weight:bold;'>Does the middle word sound more like the first word (A) or the last word (B)?</p> <br> <div class=""container""> <div id=""a-box""> <p class=""title-text"">A</h3></p> </div> <div id=""x-box""> <p class=""title-text"">X<p> </div> <div id=""b-box""> <p class=""title-text"">B</p></div> <br> <div style='float: left;padding-left:30px;'><p>Press '1' for A</p></div><div style='float: right;padding-right:30px;'><p>Press '0' for B</p> </div> </div></div>","null","","","","","","","","","","","","","",""
"3581","","test","audio-keyboard-response","214","823595","0.0-8.0-1.92","5eb6e12a2541f25eb790569a","condA","","resources/audio/wordStim/S9_AU_13_axb_Step-10.wav","49","","","","","AU","resources/audio/wordStim/S9_AU_13_axb_Step-10.wav","S9","13","axb","10","CN","0","1","false"
