"rt","url","trial_role","trial_type","trial_index","time_elapsed","internal_node_id","participantId","condition","view_history","stimulus","key_press","button_pressed","correct_answer","correct_response","success","vowel","wordStim","speaker","sentNum","order","step","speakerIdentity","raised_answer","key_response","raised_response"
"26580.870000005234","micr.con.consent.html","consent","external-html","0","26629","0.0-0.0","5f32aab12a9f82000854c3ea","condA","","","","","","","","","","","","","","","","",""
"89608.79999998724","","instructions","instructions","1","116243","0.0-1.0","5f32aab12a9f82000854c3ea","condA","[{""page_index"":0,""viewing_time"":62079.68999998411},{""page_index"":1,""viewing_time"":8552.03999998048},{""page_index"":2,""viewing_time"":18976.315000036266}]","","","","","","","","","","","","","","","",""
"null","","fixation","html-keyboard-response","2","116748","0.0-2.0-0.0","5f32aab12a9f82000854c3ea","condA","","<div class=""vertical-center"" style=""font-size:60px;"">+</div>","null","","","","","","","","","","","","","",""
"4657.080000033602","","tonetest","audio-button-response","3","121416","0.0-2.0-1.0","5f32aab12a9f82000854c3ea","condA","","../../src/audio/toneTest_3.wav","","2","2","true","","","","","","","","","","",""
"null","","fixation","html-keyboard-response","4","121919","0.0-2.0-0.1","5f32aab12a9f82000854c3ea","condA","","<div class=""vertical-center"" style=""font-size:60px;"">+</div>","null","","","","","","","","","","","","","",""
"4494.895000010729","","tonetest","audio-button-response","5","126419","0.0-2.0-1.1","5f32aab12a9f82000854c3ea","condA","","../../src/audio/toneTest_4.wav","","1","1","true","","","","","","","","","","",""
"null","","fixation","html-keyboard-response","6","126923","0.0-2.0-0.2","5f32aab12a9f82000854c3ea","condA","","<div class=""vertical-center"" style=""font-size:60px;"">+</div>","null","","","","","","","","","","","","","",""
"4444.099999964237","","tonetest","audio-button-response","7","131377","0.0-2.0-1.2","5f32aab12a9f82000854c3ea","condA","","../../src/audio/toneTest_3.wav","","2","2","true","","","","","","","","","","",""
"null","","fixation","html-keyboard-response","8","131883","0.0-2.0-0.3","5f32aab12a9f82000854c3ea","condA","","<div class=""vertical-center"" style=""font-size:60px;"">+</div>","null","","","","","","","","","","","","","",""
"4489.090000046417","","tonetest","audio-button-response","9","136379","0.0-2.0-1.3","5f32aab12a9f82000854c3ea","condA","","../../src/audio/toneTest_4.wav","","1","1","true","","","","","","","","","","",""
"null","","fixation","html-keyboard-response","10","136881","0.0-2.0-0.4","5f32aab12a9f82000854c3ea","condA","","<div class=""vertical-center"" style=""font-size:60px;"">+</div>","null","","","","","","","","","","","","","",""
"4265.475000021979","","tonetest","audio-button-response","11","141152","0.0-2.0-1.4","5f32aab12a9f82000854c3ea","condA","","../../src/audio/toneTest_1.wav","","2","2","true","","","","","","","","","","",""
"null","","fixation","html-keyboard-response","12","141657","0.0-2.0-0.5","5f32aab12a9f82000854c3ea","condA","","<div class=""vertical-center"" style=""font-size:60px;"">+</div>","null","","","","","","","","","","","","","",""
"3769.8749999981374","","tonetest","audio-button-response","13","145430","0.0-2.0-1.5","5f32aab12a9f82000854c3ea","condA","","../../src/audio/toneTest_2.wav","","1","1","true","","","","","","","","","","",""
"6348.445000010543","","instructions","html-keyboard-response","14","151781","0.0-3.0","5f32aab12a9f82000854c3ea","condA","","<div class=""vertical-center""><p><b>Your score was 6/6.</b></p><p>If you scored below 6, please ensure that you are wearing properly functioning headphones and in a quiet location free of distractions.</p><p><i>To continue to the main experiment, press SPACE.</i></p></div>","32","","","","","","","","","","","","","",""
"","","","fullscreen","15","157871","0.0-4.0","5f32aab12a9f82000854c3ea","condA","","","","","","","true","","","","","","","","","",""
"31426.34000000544","","instructions","instructions","16","189302","0.0-5.0","5f32aab12a9f82000854c3ea","condA","[{""page_index"":0,""viewing_time"":31424.79000001913}]","","","","","","","","","","","","","","","",""
"null","","fixation","html-keyboard-response","17","189807","0.0-6.0-0.0","5f32aab12a9f82000854c3ea","condA","","<div class=""vertical-center"" style='width:60%;'><p style='font-weight:bold;'>Does the middle word sound more like the first word (A) or the last word (B)?</p> <br> <div class=""container""> <div id=""a-box""> <p class=""title-text"">A</h3></p> </div> <div id=""x-box""> <p class=""title-text"">X<p> </div> <div id=""b-box""> <p class=""title-text"">B</p></div> <br> <div style='float: left;padding-left:30px;'><p>Press '1' for A</p></div><div style='float: right;padding-right:30px;'><p>Press '0' for B</p> </div> </div></div>","null","","","","","","","","","","","","","",""
"5371","","practice","audio-keyboard-response","18","195219","0.0-6.0-1.0","5f32aab12a9f82000854c3ea","condA","","resources/audio/practiceStim/S1_AI_21_axb_Step-6.wav","49","","","","","","","","","","","","","",""
"null","","fixation","html-keyboard-response","19","196224","0.0-6.0-0.1","5f32aab12a9f82000854c3ea","condA","","<div class=""vertical-center"" style='width:60%;'><p style='font-weight:bold;'>Does the middle word sound more like the first word (A) or the last word (B)?</p> <br> <div class=""container""> <div id=""a-box""> <p class=""title-text"">A</h3></p> </div> <div id=""x-box""> <p class=""title-text"">X<p> </div> <div id=""b-box""> <p class=""title-text"">B</p></div> <br> <div style='float: left;padding-left:30px;'><p>Press '1' for A</p></div><div style='float: right;padding-right:30px;'><p>Press '0' for B</p> </div> </div></div>","null","","","","","","","","","","","","","",""
"3589","","practice","audio-keyboard-response","20","199815","0.0-6.0-1.1","5f32aab12a9f82000854c3ea","condA","","resources/audio/practiceStim/S1_AU_14_axb_Step-6.wav","48","","","","","","","","","","","","","",""
"null","","fixation","html-keyboard-response","21","200821","0.0-6.0-0.2","5f32aab12a9f82000854c3ea","condA","","<div class=""vertical-center"" style='width:60%;'><p style='font-weight:bold;'>Does the middle word sound more like the first word (A) or the last word (B)?</p> <br> <div class=""container""> <div id=""a-box""> <p class=""title-text"">A</h3></p> </div> <div id=""x-box""> <p class=""title-text"">X<p> </div> <div id=""b-box""> <p class=""title-text"">B</p></div> <br> <div style='float: left;padding-left:30px;'><p>Press '1' for A</p></div><div style='float: right;padding-right:30px;'><p>Press '0' for B</p> </div> </div></div>","null","","","","","","","","","","","","","",""
"2859","","practice","audio-keyboard-response","22","203692","0.0-6.0-1.2","5f32aab12a9f82000854c3ea","condA","","resources/audio/practiceStim/S1_AU_14_bxa_Step-6.wav","49","","","","","","","","","","","","","",""
"null","","fixation","html-keyboard-response","23","204697","0.0-6.0-0.3","5f32aab12a9f82000854c3ea","condA","","<div class=""vertical-center"" style='width:60%;'><p style='font-weight:bold;'>Does the middle word sound more like the first word (A) or the last word (B)?</p> <br> <div class=""container""> <div id=""a-box""> <p class=""title-text"">A</h3></p> </div> <div id=""x-box""> <p class=""title-text"">X<p> </div> <div id=""b-box""> <p class=""title-text"">B</p></div> <br> <div style='float: left;padding-left:30px;'><p>Press '1' for A</p></div><div style='float: right;padding-right:30px;'><p>Press '0' for B</p> </div> </div></div>","null","","","","","","","","","","","","","",""
"4899","","practice","audio-keyboard-response","24","209611","0.0-6.0-1.3","5f32aab12a9f82000854c3ea","condA","","resources/audio/practiceStim/S1_AI_21_bxa_Step-6.wav","49","","","","","","","","","","","","","",""
"1723.409999976866","","instructions","instructions","25","211838","0.0-7.0","5f32aab12a9f82000854c3ea","condA","[{""page_index"":0,""viewing_time"":1722.7500000153668}]","","","","","","","","","","","","","","","",""
"null","","fixation","html-keyboard-response","26","212344","0.0-8.0-0.0","5f32aab12a9f82000854c3ea","condA","","<div class=""vertical-center"" style='width:60%;'><p style='font-weight:bold;'>Does the middle word sound more like the first word (A) or the last word (B)?</p> <br> <div class=""container""> <div id=""a-box""> <p class=""title-text"">A</h3></p> </div> <div id=""x-box""> <p class=""title-text"">X<p> </div> <div id=""b-box""> <p class=""title-text"">B</p></div> <br> <div style='float: left;padding-left:30px;'><p>Press '1' for A</p></div><div style='float: right;padding-right:30px;'><p>Press '0' for B</p> </div> </div></div>","null","","","","","","","","","","","","","",""
"3888","","test","audio-keyboard-response","27","216234","0.0-8.0-1.0","5f32aab12a9f82000854c3ea","condA","","resources/audio/wordStim/S3_AU_16_axb_Step-3.wav","49","","","","","AU","resources/audio/wordStim/S3_AU_16_axb_Step-3.wav","S3","16","axb","3","MI","0","1","false"
"null","","fixation","html-keyboard-response","28","217243","0.0-8.0-0.1","5f32aab12a9f82000854c3ea","condA","","<div class=""vertical-center"" style='width:60%;'><p style='font-weight:bold;'>Does the middle word sound more like the first word (A) or the last word (B)?</p> <br> <div class=""container""> <div id=""a-box""> <p class=""title-text"">A</h3></p> </div> <div id=""x-box""> <p class=""title-text"">X<p> </div> <div id=""b-box""> <p class=""title-text"">B</p></div> <br> <div style='float: left;padding-left:30px;'><p>Press '1' for A</p></div><div style='float: right;padding-right:30px;'><p>Press '0' for B</p> </div> </div></div>","null","","","","","","","","","","","","","",""
"15880","","test","audio-keyboard-response","29","233127","0.0-8.0-1.1","5f32aab12a9f82000854c3ea","condA","","resources/audio/wordStim/S9_AI_27_bxa_Step-4.wav","49","","","","","AI","resources/audio/wordStim/S9_AI_27_bxa_Step-4.wav","S9","27","bxa","4","CN","1","1","true"
"null","","fixation","html-keyboard-response","30","234135","0.0-8.0-0.2","5f32aab12a9f82000854c3ea","condA","","<div class=""vertical-center"" style='width:60%;'><p style='font-weight:bold;'>Does the middle word sound more like the first word (A) or the last word (B)?</p> <br> <div class=""container""> <div id=""a-box""> <p class=""title-text"">A</h3></p> </div> <div id=""x-box""> <p class=""title-text"">X<p> </div> <div id=""b-box""> <p class=""title-text"">B</p></div> <br> <div style='float: left;padding-left:30px;'><p>Press '1' for A</p></div><div style='float: right;padding-right:30px;'><p>Press '0' for B</p> </div> </div></div>","null","","","","","","","","","","","","","",""
"2640","","test","audio-keyboard-response","31","236780","0.0-8.0-1.2","5f32aab12a9f82000854c3ea","condA","","resources/audio/wordStim/S9_AU_14_axb_Step-10.wav","49","","","","","AU","resources/audio/wordStim/S9_AU_14_axb_Step-10.wav","S9","14","axb","10","CN","0","1","false"
"null","","fixation","html-keyboard-response","32","237787","0.0-8.0-0.3","5f32aab12a9f82000854c3ea","condA","","<div class=""vertical-center"" style='width:60%;'><p style='font-weight:bold;'>Does the middle word sound more like the first word (A) or the last word (B)?</p> <br> <div class=""container""> <div id=""a-box""> <p class=""title-text"">A</h3></p> </div> <div id=""x-box""> <p class=""title-text"">X<p> </div> <div id=""b-box""> <p class=""title-text"">B</p></div> <br> <div style='float: left;padding-left:30px;'><p>Press '1' for A</p></div><div style='float: right;padding-right:30px;'><p>Press '0' for B</p> </div> </div></div>","null","","","","","","","","","","","","","",""
"2880","","test","audio-keyboard-response","33","240666","0.0-8.0-1.3","5f32aab12a9f82000854c3ea","condA","","resources/audio/wordStim/S9_AI_27_bxa_Step-6.wav","49","","","","","AI","resources/audio/wordStim/S9_AI_27_bxa_Step-6.wav","S9","27","bxa","6","CN","1","1","true"
"null","","fixation","html-keyboard-response","34","241673","0.0-8.0-0.4","5f32aab12a9f82000854c3ea","condA","","<div class=""vertical-center"" style='width:60%;'><p style='font-weight:bold;'>Does the middle word sound more like the first word (A) or the last word (B)?</p> <br> <div class=""container""> <div id=""a-box""> <p class=""title-text"">A</h3></p> </div> <div id=""x-box""> <p class=""title-text"">X<p> </div> <div id=""b-box""> <p class=""title-text"">B</p></div> <br> <div style='float: left;padding-left:30px;'><p>Press '1' for A</p></div><div style='float: right;padding-right:30px;'><p>Press '0' for B</p> </div> </div></div>","null","","","","","","","","","","","","","",""
"6811","","test","audio-keyboard-response","35","248487","0.0-8.0-1.4","5f32aab12a9f82000854c3ea","condA","","resources/audio/wordStim/S9_AI_24_bxa_Step-6.wav","49","","","","","AI","resources/audio/wordStim/S9_AI_24_bxa_Step-6.wav","S9","24","bxa","6","CN","1","1","true"
"null","","fixation","html-keyboard-response","36","249495","0.0-8.0-0.5","5f32aab12a9f82000854c3ea","condA","","<div class=""vertical-center"" style='width:60%;'><p style='font-weight:bold;'>Does the middle word sound more like the first word (A) or the last word (B)?</p> <br> <div class=""container""> <div id=""a-box""> <p class=""title-text"">A</h3></p> </div> <div id=""x-box""> <p class=""title-text"">X<p> </div> <div id=""b-box""> <p class=""title-text"">B</p></div> <br> <div style='float: left;padding-left:30px;'><p>Press '1' for A</p></div><div style='float: right;padding-right:30px;'><p>Press '0' for B</p> </div> </div></div>","null","","","","","","","","","","","","","",""
"4629","","test","audio-keyboard-response","37","254131","0.0-8.0-1.5","5f32aab12a9f82000854c3ea","condA","","resources/audio/wordStim/S3_AU_18_axb_Step-3.wav","48","","","","","AU","resources/audio/wordStim/S3_AU_18_axb_Step-3.wav","S3","18","axb","3","MI","0","0","true"
"null","","fixation","html-keyboard-response","38","255139","0.0-8.0-0.6","5f32aab12a9f82000854c3ea","condA","","<div class=""vertical-center"" style='width:60%;'><p style='font-weight:bold;'>Does the middle word sound more like the first word (A) or the last word (B)?</p> <br> <div class=""container""> <div id=""a-box""> <p class=""title-text"">A</h3></p> </div> <div id=""x-box""> <p class=""title-text"">X<p> </div> <div id=""b-box""> <p class=""title-text"">B</p></div> <br> <div style='float: left;padding-left:30px;'><p>Press '1' for A</p></div><div style='float: right;padding-right:30px;'><p>Press '0' for B</p> </div> </div></div>","null","","","","","","","","","","","","","",""
"3389","","test","audio-keyboard-response","39","258542","0.0-8.0-1.6","5f32aab12a9f82000854c3ea","condA","","resources/audio/wordStim/S3_AU_20_axb_Step-3.wav","48","","","","","AU","resources/audio/wordStim/S3_AU_20_axb_Step-3.wav","S3","20","axb","3","MI","0","0","true"
"null","","fixation","html-keyboard-response","40","259548","0.0-8.0-0.7","5f32aab12a9f82000854c3ea","condA","","<div class=""vertical-center"" style='width:60%;'><p style='font-weight:bold;'>Does the middle word sound more like the first word (A) or the last word (B)?</p> <br> <div class=""container""> <div id=""a-box""> <p class=""title-text"">A</h3></p> </div> <div id=""x-box""> <p class=""title-text"">X<p> </div> <div id=""b-box""> <p class=""title-text"">B</p></div> <br> <div style='float: left;padding-left:30px;'><p>Press '1' for A</p></div><div style='float: right;padding-right:30px;'><p>Press '0' for B</p> </div> </div></div>","null","","","","","","","","","","","","","",""
"2992","","test","audio-keyboard-response","41","262550","0.0-8.0-1.7","5f32aab12a9f82000854c3ea","condA","","resources/audio/wordStim/S3_AI_28_bxa_Step-8.wav","49","","","","","AI","resources/audio/wordStim/S3_AI_28_bxa_Step-8.wav","S3","28","bxa","8","MI","1","1","true"
"null","","fixation","html-keyboard-response","42","263555","0.0-8.0-0.8","5f32aab12a9f82000854c3ea","condA","","<div class=""vertical-center"" style='width:60%;'><p style='font-weight:bold;'>Does the middle word sound more like the first word (A) or the last word (B)?</p> <br> <div class=""container""> <div id=""a-box""> <p class=""title-text"">A</h3></p> </div> <div id=""x-box""> <p class=""title-text"">X<p> </div> <div id=""b-box""> <p class=""title-text"">B</p></div> <br> <div style='float: left;padding-left:30px;'><p>Press '1' for A</p></div><div style='float: right;padding-right:30px;'><p>Press '0' for B</p> </div> </div></div>","null","","","","","","","","","","","","","",""
"2931","","test","audio-keyboard-response","43","266491","0.0-8.0-1.8","5f32aab12a9f82000854c3ea","condA","","resources/audio/wordStim/S9_AU_14_axb_Step-3.wav","49","","","","","AU","resources/audio/wordStim/S9_AU_14_axb_Step-3.wav","S9","14","axb","3","CN","0","1","false"
"null","","fixation","html-keyboard-response","44","267496","0.0-8.0-0.9","5f32aab12a9f82000854c3ea","condA","","<div class=""vertical-center"" style='width:60%;'><p style='font-weight:bold;'>Does the middle word sound more like the first word (A) or the last word (B)?</p> <br> <div class=""container""> <div id=""a-box""> <p class=""title-text"">A</h3></p> </div> <div id=""x-box""> <p class=""title-text"">X<p> </div> <div id=""b-box""> <p class=""title-text"">B</p></div> <br> <div style='float: left;padding-left:30px;'><p>Press '1' for A</p></div><div style='float: right;padding-right:30px;'><p>Press '0' for B</p> </div> </div></div>","null","","","","","","","","","","","","","",""
"2920","","test","audio-keyboard-response","45","270418","0.0-8.0-1.9","5f32aab12a9f82000854c3ea","condA","","resources/audio/wordStim/S3_AU_11_bxa_Step-6.wav","49","","","","","AU","resources/audio/wordStim/S3_AU_11_bxa_Step-6.wav","S3","11","bxa","6","MI","1","1","true"
"null","","fixation","html-keyboard-response","46","271424","0.0-8.0-0.10","5f32aab12a9f82000854c3ea","condA","","<div class=""vertical-center"" style='width:60%;'><p style='font-weight:bold;'>Does the middle word sound more like the first word (A) or the last word (B)?</p> <br> <div class=""container""> <div id=""a-box""> <p class=""title-text"">A</h3></p> </div> <div id=""x-box""> <p class=""title-text"">X<p> </div> <div id=""b-box""> <p class=""title-text"">B</p></div> <br> <div style='float: left;padding-left:30px;'><p>Press '1' for A</p></div><div style='float: right;padding-right:30px;'><p>Press '0' for B</p> </div> </div></div>","null","","","","","","","","","","","","","",""
"2960","","test","audio-keyboard-response","47","274391","0.0-8.0-1.10","5f32aab12a9f82000854c3ea","condA","","resources/audio/wordStim/S3_AI_30_axb_Step-7.wav","49","","","","","AI","resources/audio/wordStim/S3_AI_30_axb_Step-7.wav","S3","30","axb","7","MI","0","1","false"
"null","","fixation","html-keyboard-response","48","275399","0.0-8.0-0.11","5f32aab12a9f82000854c3ea","condA","","<div class=""vertical-center"" style='width:60%;'><p style='font-weight:bold;'>Does the middle word sound more like the first word (A) or the last word (B)?</p> <br> <div class=""container""> <div id=""a-box""> <p class=""title-text"">A</h3></p> </div> <div id=""x-box""> <p class=""title-text"">X<p> </div> <div id=""b-box""> <p class=""title-text"">B</p></div> <br> <div style='float: left;padding-left:30px;'><p>Press '1' for A</p></div><div style='float: right;padding-right:30px;'><p>Press '0' for B</p> </div> </div></div>","null","","","","","","","","","","","","","",""
"2731","","test","audio-keyboard-response","49","278139","0.0-8.0-1.11","5f32aab12a9f82000854c3ea","condA","","resources/audio/wordStim/S3_AI_30_bxa_Step-8.wav","49","","","","","AI","resources/audio/wordStim/S3_AI_30_bxa_Step-8.wav","S3","30","bxa","8","MI","1","1","true"
"null","","fixation","html-keyboard-response","50","279146","0.0-8.0-0.12","5f32aab12a9f82000854c3ea","condA","","<div class=""vertical-center"" style='width:60%;'><p style='font-weight:bold;'>Does the middle word sound more like the first word (A) or the last word (B)?</p> <br> <div class=""container""> <div id=""a-box""> <p class=""title-text"">A</h3></p> </div> <div id=""x-box""> <p class=""title-text"">X<p> </div> <div id=""b-box""> <p class=""title-text"">B</p></div> <br> <div style='float: left;padding-left:30px;'><p>Press '1' for A</p></div><div style='float: right;padding-right:30px;'><p>Press '0' for B</p> </div> </div></div>","null","","","","","","","","","","","","","",""
"4568","","test","audio-keyboard-response","51","283723","0.0-8.0-1.12","5f32aab12a9f82000854c3ea","condA","","resources/audio/wordStim/S3_AI_22_bxa_Step-4.wav","49","","","","","AI","resources/audio/wordStim/S3_AI_22_bxa_Step-4.wav","S3","22","bxa","4","MI","1","1","true"
"null","","fixation","html-keyboard-response","52","284737","0.0-8.0-0.13","5f32aab12a9f82000854c3ea","condA","","<div class=""vertical-center"" style='width:60%;'><p style='font-weight:bold;'>Does the middle word sound more like the first word (A) or the last word (B)?</p> <br> <div class=""container""> <div id=""a-box""> <p class=""title-text"">A</h3></p> </div> <div id=""x-box""> <p class=""title-text"">X<p> </div> <div id=""b-box""> <p class=""title-text"">B</p></div> <br> <div style='float: left;padding-left:30px;'><p>Press '1' for A</p></div><div style='float: right;padding-right:30px;'><p>Press '0' for B</p> </div> </div></div>","null","","","","","","","","","","","","","",""
"5328","","test","audio-keyboard-response","53","290074","0.0-8.0-1.13","5f32aab12a9f82000854c3ea","condA","","resources/audio/wordStim/S9_AI_24_axb_Step-10.wav","49","","","","","AI","resources/audio/wordStim/S9_AI_24_axb_Step-10.wav","S9","24","axb","10","CN","0","1","false"
"null","","fixation","html-keyboard-response","54","291081","0.0-8.0-0.14","5f32aab12a9f82000854c3ea","condA","","<div class=""vertical-center"" style='width:60%;'><p style='font-weight:bold;'>Does the middle word sound more like the first word (A) or the last word (B)?</p> <br> <div class=""container""> <div id=""a-box""> <p class=""title-text"">A</h3></p> </div> <div id=""x-box""> <p class=""title-text"">X<p> </div> <div id=""b-box""> <p class=""title-text"">B</p></div> <br> <div style='float: left;padding-left:30px;'><p>Press '1' for A</p></div><div style='float: right;padding-right:30px;'><p>Press '0' for B</p> </div> </div></div>","null","","","","","","","","","","","","","",""
"3411","","test","audio-keyboard-response","55","294502","0.0-8.0-1.14","5f32aab12a9f82000854c3ea","condA","","resources/audio/wordStim/S3_AU_17_axb_Step-9.wav","49","","","","","AU","resources/audio/wordStim/S3_AU_17_axb_Step-9.wav","S3","17","axb","9","MI","0","1","false"
"null","","fixation","html-keyboard-response","56","295508","0.0-8.0-0.15","5f32aab12a9f82000854c3ea","condA","","<div class=""vertical-center"" style='width:60%;'><p style='font-weight:bold;'>Does the middle word sound more like the first word (A) or the last word (B)?</p> <br> <div class=""container""> <div id=""a-box""> <p class=""title-text"">A</h3></p> </div> <div id=""x-box""> <p class=""title-text"">X<p> </div> <div id=""b-box""> <p class=""title-text"">B</p></div> <br> <div style='float: left;padding-left:30px;'><p>Press '1' for A</p></div><div style='float: right;padding-right:30px;'><p>Press '0' for B</p> </div> </div></div>","null","","","","","","","","","","","","","",""
"3541","","test","audio-keyboard-response","57","299061","0.0-8.0-1.15","5f32aab12a9f82000854c3ea","condA","","resources/audio/wordStim/S9_AI_30_axb_Step-3.wav","48","","","","","AI","resources/audio/wordStim/S9_AI_30_axb_Step-3.wav","S9","30","axb","3","CN","0","0","true"
"null","","fixation","html-keyboard-response","58","300066","0.0-8.0-0.16","5f32aab12a9f82000854c3ea","condA","","<div class=""vertical-center"" style='width:60%;'><p style='font-weight:bold;'>Does the middle word sound more like the first word (A) or the last word (B)?</p> <br> <div class=""container""> <div id=""a-box""> <p class=""title-text"">A</h3></p> </div> <div id=""x-box""> <p class=""title-text"">X<p> </div> <div id=""b-box""> <p class=""title-text"">B</p></div> <br> <div style='float: left;padding-left:30px;'><p>Press '1' for A</p></div><div style='float: right;padding-right:30px;'><p>Press '0' for B</p> </div> </div></div>","null","","","","","","","","","","","","","",""
"2789","","test","audio-keyboard-response","59","302858","0.0-8.0-1.16","5f32aab12a9f82000854c3ea","condA","","resources/audio/wordStim/S9_AU_14_axb_Step-9.wav","49","","","","","AU","resources/audio/wordStim/S9_AU_14_axb_Step-9.wav","S9","14","axb","9","CN","0","1","false"
"null","","fixation","html-keyboard-response","60","303863","0.0-8.0-0.17","5f32aab12a9f82000854c3ea","condA","","<div class=""vertical-center"" style='width:60%;'><p style='font-weight:bold;'>Does the middle word sound more like the first word (A) or the last word (B)?</p> <br> <div class=""container""> <div id=""a-box""> <p class=""title-text"">A</h3></p> </div> <div id=""x-box""> <p class=""title-text"">X<p> </div> <div id=""b-box""> <p class=""title-text"">B</p></div> <br> <div style='float: left;padding-left:30px;'><p>Press '1' for A</p></div><div style='float: right;padding-right:30px;'><p>Press '0' for B</p> </div> </div></div>","null","","","","","","","","","","","","","",""
"3000","","test","audio-keyboard-response","61","306865","0.0-8.0-1.17","5f32aab12a9f82000854c3ea","condA","","resources/audio/wordStim/S3_AI_28_axb_Step-3.wav","49","","","","","AI","resources/audio/wordStim/S3_AI_28_axb_Step-3.wav","S3","28","axb","3","MI","0","1","false"
"null","","fixation","html-keyboard-response","62","307870","0.0-8.0-0.18","5f32aab12a9f82000854c3ea","condA","","<div class=""vertical-center"" style='width:60%;'><p style='font-weight:bold;'>Does the middle word sound more like the first word (A) or the last word (B)?</p> <br> <div class=""container""> <div id=""a-box""> <p class=""title-text"">A</h3></p> </div> <div id=""x-box""> <p class=""title-text"">X<p> </div> <div id=""b-box""> <p class=""title-text"">B</p></div> <br> <div style='float: left;padding-left:30px;'><p>Press '1' for A</p></div><div style='float: right;padding-right:30px;'><p>Press '0' for B</p> </div> </div></div>","null","","","","","","","","","","","","","",""
"2701","","test","audio-keyboard-response","63","310578","0.0-8.0-1.18","5f32aab12a9f82000854c3ea","condA","","resources/audio/wordStim/S3_AI_23_bxa_Step-8.wav","49","","","","","AI","resources/audio/wordStim/S3_AI_23_bxa_Step-8.wav","S3","23","bxa","8","MI","1","1","true"
"null","","fixation","html-keyboard-response","64","311583","0.0-8.0-0.19","5f32aab12a9f82000854c3ea","condA","","<div class=""vertical-center"" style='width:60%;'><p style='font-weight:bold;'>Does the middle word sound more like the first word (A) or the last word (B)?</p> <br> <div class=""container""> <div id=""a-box""> <p class=""title-text"">A</h3></p> </div> <div id=""x-box""> <p class=""title-text"">X<p> </div> <div id=""b-box""> <p class=""title-text"">B</p></div> <br> <div style='float: left;padding-left:30px;'><p>Press '1' for A</p></div><div style='float: right;padding-right:30px;'><p>Press '0' for B</p> </div> </div></div>","null","","","","","","","","","","","","","",""
"2739","","test","audio-keyboard-response","65","314329","0.0-8.0-1.19","5f32aab12a9f82000854c3ea","condA","","resources/audio/wordStim/S9_AI_27_bxa_Step-2.wav","49","","","","","AI","resources/audio/wordStim/S9_AI_27_bxa_Step-2.wav","S9","27","bxa","2","CN","1","1","true"
"null","","fixation","html-keyboard-response","66","315335","0.0-8.0-0.20","5f32aab12a9f82000854c3ea","condA","","<div class=""vertical-center"" style='width:60%;'><p style='font-weight:bold;'>Does the middle word sound more like the first word (A) or the last word (B)?</p> <br> <div class=""container""> <div id=""a-box""> <p class=""title-text"">A</h3></p> </div> <div id=""x-box""> <p class=""title-text"">X<p> </div> <div id=""b-box""> <p class=""title-text"">B</p></div> <br> <div style='float: left;padding-left:30px;'><p>Press '1' for A</p></div><div style='float: right;padding-right:30px;'><p>Press '0' for B</p> </div> </div></div>","null","","","","","","","","","","","","","",""
"2629","","test","audio-keyboard-response","67","317963","0.0-8.0-1.20","5f32aab12a9f82000854c3ea","condA","","resources/audio/wordStim/S9_AU_16_axb_Step-3.wav","49","","","","","AU","resources/audio/wordStim/S9_AU_16_axb_Step-3.wav","S9","16","axb","3","CN","0","1","false"
"null","","fixation","html-keyboard-response","68","318968","0.0-8.0-0.21","5f32aab12a9f82000854c3ea","condA","","<div class=""vertical-center"" style='width:60%;'><p style='font-weight:bold;'>Does the middle word sound more like the first word (A) or the last word (B)?</p> <br> <div class=""container""> <div id=""a-box""> <p class=""title-text"">A</h3></p> </div> <div id=""x-box""> <p class=""title-text"">X<p> </div> <div id=""b-box""> <p class=""title-text"">B</p></div> <br> <div style='float: left;padding-left:30px;'><p>Press '1' for A</p></div><div style='float: right;padding-right:30px;'><p>Press '0' for B</p> </div> </div></div>","null","","","","","","","","","","","","","",""
"3091","","test","audio-keyboard-response","69","322059","0.0-8.0-1.21","5f32aab12a9f82000854c3ea","condA","","resources/audio/wordStim/S9_AU_11_axb_Step-10.wav","49","","","","","AU","resources/audio/wordStim/S9_AU_11_axb_Step-10.wav","S9","11","axb","10","CN","0","1","false"
"null","","fixation","html-keyboard-response","70","323064","0.0-8.0-0.22","5f32aab12a9f82000854c3ea","condA","","<div class=""vertical-center"" style='width:60%;'><p style='font-weight:bold;'>Does the middle word sound more like the first word (A) or the last word (B)?</p> <br> <div class=""container""> <div id=""a-box""> <p class=""title-text"">A</h3></p> </div> <div id=""x-box""> <p class=""title-text"">X<p> </div> <div id=""b-box""> <p class=""title-text"">B</p></div> <br> <div style='float: left;padding-left:30px;'><p>Press '1' for A</p></div><div style='float: right;padding-right:30px;'><p>Press '0' for B</p> </div> </div></div>","null","","","","","","","","","","","","","",""
"2440","","test","audio-keyboard-response","71","325506","0.0-8.0-1.22","5f32aab12a9f82000854c3ea","condA","","resources/audio/wordStim/S3_AI_21_axb_Step-9.wav","49","","","","","AI","resources/audio/wordStim/S3_AI_21_axb_Step-9.wav","S3","21","axb","9","MI","0","1","false"
"null","","fixation","html-keyboard-response","72","326513","0.0-8.0-0.23","5f32aab12a9f82000854c3ea","condA","","<div class=""vertical-center"" style='width:60%;'><p style='font-weight:bold;'>Does the middle word sound more like the first word (A) or the last word (B)?</p> <br> <div class=""container""> <div id=""a-box""> <p class=""title-text"">A</h3></p> </div> <div id=""x-box""> <p class=""title-text"">X<p> </div> <div id=""b-box""> <p class=""title-text"">B</p></div> <br> <div style='float: left;padding-left:30px;'><p>Press '1' for A</p></div><div style='float: right;padding-right:30px;'><p>Press '0' for B</p> </div> </div></div>","null","","","","","","","","","","","","","",""
"2712","","test","audio-keyboard-response","73","329232","0.0-8.0-1.23","5f32aab12a9f82000854c3ea","condA","","resources/audio/wordStim/S9_AI_30_axb_Step-10.wav","48","","","","","AI","resources/audio/wordStim/S9_AI_30_axb_Step-10.wav","S9","30","axb","10","CN","0","0","true"
"null","","fixation","html-keyboard-response","74","330237","0.0-8.0-0.24","5f32aab12a9f82000854c3ea","condA","","<div class=""vertical-center"" style='width:60%;'><p style='font-weight:bold;'>Does the middle word sound more like the first word (A) or the last word (B)?</p> <br> <div class=""container""> <div id=""a-box""> <p class=""title-text"">A</h3></p> </div> <div id=""x-box""> <p class=""title-text"">X<p> </div> <div id=""b-box""> <p class=""title-text"">B</p></div> <br> <div style='float: left;padding-left:30px;'><p>Press '1' for A</p></div><div style='float: right;padding-right:30px;'><p>Press '0' for B</p> </div> </div></div>","null","","","","","","","","","","","","","",""
"2931","","test","audio-keyboard-response","75","333168","0.0-8.0-1.24","5f32aab12a9f82000854c3ea","condA","","resources/audio/wordStim/S9_AI_24_axb_Step-3.wav","48","","","","","AI","resources/audio/wordStim/S9_AI_24_axb_Step-3.wav","S9","24","axb","3","CN","0","0","true"
"null","","fixation","html-keyboard-response","76","334175","0.0-8.0-0.25","5f32aab12a9f82000854c3ea","condA","","<div class=""vertical-center"" style='width:60%;'><p style='font-weight:bold;'>Does the middle word sound more like the first word (A) or the last word (B)?</p> <br> <div class=""container""> <div id=""a-box""> <p class=""title-text"">A</h3></p> </div> <div id=""x-box""> <p class=""title-text"">X<p> </div> <div id=""b-box""> <p class=""title-text"">B</p></div> <br> <div style='float: left;padding-left:30px;'><p>Press '1' for A</p></div><div style='float: right;padding-right:30px;'><p>Press '0' for B</p> </div> </div></div>","null","","","","","","","","","","","","","",""
"3240","","test","audio-keyboard-response","77","337422","0.0-8.0-1.25","5f32aab12a9f82000854c3ea","condA","","resources/audio/wordStim/S3_AI_28_axb_Step-5.wav","49","","","","","AI","resources/audio/wordStim/S3_AI_28_axb_Step-5.wav","S3","28","axb","5","MI","0","1","false"
"null","","fixation","html-keyboard-response","78","338429","0.0-8.0-0.26","5f32aab12a9f82000854c3ea","condA","","<div class=""vertical-center"" style='width:60%;'><p style='font-weight:bold;'>Does the middle word sound more like the first word (A) or the last word (B)?</p> <br> <div class=""container""> <div id=""a-box""> <p class=""title-text"">A</h3></p> </div> <div id=""x-box""> <p class=""title-text"">X<p> </div> <div id=""b-box""> <p class=""title-text"">B</p></div> <br> <div style='float: left;padding-left:30px;'><p>Press '1' for A</p></div><div style='float: right;padding-right:30px;'><p>Press '0' for B</p> </div> </div></div>","null","","","","","","","","","","","","","",""
"2811","","test","audio-keyboard-response","79","341252","0.0-8.0-1.26","5f32aab12a9f82000854c3ea","condA","","resources/audio/wordStim/S3_AI_22_axb_Step-5.wav","49","","","","","AI","resources/audio/wordStim/S3_AI_22_axb_Step-5.wav","S3","22","axb","5","MI","0","1","false"
"1624.5899999630637","","break","html-keyboard-response","80","343382","0.0-8.0-2.26-0.26","5f32aab12a9f82000854c3ea","condA","","<div class=""vertical-center""><p>Feel free to take a break!</p><i>When you're ready to continue, press SPACE to begin the next trial.</i></p></div>","32","","","","","","","","","","","","","",""
"null","","fixation","html-keyboard-response","81","343886","0.0-8.0-0.27","5f32aab12a9f82000854c3ea","condA","","<div class=""vertical-center"" style='width:60%;'><p style='font-weight:bold;'>Does the middle word sound more like the first word (A) or the last word (B)?</p> <br> <div class=""container""> <div id=""a-box""> <p class=""title-text"">A</h3></p> </div> <div id=""x-box""> <p class=""title-text"">X<p> </div> <div id=""b-box""> <p class=""title-text"">B</p></div> <br> <div style='float: left;padding-left:30px;'><p>Press '1' for A</p></div><div style='float: right;padding-right:30px;'><p>Press '0' for B</p> </div> </div></div>","null","","","","","","","","","","","","","",""
"3269","","test","audio-keyboard-response","82","347160","0.0-8.0-1.27","5f32aab12a9f82000854c3ea","condA","","resources/audio/wordStim/S3_AU_16_axb_Step-7.wav","49","","","","","AU","resources/audio/wordStim/S3_AU_16_axb_Step-7.wav","S3","16","axb","7","MI","0","1","false"
"null","","fixation","html-keyboard-response","83","348166","0.0-8.0-0.28","5f32aab12a9f82000854c3ea","condA","","<div class=""vertical-center"" style='width:60%;'><p style='font-weight:bold;'>Does the middle word sound more like the first word (A) or the last word (B)?</p> <br> <div class=""container""> <div id=""a-box""> <p class=""title-text"">A</h3></p> </div> <div id=""x-box""> <p class=""title-text"">X<p> </div> <div id=""b-box""> <p class=""title-text"">B</p></div> <br> <div style='float: left;padding-left:30px;'><p>Press '1' for A</p></div><div style='float: right;padding-right:30px;'><p>Press '0' for B</p> </div> </div></div>","null","","","","","","","","","","","","","",""
"2909","","test","audio-keyboard-response","84","351085","0.0-8.0-1.28","5f32aab12a9f82000854c3ea","condA","","resources/audio/wordStim/S3_AU_11_axb_Step-7.wav","49","","","","","AU","resources/audio/wordStim/S3_AU_11_axb_Step-7.wav","S3","11","axb","7","MI","0","1","false"
"null","","fixation","html-keyboard-response","85","352090","0.0-8.0-0.29","5f32aab12a9f82000854c3ea","condA","","<div class=""vertical-center"" style='width:60%;'><p style='font-weight:bold;'>Does the middle word sound more like the first word (A) or the last word (B)?</p> <br> <div class=""container""> <div id=""a-box""> <p class=""title-text"">A</h3></p> </div> <div id=""x-box""> <p class=""title-text"">X<p> </div> <div id=""b-box""> <p class=""title-text"">B</p></div> <br> <div style='float: left;padding-left:30px;'><p>Press '1' for A</p></div><div style='float: right;padding-right:30px;'><p>Press '0' for B</p> </div> </div></div>","null","","","","","","","","","","","","","",""
"2811","","test","audio-keyboard-response","86","354906","0.0-8.0-1.29","5f32aab12a9f82000854c3ea","condA","","resources/audio/wordStim/S3_AI_22_bxa_Step-2.wav","48","","","","","AI","resources/audio/wordStim/S3_AI_22_bxa_Step-2.wav","S3","22","bxa","2","MI","1","0","false"
"null","","fixation","html-keyboard-response","87","355913","0.0-8.0-0.30","5f32aab12a9f82000854c3ea","condA","","<div class=""vertical-center"" style='width:60%;'><p style='font-weight:bold;'>Does the middle word sound more like the first word (A) or the last word (B)?</p> <br> <div class=""container""> <div id=""a-box""> <p class=""title-text"">A</h3></p> </div> <div id=""x-box""> <p class=""title-text"">X<p> </div> <div id=""b-box""> <p class=""title-text"">B</p></div> <br> <div style='float: left;padding-left:30px;'><p>Press '1' for A</p></div><div style='float: right;padding-right:30px;'><p>Press '0' for B</p> </div> </div></div>","null","","","","","","","","","","","","","",""
"2672","","test","audio-keyboard-response","88","358587","0.0-8.0-1.30","5f32aab12a9f82000854c3ea","condA","","resources/audio/wordStim/S9_AI_29_axb_Step-9.wav","48","","","","","AI","resources/audio/wordStim/S9_AI_29_axb_Step-9.wav","S9","29","axb","9","CN","0","0","true"
"null","","fixation","html-keyboard-response","89","359593","0.0-8.0-0.31","5f32aab12a9f82000854c3ea","condA","","<div class=""vertical-center"" style='width:60%;'><p style='font-weight:bold;'>Does the middle word sound more like the first word (A) or the last word (B)?</p> <br> <div class=""container""> <div id=""a-box""> <p class=""title-text"">A</h3></p> </div> <div id=""x-box""> <p class=""title-text"">X<p> </div> <div id=""b-box""> <p class=""title-text"">B</p></div> <br> <div style='float: left;padding-left:30px;'><p>Press '1' for A</p></div><div style='float: right;padding-right:30px;'><p>Press '0' for B</p> </div> </div></div>","null","","","","","","","","","","","","","",""
"3312","","test","audio-keyboard-response","90","362908","0.0-8.0-1.31","5f32aab12a9f82000854c3ea","condA","","resources/audio/wordStim/S3_AU_16_bxa_Step-2.wav","49","","","","","AU","resources/audio/wordStim/S3_AU_16_bxa_Step-2.wav","S3","16","bxa","2","MI","1","1","true"
"null","","fixation","html-keyboard-response","91","363914","0.0-8.0-0.32","5f32aab12a9f82000854c3ea","condA","","<div class=""vertical-center"" style='width:60%;'><p style='font-weight:bold;'>Does the middle word sound more like the first word (A) or the last word (B)?</p> <br> <div class=""container""> <div id=""a-box""> <p class=""title-text"">A</h3></p> </div> <div id=""x-box""> <p class=""title-text"">X<p> </div> <div id=""b-box""> <p class=""title-text"">B</p></div> <br> <div style='float: left;padding-left:30px;'><p>Press '1' for A</p></div><div style='float: right;padding-right:30px;'><p>Press '0' for B</p> </div> </div></div>","null","","","","","","","","","","","","","",""
"2360","","test","audio-keyboard-response","92","366280","0.0-8.0-1.32","5f32aab12a9f82000854c3ea","condA","","resources/audio/wordStim/S3_AI_21_bxa_Step-4.wav","49","","","","","AI","resources/audio/wordStim/S3_AI_21_bxa_Step-4.wav","S3","21","bxa","4","MI","1","1","true"
"null","","fixation","html-keyboard-response","93","367285","0.0-8.0-0.33","5f32aab12a9f82000854c3ea","condA","","<div class=""vertical-center"" style='width:60%;'><p style='font-weight:bold;'>Does the middle word sound more like the first word (A) or the last word (B)?</p> <br> <div class=""container""> <div id=""a-box""> <p class=""title-text"">A</h3></p> </div> <div id=""x-box""> <p class=""title-text"">X<p> </div> <div id=""b-box""> <p class=""title-text"">B</p></div> <br> <div style='float: left;padding-left:30px;'><p>Press '1' for A</p></div><div style='float: right;padding-right:30px;'><p>Press '0' for B</p> </div> </div></div>","null","","","","","","","","","","","","","",""
"2891","","test","audio-keyboard-response","94","370175","0.0-8.0-1.33","5f32aab12a9f82000854c3ea","condA","","resources/audio/wordStim/S3_AI_29_axb_Step-7.wav","49","","","","","AI","resources/audio/wordStim/S3_AI_29_axb_Step-7.wav","S3","29","axb","7","MI","0","1","false"
"null","","fixation","html-keyboard-response","95","371184","0.0-8.0-0.34","5f32aab12a9f82000854c3ea","condA","","<div class=""vertical-center"" style='width:60%;'><p style='font-weight:bold;'>Does the middle word sound more like the first word (A) or the last word (B)?</p> <br> <div class=""container""> <div id=""a-box""> <p class=""title-text"">A</h3></p> </div> <div id=""x-box""> <p class=""title-text"">X<p> </div> <div id=""b-box""> <p class=""title-text"">B</p></div> <br> <div style='float: left;padding-left:30px;'><p>Press '1' for A</p></div><div style='float: right;padding-right:30px;'><p>Press '0' for B</p> </div> </div></div>","null","","","","","","","","","","","","","",""
"2400","","test","audio-keyboard-response","96","373585","0.0-8.0-1.34","5f32aab12a9f82000854c3ea","condA","","resources/audio/wordStim/S3_AI_25_bxa_Step-8.wav","49","","","","","AI","resources/audio/wordStim/S3_AI_25_bxa_Step-8.wav","S3","25","bxa","8","MI","1","1","true"
"null","","fixation","html-keyboard-response","97","374592","0.0-8.0-0.35","5f32aab12a9f82000854c3ea","condA","","<div class=""vertical-center"" style='width:60%;'><p style='font-weight:bold;'>Does the middle word sound more like the first word (A) or the last word (B)?</p> <br> <div class=""container""> <div id=""a-box""> <p class=""title-text"">A</h3></p> </div> <div id=""x-box""> <p class=""title-text"">X<p> </div> <div id=""b-box""> <p class=""title-text"">B</p></div> <br> <div style='float: left;padding-left:30px;'><p>Press '1' for A</p></div><div style='float: right;padding-right:30px;'><p>Press '0' for B</p> </div> </div></div>","null","","","","","","","","","","","","","",""
"2720","","test","audio-keyboard-response","98","377315","0.0-8.0-1.35","5f32aab12a9f82000854c3ea","condA","","resources/audio/wordStim/S3_AI_22_bxa_Step-6.wav","49","","","","","AI","resources/audio/wordStim/S3_AI_22_bxa_Step-6.wav","S3","22","bxa","6","MI","1","1","true"
"null","","fixation","html-keyboard-response","99","378321","0.0-8.0-0.36","5f32aab12a9f82000854c3ea","condA","","<div class=""vertical-center"" style='width:60%;'><p style='font-weight:bold;'>Does the middle word sound more like the first word (A) or the last word (B)?</p> <br> <div class=""container""> <div id=""a-box""> <p class=""title-text"">A</h3></p> </div> <div id=""x-box""> <p class=""title-text"">X<p> </div> <div id=""b-box""> <p class=""title-text"">B</p></div> <br> <div style='float: left;padding-left:30px;'><p>Press '1' for A</p></div><div style='float: right;padding-right:30px;'><p>Press '0' for B</p> </div> </div></div>","null","","","","","","","","","","","","","",""
"2731","","test","audio-keyboard-response","100","381060","0.0-8.0-1.36","5f32aab12a9f82000854c3ea","condA","","resources/audio/wordStim/S9_AI_24_axb_Step-9.wav","49","","","","","AI","resources/audio/wordStim/S9_AI_24_axb_Step-9.wav","S9","24","axb","9","CN","0","1","false"
"null","","fixation","html-keyboard-response","101","382066","0.0-8.0-0.37","5f32aab12a9f82000854c3ea","condA","","<div class=""vertical-center"" style='width:60%;'><p style='font-weight:bold;'>Does the middle word sound more like the first word (A) or the last word (B)?</p> <br> <div class=""container""> <div id=""a-box""> <p class=""title-text"">A</h3></p> </div> <div id=""x-box""> <p class=""title-text"">X<p> </div> <div id=""b-box""> <p class=""title-text"">B</p></div> <br> <div style='float: left;padding-left:30px;'><p>Press '1' for A</p></div><div style='float: right;padding-right:30px;'><p>Press '0' for B</p> </div> </div></div>","null","","","","","","","","","","","","","",""
"2405","","test","audio-keyboard-response","102","384474","0.0-8.0-1.37","5f32aab12a9f82000854c3ea","condA","","resources/audio/wordStim/S9_AU_20_bxa_Step-2.wav","49","","","","","AU","resources/audio/wordStim/S9_AU_20_bxa_Step-2.wav","S9","20","bxa","2","CN","1","1","true"
"null","","fixation","html-keyboard-response","103","385479","0.0-8.0-0.38","5f32aab12a9f82000854c3ea","condA","","<div class=""vertical-center"" style='width:60%;'><p style='font-weight:bold;'>Does the middle word sound more like the first word (A) or the last word (B)?</p> <br> <div class=""container""> <div id=""a-box""> <p class=""title-text"">A</h3></p> </div> <div id=""x-box""> <p class=""title-text"">X<p> </div> <div id=""b-box""> <p class=""title-text"">B</p></div> <br> <div style='float: left;padding-left:30px;'><p>Press '1' for A</p></div><div style='float: right;padding-right:30px;'><p>Press '0' for B</p> </div> </div></div>","null","","","","","","","","","","","","","",""
"2560","","test","audio-keyboard-response","104","388043","0.0-8.0-1.38","5f32aab12a9f82000854c3ea","condA","","resources/audio/wordStim/S3_AI_28_axb_Step-9.wav","49","","","","","AI","resources/audio/wordStim/S3_AI_28_axb_Step-9.wav","S3","28","axb","9","MI","0","1","false"
"null","","fixation","html-keyboard-response","105","389048","0.0-8.0-0.39","5f32aab12a9f82000854c3ea","condA","","<div class=""vertical-center"" style='width:60%;'><p style='font-weight:bold;'>Does the middle word sound more like the first word (A) or the last word (B)?</p> <br> <div class=""container""> <div id=""a-box""> <p class=""title-text"">A</h3></p> </div> <div id=""x-box""> <p class=""title-text"">X<p> </div> <div id=""b-box""> <p class=""title-text"">B</p></div> <br> <div style='float: left;padding-left:30px;'><p>Press '1' for A</p></div><div style='float: right;padding-right:30px;'><p>Press '0' for B</p> </div> </div></div>","null","","","","","","","","","","","","","",""
"2379","","test","audio-keyboard-response","106","391434","0.0-8.0-1.39","5f32aab12a9f82000854c3ea","condA","","resources/audio/wordStim/S3_AU_15_axb_Step-7.wav","49","","","","","AU","resources/audio/wordStim/S3_AU_15_axb_Step-7.wav","S3","15","axb","7","MI","0","1","false"
"null","","fixation","html-keyboard-response","107","392440","0.0-8.0-0.40","5f32aab12a9f82000854c3ea","condA","","<div class=""vertical-center"" style='width:60%;'><p style='font-weight:bold;'>Does the middle word sound more like the first word (A) or the last word (B)?</p> <br> <div class=""container""> <div id=""a-box""> <p class=""title-text"">A</h3></p> </div> <div id=""x-box""> <p class=""title-text"">X<p> </div> <div id=""b-box""> <p class=""title-text"">B</p></div> <br> <div style='float: left;padding-left:30px;'><p>Press '1' for A</p></div><div style='float: right;padding-right:30px;'><p>Press '0' for B</p> </div> </div></div>","null","","","","","","","","","","","","","",""
"2800","","test","audio-keyboard-response","108","395249","0.0-8.0-1.40","5f32aab12a9f82000854c3ea","condA","","resources/audio/wordStim/S9_AI_25_bxa_Step-8.wav","49","","","","","AI","resources/audio/wordStim/S9_AI_25_bxa_Step-8.wav","S9","25","bxa","8","CN","1","1","true"
"null","","fixation","html-keyboard-response","109","396256","0.0-8.0-0.41","5f32aab12a9f82000854c3ea","condA","","<div class=""vertical-center"" style='width:60%;'><p style='font-weight:bold;'>Does the middle word sound more like the first word (A) or the last word (B)?</p> <br> <div class=""container""> <div id=""a-box""> <p class=""title-text"">A</h3></p> </div> <div id=""x-box""> <p class=""title-text"">X<p> </div> <div id=""b-box""> <p class=""title-text"">B</p></div> <br> <div style='float: left;padding-left:30px;'><p>Press '1' for A</p></div><div style='float: right;padding-right:30px;'><p>Press '0' for B</p> </div> </div></div>","null","","","","","","","","","","","","","",""
"3680","","test","audio-keyboard-response","110","399951","0.0-8.0-1.41","5f32aab12a9f82000854c3ea","condA","","resources/audio/wordStim/S9_AU_19_axb_Step-10.wav","49","","","","","AU","resources/audio/wordStim/S9_AU_19_axb_Step-10.wav","S9","19","axb","10","CN","0","1","false"
"null","","fixation","html-keyboard-response","111","400957","0.0-8.0-0.42","5f32aab12a9f82000854c3ea","condA","","<div class=""vertical-center"" style='width:60%;'><p style='font-weight:bold;'>Does the middle word sound more like the first word (A) or the last word (B)?</p> <br> <div class=""container""> <div id=""a-box""> <p class=""title-text"">A</h3></p> </div> <div id=""x-box""> <p class=""title-text"">X<p> </div> <div id=""b-box""> <p class=""title-text"">B</p></div> <br> <div style='float: left;padding-left:30px;'><p>Press '1' for A</p></div><div style='float: right;padding-right:30px;'><p>Press '0' for B</p> </div> </div></div>","null","","","","","","","","","","","","","",""
"3421","","test","audio-keyboard-response","112","404382","0.0-8.0-1.42","5f32aab12a9f82000854c3ea","condA","","resources/audio/wordStim/S3_AI_22_bxa_Step-8.wav","49","","","","","AI","resources/audio/wordStim/S3_AI_22_bxa_Step-8.wav","S3","22","bxa","8","MI","1","1","true"
"null","","fixation","html-keyboard-response","113","405389","0.0-8.0-0.43","5f32aab12a9f82000854c3ea","condA","","<div class=""vertical-center"" style='width:60%;'><p style='font-weight:bold;'>Does the middle word sound more like the first word (A) or the last word (B)?</p> <br> <div class=""container""> <div id=""a-box""> <p class=""title-text"">A</h3></p> </div> <div id=""x-box""> <p class=""title-text"">X<p> </div> <div id=""b-box""> <p class=""title-text"">B</p></div> <br> <div style='float: left;padding-left:30px;'><p>Press '1' for A</p></div><div style='float: right;padding-right:30px;'><p>Press '0' for B</p> </div> </div></div>","null","","","","","","","","","","","","","",""
"2752","","test","audio-keyboard-response","114","408147","0.0-8.0-1.43","5f32aab12a9f82000854c3ea","condA","","resources/audio/wordStim/S9_AU_13_axb_Step-7.wav","49","","","","","AU","resources/audio/wordStim/S9_AU_13_axb_Step-7.wav","S9","13","axb","7","CN","0","1","false"
"null","","fixation","html-keyboard-response","115","409152","0.0-8.0-0.44","5f32aab12a9f82000854c3ea","condA","","<div class=""vertical-center"" style='width:60%;'><p style='font-weight:bold;'>Does the middle word sound more like the first word (A) or the last word (B)?</p> <br> <div class=""container""> <div id=""a-box""> <p class=""title-text"">A</h3></p> </div> <div id=""x-box""> <p class=""title-text"">X<p> </div> <div id=""b-box""> <p class=""title-text"">B</p></div> <br> <div style='float: left;padding-left:30px;'><p>Press '1' for A</p></div><div style='float: right;padding-right:30px;'><p>Press '0' for B</p> </div> </div></div>","null","","","","","","","","","","","","","",""
"2800","","test","audio-keyboard-response","116","411961","0.0-8.0-1.44","5f32aab12a9f82000854c3ea","condA","","resources/audio/wordStim/S9_AI_24_axb_Step-5.wav","49","","","","","AI","resources/audio/wordStim/S9_AI_24_axb_Step-5.wav","S9","24","axb","5","CN","0","1","false"
"null","","fixation","html-keyboard-response","117","412969","0.0-8.0-0.45","5f32aab12a9f82000854c3ea","condA","","<div class=""vertical-center"" style='width:60%;'><p style='font-weight:bold;'>Does the middle word sound more like the first word (A) or the last word (B)?</p> <br> <div class=""container""> <div id=""a-box""> <p class=""title-text"">A</h3></p> </div> <div id=""x-box""> <p class=""title-text"">X<p> </div> <div id=""b-box""> <p class=""title-text"">B</p></div> <br> <div style='float: left;padding-left:30px;'><p>Press '1' for A</p></div><div style='float: right;padding-right:30px;'><p>Press '0' for B</p> </div> </div></div>","null","","","","","","","","","","","","","",""
"2771","","test","audio-keyboard-response","118","415744","0.0-8.0-1.45","5f32aab12a9f82000854c3ea","condA","","resources/audio/wordStim/S9_AU_17_axb_Step-7.wav","48","","","","","AU","resources/audio/wordStim/S9_AU_17_axb_Step-7.wav","S9","17","axb","7","CN","0","0","true"
"null","","fixation","html-keyboard-response","119","416750","0.0-8.0-0.46","5f32aab12a9f82000854c3ea","condA","","<div class=""vertical-center"" style='width:60%;'><p style='font-weight:bold;'>Does the middle word sound more like the first word (A) or the last word (B)?</p> <br> <div class=""container""> <div id=""a-box""> <p class=""title-text"">A</h3></p> </div> <div id=""x-box""> <p class=""title-text"">X<p> </div> <div id=""b-box""> <p class=""title-text"">B</p></div> <br> <div style='float: left;padding-left:30px;'><p>Press '1' for A</p></div><div style='float: right;padding-right:30px;'><p>Press '0' for B</p> </div> </div></div>","null","","","","","","","","","","","","","",""
"4021","","test","audio-keyboard-response","120","420775","0.0-8.0-1.46","5f32aab12a9f82000854c3ea","condA","","resources/audio/wordStim/S3_AU_19_axb_Step-5.wav","49","","","","","AU","resources/audio/wordStim/S3_AU_19_axb_Step-5.wav","S3","19","axb","5","MI","0","1","false"
"null","","fixation","html-keyboard-response","121","421781","0.0-8.0-0.47","5f32aab12a9f82000854c3ea","condA","","<div class=""vertical-center"" style='width:60%;'><p style='font-weight:bold;'>Does the middle word sound more like the first word (A) or the last word (B)?</p> <br> <div class=""container""> <div id=""a-box""> <p class=""title-text"">A</h3></p> </div> <div id=""x-box""> <p class=""title-text"">X<p> </div> <div id=""b-box""> <p class=""title-text"">B</p></div> <br> <div style='float: left;padding-left:30px;'><p>Press '1' for A</p></div><div style='float: right;padding-right:30px;'><p>Press '0' for B</p> </div> </div></div>","null","","","","","","","","","","","","","",""
"2579","","test","audio-keyboard-response","122","424363","0.0-8.0-1.47","5f32aab12a9f82000854c3ea","condA","","resources/audio/wordStim/S3_AU_15_axb_Step-3.wav","49","","","","","AU","resources/audio/wordStim/S3_AU_15_axb_Step-3.wav","S3","15","axb","3","MI","0","1","false"
"null","","fixation","html-keyboard-response","123","425368","0.0-8.0-0.48","5f32aab12a9f82000854c3ea","condA","","<div class=""vertical-center"" style='width:60%;'><p style='font-weight:bold;'>Does the middle word sound more like the first word (A) or the last word (B)?</p> <br> <div class=""container""> <div id=""a-box""> <p class=""title-text"">A</h3></p> </div> <div id=""x-box""> <p class=""title-text"">X<p> </div> <div id=""b-box""> <p class=""title-text"">B</p></div> <br> <div style='float: left;padding-left:30px;'><p>Press '1' for A</p></div><div style='float: right;padding-right:30px;'><p>Press '0' for B</p> </div> </div></div>","null","","","","","","","","","","","","","",""
"2509","","test","audio-keyboard-response","124","427884","0.0-8.0-1.48","5f32aab12a9f82000854c3ea","condA","","resources/audio/wordStim/S9_AU_13_axb_Step-10.wav","48","","","","","AU","resources/audio/wordStim/S9_AU_13_axb_Step-10.wav","S9","13","axb","10","CN","0","0","true"
"null","","fixation","html-keyboard-response","125","428889","0.0-8.0-0.49","5f32aab12a9f82000854c3ea","condA","","<div class=""vertical-center"" style='width:60%;'><p style='font-weight:bold;'>Does the middle word sound more like the first word (A) or the last word (B)?</p> <br> <div class=""container""> <div id=""a-box""> <p class=""title-text"">A</h3></p> </div> <div id=""x-box""> <p class=""title-text"">X<p> </div> <div id=""b-box""> <p class=""title-text"">B</p></div> <br> <div style='float: left;padding-left:30px;'><p>Press '1' for A</p></div><div style='float: right;padding-right:30px;'><p>Press '0' for B</p> </div> </div></div>","null","","","","","","","","","","","","","",""
"2840","","test","audio-keyboard-response","126","431733","0.0-8.0-1.49","5f32aab12a9f82000854c3ea","condA","","resources/audio/wordStim/S9_AU_11_axb_Step-5.wav","49","","","","","AU","resources/audio/wordStim/S9_AU_11_axb_Step-5.wav","S9","11","axb","5","CN","0","1","false"
"null","","fixation","html-keyboard-response","127","432739","0.0-8.0-0.50","5f32aab12a9f82000854c3ea","condA","","<div class=""vertical-center"" style='width:60%;'><p style='font-weight:bold;'>Does the middle word sound more like the first word (A) or the last word (B)?</p> <br> <div class=""container""> <div id=""a-box""> <p class=""title-text"">A</h3></p> </div> <div id=""x-box""> <p class=""title-text"">X<p> </div> <div id=""b-box""> <p class=""title-text"">B</p></div> <br> <div style='float: left;padding-left:30px;'><p>Press '1' for A</p></div><div style='float: right;padding-right:30px;'><p>Press '0' for B</p> </div> </div></div>","null","","","","","","","","","","","","","",""
"2520","","test","audio-keyboard-response","128","435265","0.0-8.0-1.50","5f32aab12a9f82000854c3ea","condA","","resources/audio/wordStim/S3_AI_28_axb_Step-10.wav","48","","","","","AI","resources/audio/wordStim/S3_AI_28_axb_Step-10.wav","S3","28","axb","10","MI","0","0","true"
"null","","fixation","html-keyboard-response","129","436272","0.0-8.0-0.51","5f32aab12a9f82000854c3ea","condA","","<div class=""vertical-center"" style='width:60%;'><p style='font-weight:bold;'>Does the middle word sound more like the first word (A) or the last word (B)?</p> <br> <div class=""container""> <div id=""a-box""> <p class=""title-text"">A</h3></p> </div> <div id=""x-box""> <p class=""title-text"">X<p> </div> <div id=""b-box""> <p class=""title-text"">B</p></div> <br> <div style='float: left;padding-left:30px;'><p>Press '1' for A</p></div><div style='float: right;padding-right:30px;'><p>Press '0' for B</p> </div> </div></div>","null","","","","","","","","","","","","","",""
"3520","","test","audio-keyboard-response","130","439792","0.0-8.0-1.51","5f32aab12a9f82000854c3ea","condA","","resources/audio/wordStim/S9_AU_11_axb_Step-3.wav","49","","","","","AU","resources/audio/wordStim/S9_AU_11_axb_Step-3.wav","S9","11","axb","3","CN","0","1","false"
"null","","fixation","html-keyboard-response","131","440799","0.0-8.0-0.52","5f32aab12a9f82000854c3ea","condA","","<div class=""vertical-center"" style='width:60%;'><p style='font-weight:bold;'>Does the middle word sound more like the first word (A) or the last word (B)?</p> <br> <div class=""container""> <div id=""a-box""> <p class=""title-text"">A</h3></p> </div> <div id=""x-box""> <p class=""title-text"">X<p> </div> <div id=""b-box""> <p class=""title-text"">B</p></div> <br> <div style='float: left;padding-left:30px;'><p>Press '1' for A</p></div><div style='float: right;padding-right:30px;'><p>Press '0' for B</p> </div> </div></div>","null","","","","","","","","","","","","","",""
"2560","","test","audio-keyboard-response","132","443366","0.0-8.0-1.52","5f32aab12a9f82000854c3ea","condA","","resources/audio/wordStim/S3_AU_15_axb_Step-5.wav","49","","","","","AU","resources/audio/wordStim/S3_AU_15_axb_Step-5.wav","S3","15","axb","5","MI","0","1","false"
"null","","fixation","html-keyboard-response","133","444371","0.0-8.0-0.53","5f32aab12a9f82000854c3ea","condA","","<div class=""vertical-center"" style='width:60%;'><p style='font-weight:bold;'>Does the middle word sound more like the first word (A) or the last word (B)?</p> <br> <div class=""container""> <div id=""a-box""> <p class=""title-text"">A</h3></p> </div> <div id=""x-box""> <p class=""title-text"">X<p> </div> <div id=""b-box""> <p class=""title-text"">B</p></div> <br> <div style='float: left;padding-left:30px;'><p>Press '1' for A</p></div><div style='float: right;padding-right:30px;'><p>Press '0' for B</p> </div> </div></div>","null","","","","","","","","","","","","","",""
"2520","","test","audio-keyboard-response","134","446899","0.0-8.0-1.53","5f32aab12a9f82000854c3ea","condA","","resources/audio/wordStim/S9_AU_19_axb_Step-7.wav","49","","","","","AU","resources/audio/wordStim/S9_AU_19_axb_Step-7.wav","S9","19","axb","7","CN","0","1","false"
"2170.3400000114925","","break","html-keyboard-response","135","449573","0.0-8.0-2.53-0.53","5f32aab12a9f82000854c3ea","condA","","<div class=""vertical-center""><p>Feel free to take a break!</p><i>When you're ready to continue, press SPACE to begin the next trial.</i></p></div>","32","","","","","","","","","","","","","",""
"null","","fixation","html-keyboard-response","136","450078","0.0-8.0-0.54","5f32aab12a9f82000854c3ea","condA","","<div class=""vertical-center"" style='width:60%;'><p style='font-weight:bold;'>Does the middle word sound more like the first word (A) or the last word (B)?</p> <br> <div class=""container""> <div id=""a-box""> <p class=""title-text"">A</h3></p> </div> <div id=""x-box""> <p class=""title-text"">X<p> </div> <div id=""b-box""> <p class=""title-text"">B</p></div> <br> <div style='float: left;padding-left:30px;'><p>Press '1' for A</p></div><div style='float: right;padding-right:30px;'><p>Press '0' for B</p> </div> </div></div>","null","","","","","","","","","","","","","",""
"2581","","test","audio-keyboard-response","137","452662","0.0-8.0-1.54","5f32aab12a9f82000854c3ea","condA","","resources/audio/wordStim/S9_AI_23_bxa_Step-4.wav","49","","","","","AI","resources/audio/wordStim/S9_AI_23_bxa_Step-4.wav","S9","23","bxa","4","CN","1","1","true"
"null","","fixation","html-keyboard-response","138","453669","0.0-8.0-0.55","5f32aab12a9f82000854c3ea","condA","","<div class=""vertical-center"" style='width:60%;'><p style='font-weight:bold;'>Does the middle word sound more like the first word (A) or the last word (B)?</p> <br> <div class=""container""> <div id=""a-box""> <p class=""title-text"">A</h3></p> </div> <div id=""x-box""> <p class=""title-text"">X<p> </div> <div id=""b-box""> <p class=""title-text"">B</p></div> <br> <div style='float: left;padding-left:30px;'><p>Press '1' for A</p></div><div style='float: right;padding-right:30px;'><p>Press '0' for B</p> </div> </div></div>","null","","","","","","","","","","","","","",""
"2661","","test","audio-keyboard-response","139","456340","0.0-8.0-1.55","5f32aab12a9f82000854c3ea","condA","","resources/audio/wordStim/S3_AI_22_axb_Step-10.wav","49","","","","","AI","resources/audio/wordStim/S3_AI_22_axb_Step-10.wav","S3","22","axb","10","MI","0","1","false"
"null","","fixation","html-keyboard-response","140","457344","0.0-8.0-0.56","5f32aab12a9f82000854c3ea","condA","","<div class=""vertical-center"" style='width:60%;'><p style='font-weight:bold;'>Does the middle word sound more like the first word (A) or the last word (B)?</p> <br> <div class=""container""> <div id=""a-box""> <p class=""title-text"">A</h3></p> </div> <div id=""x-box""> <p class=""title-text"">X<p> </div> <div id=""b-box""> <p class=""title-text"">B</p></div> <br> <div style='float: left;padding-left:30px;'><p>Press '1' for A</p></div><div style='float: right;padding-right:30px;'><p>Press '0' for B</p> </div> </div></div>","null","","","","","","","","","","","","","",""
"2909","","test","audio-keyboard-response","141","460253","0.0-8.0-1.56","5f32aab12a9f82000854c3ea","condA","","resources/audio/wordStim/S9_AU_11_bxa_Step-2.wav","49","","","","","AU","resources/audio/wordStim/S9_AU_11_bxa_Step-2.wav","S9","11","bxa","2","CN","1","1","true"
"null","","fixation","html-keyboard-response","142","461259","0.0-8.0-0.57","5f32aab12a9f82000854c3ea","condA","","<div class=""vertical-center"" style='width:60%;'><p style='font-weight:bold;'>Does the middle word sound more like the first word (A) or the last word (B)?</p> <br> <div class=""container""> <div id=""a-box""> <p class=""title-text"">A</h3></p> </div> <div id=""x-box""> <p class=""title-text"">X<p> </div> <div id=""b-box""> <p class=""title-text"">B</p></div> <br> <div style='float: left;padding-left:30px;'><p>Press '1' for A</p></div><div style='float: right;padding-right:30px;'><p>Press '0' for B</p> </div> </div></div>","null","","","","","","","","","","","","","",""
"2699","","test","audio-keyboard-response","143","463972","0.0-8.0-1.57","5f32aab12a9f82000854c3ea","condA","","resources/audio/wordStim/S9_AI_30_bxa_Step-8.wav","49","","","","","AI","resources/audio/wordStim/S9_AI_30_bxa_Step-8.wav","S9","30","bxa","8","CN","1","1","true"
"null","","fixation","html-keyboard-response","144","464976","0.0-8.0-0.58","5f32aab12a9f82000854c3ea","condA","","<div class=""vertical-center"" style='width:60%;'><p style='font-weight:bold;'>Does the middle word sound more like the first word (A) or the last word (B)?</p> <br> <div class=""container""> <div id=""a-box""> <p class=""title-text"">A</h3></p> </div> <div id=""x-box""> <p class=""title-text"">X<p> </div> <div id=""b-box""> <p class=""title-text"">B</p></div> <br> <div style='float: left;padding-left:30px;'><p>Press '1' for A</p></div><div style='float: right;padding-right:30px;'><p>Press '0' for B</p> </div> </div></div>","null","","","","","","","","","","","","","",""
"2539","","test","audio-keyboard-response","145","467513","0.0-8.0-1.58","5f32aab12a9f82000854c3ea","condA","","resources/audio/wordStim/S3_AU_20_axb_Step-5.wav","49","","","","","AU","resources/audio/wordStim/S3_AU_20_axb_Step-5.wav","S3","20","axb","5","MI","0","1","false"
"null","","fixation","html-keyboard-response","146","468520","0.0-8.0-0.59","5f32aab12a9f82000854c3ea","condA","","<div class=""vertical-center"" style='width:60%;'><p style='font-weight:bold;'>Does the middle word sound more like the first word (A) or the last word (B)?</p> <br> <div class=""container""> <div id=""a-box""> <p class=""title-text"">A</h3></p> </div> <div id=""x-box""> <p class=""title-text"">X<p> </div> <div id=""b-box""> <p class=""title-text"">B</p></div> <br> <div style='float: left;padding-left:30px;'><p>Press '1' for A</p></div><div style='float: right;padding-right:30px;'><p>Press '0' for B</p> </div> </div></div>","null","","","","","","","","","","","","","",""
"2949","","test","audio-keyboard-response","147","471473","0.0-8.0-1.59","5f32aab12a9f82000854c3ea","condA","","resources/audio/wordStim/S3_AU_18_axb_Step-10.wav","48","","","","","AU","resources/audio/wordStim/S3_AU_18_axb_Step-10.wav","S3","18","axb","10","MI","0","0","true"
"null","","fixation","html-keyboard-response","148","472481","0.0-8.0-0.60","5f32aab12a9f82000854c3ea","condA","","<div class=""vertical-center"" style='width:60%;'><p style='font-weight:bold;'>Does the middle word sound more like the first word (A) or the last word (B)?</p> <br> <div class=""container""> <div id=""a-box""> <p class=""title-text"">A</h3></p> </div> <div id=""x-box""> <p class=""title-text"">X<p> </div> <div id=""b-box""> <p class=""title-text"">B</p></div> <br> <div style='float: left;padding-left:30px;'><p>Press '1' for A</p></div><div style='float: right;padding-right:30px;'><p>Press '0' for B</p> </div> </div></div>","null","","","","","","","","","","","","","",""
"2491","","test","audio-keyboard-response","149","474974","0.0-8.0-1.60","5f32aab12a9f82000854c3ea","condA","","resources/audio/wordStim/S3_AU_19_axb_Step-7.wav","49","","","","","AU","resources/audio/wordStim/S3_AU_19_axb_Step-7.wav","S3","19","axb","7","MI","0","1","false"
"null","","fixation","html-keyboard-response","150","475983","0.0-8.0-0.61","5f32aab12a9f82000854c3ea","condA","","<div class=""vertical-center"" style='width:60%;'><p style='font-weight:bold;'>Does the middle word sound more like the first word (A) or the last word (B)?</p> <br> <div class=""container""> <div id=""a-box""> <p class=""title-text"">A</h3></p> </div> <div id=""x-box""> <p class=""title-text"">X<p> </div> <div id=""b-box""> <p class=""title-text"">B</p></div> <br> <div style='float: left;padding-left:30px;'><p>Press '1' for A</p></div><div style='float: right;padding-right:30px;'><p>Press '0' for B</p> </div> </div></div>","null","","","","","","","","","","","","","",""
"3669","","test","audio-keyboard-response","151","479652","0.0-8.0-1.61","5f32aab12a9f82000854c3ea","condA","","resources/audio/wordStim/S3_AU_16_axb_Step-10.wav","49","","","","","AU","resources/audio/wordStim/S3_AU_16_axb_Step-10.wav","S3","16","axb","10","MI","0","1","false"
"null","","fixation","html-keyboard-response","152","480659","0.0-8.0-0.62","5f32aab12a9f82000854c3ea","condA","","<div class=""vertical-center"" style='width:60%;'><p style='font-weight:bold;'>Does the middle word sound more like the first word (A) or the last word (B)?</p> <br> <div class=""container""> <div id=""a-box""> <p class=""title-text"">A</h3></p> </div> <div id=""x-box""> <p class=""title-text"">X<p> </div> <div id=""b-box""> <p class=""title-text"">B</p></div> <br> <div style='float: left;padding-left:30px;'><p>Press '1' for A</p></div><div style='float: right;padding-right:30px;'><p>Press '0' for B</p> </div> </div></div>","null","","","","","","","","","","","","","",""
"2728","","test","audio-keyboard-response","153","483399","0.0-8.0-1.62","5f32aab12a9f82000854c3ea","condA","","resources/audio/wordStim/S9_AI_29_axb_Step-10.wav","48","","","","","AI","resources/audio/wordStim/S9_AI_29_axb_Step-10.wav","S9","29","axb","10","CN","0","0","true"
"null","","fixation","html-keyboard-response","154","484406","0.0-8.0-0.63","5f32aab12a9f82000854c3ea","condA","","<div class=""vertical-center"" style='width:60%;'><p style='font-weight:bold;'>Does the middle word sound more like the first word (A) or the last word (B)?</p> <br> <div class=""container""> <div id=""a-box""> <p class=""title-text"">A</h3></p> </div> <div id=""x-box""> <p class=""title-text"">X<p> </div> <div id=""b-box""> <p class=""title-text"">B</p></div> <br> <div style='float: left;padding-left:30px;'><p>Press '1' for A</p></div><div style='float: right;padding-right:30px;'><p>Press '0' for B</p> </div> </div></div>","null","","","","","","","","","","","","","",""
"2611","","test","audio-keyboard-response","155","487014","0.0-8.0-1.63","5f32aab12a9f82000854c3ea","condA","","resources/audio/wordStim/S9_AU_16_bxa_Step-4.wav","49","","","","","AU","resources/audio/wordStim/S9_AU_16_bxa_Step-4.wav","S9","16","bxa","4","CN","1","1","true"
"null","","fixation","html-keyboard-response","156","488020","0.0-8.0-0.64","5f32aab12a9f82000854c3ea","condA","","<div class=""vertical-center"" style='width:60%;'><p style='font-weight:bold;'>Does the middle word sound more like the first word (A) or the last word (B)?</p> <br> <div class=""container""> <div id=""a-box""> <p class=""title-text"">A</h3></p> </div> <div id=""x-box""> <p class=""title-text"">X<p> </div> <div id=""b-box""> <p class=""title-text"">B</p></div> <br> <div style='float: left;padding-left:30px;'><p>Press '1' for A</p></div><div style='float: right;padding-right:30px;'><p>Press '0' for B</p> </div> </div></div>","null","","","","","","","","","","","","","",""
"3080","","test","audio-keyboard-response","157","491110","0.0-8.0-1.64","5f32aab12a9f82000854c3ea","condA","","resources/audio/wordStim/S9_AU_13_bxa_Step-6.wav","48","","","","","AU","resources/audio/wordStim/S9_AU_13_bxa_Step-6.wav","S9","13","bxa","6","CN","1","0","false"
"null","","fixation","html-keyboard-response","158","492116","0.0-8.0-0.65","5f32aab12a9f82000854c3ea","condA","","<div class=""vertical-center"" style='width:60%;'><p style='font-weight:bold;'>Does the middle word sound more like the first word (A) or the last word (B)?</p> <br> <div class=""container""> <div id=""a-box""> <p class=""title-text"">A</h3></p> </div> <div id=""x-box""> <p class=""title-text"">X<p> </div> <div id=""b-box""> <p class=""title-text"">B</p></div> <br> <div style='float: left;padding-left:30px;'><p>Press '1' for A</p></div><div style='float: right;padding-right:30px;'><p>Press '0' for B</p> </div> </div></div>","null","","","","","","","","","","","","","",""
"2861","","test","audio-keyboard-response","159","494984","0.0-8.0-1.65","5f32aab12a9f82000854c3ea","condA","","resources/audio/wordStim/S3_AI_30_bxa_Step-4.wav","49","","","","","AI","resources/audio/wordStim/S3_AI_30_bxa_Step-4.wav","S3","30","bxa","4","MI","1","1","true"
"null","","fixation","html-keyboard-response","160","495991","0.0-8.0-0.66","5f32aab12a9f82000854c3ea","condA","","<div class=""vertical-center"" style='width:60%;'><p style='font-weight:bold;'>Does the middle word sound more like the first word (A) or the last word (B)?</p> <br> <div class=""container""> <div id=""a-box""> <p class=""title-text"">A</h3></p> </div> <div id=""x-box""> <p class=""title-text"">X<p> </div> <div id=""b-box""> <p class=""title-text"">B</p></div> <br> <div style='float: left;padding-left:30px;'><p>Press '1' for A</p></div><div style='float: right;padding-right:30px;'><p>Press '0' for B</p> </div> </div></div>","null","","","","","","","","","","","","","",""
"3512","","test","audio-keyboard-response","161","499504","0.0-8.0-1.66","5f32aab12a9f82000854c3ea","condA","","resources/audio/wordStim/S3_AU_17_bxa_Step-8.wav","49","","","","","AU","resources/audio/wordStim/S3_AU_17_bxa_Step-8.wav","S3","17","bxa","8","MI","1","1","true"
"null","","fixation","html-keyboard-response","162","500510","0.0-8.0-0.67","5f32aab12a9f82000854c3ea","condA","","<div class=""vertical-center"" style='width:60%;'><p style='font-weight:bold;'>Does the middle word sound more like the first word (A) or the last word (B)?</p> <br> <div class=""container""> <div id=""a-box""> <p class=""title-text"">A</h3></p> </div> <div id=""x-box""> <p class=""title-text"">X<p> </div> <div id=""b-box""> <p class=""title-text"">B</p></div> <br> <div style='float: left;padding-left:30px;'><p>Press '1' for A</p></div><div style='float: right;padding-right:30px;'><p>Press '0' for B</p> </div> </div></div>","null","","","","","","","","","","","","","",""
"2701","","test","audio-keyboard-response","163","503216","0.0-8.0-1.67","5f32aab12a9f82000854c3ea","condA","","resources/audio/wordStim/S9_AU_18_bxa_Step-8.wav","49","","","","","AU","resources/audio/wordStim/S9_AU_18_bxa_Step-8.wav","S9","18","bxa","8","CN","1","1","true"
"null","","fixation","html-keyboard-response","164","504221","0.0-8.0-0.68","5f32aab12a9f82000854c3ea","condA","","<div class=""vertical-center"" style='width:60%;'><p style='font-weight:bold;'>Does the middle word sound more like the first word (A) or the last word (B)?</p> <br> <div class=""container""> <div id=""a-box""> <p class=""title-text"">A</h3></p> </div> <div id=""x-box""> <p class=""title-text"">X<p> </div> <div id=""b-box""> <p class=""title-text"">B</p></div> <br> <div style='float: left;padding-left:30px;'><p>Press '1' for A</p></div><div style='float: right;padding-right:30px;'><p>Press '0' for B</p> </div> </div></div>","null","","","","","","","","","","","","","",""
"3259","","test","audio-keyboard-response","165","507483","0.0-8.0-1.68","5f32aab12a9f82000854c3ea","condA","","resources/audio/wordStim/S3_AI_29_axb_Step-5.wav","49","","","","","AI","resources/audio/wordStim/S3_AI_29_axb_Step-5.wav","S3","29","axb","5","MI","0","1","false"
"null","","fixation","html-keyboard-response","166","508490","0.0-8.0-0.69","5f32aab12a9f82000854c3ea","condA","","<div class=""vertical-center"" style='width:60%;'><p style='font-weight:bold;'>Does the middle word sound more like the first word (A) or the last word (B)?</p> <br> <div class=""container""> <div id=""a-box""> <p class=""title-text"">A</h3></p> </div> <div id=""x-box""> <p class=""title-text"">X<p> </div> <div id=""b-box""> <p class=""title-text"">B</p></div> <br> <div style='float: left;padding-left:30px;'><p>Press '1' for A</p></div><div style='float: right;padding-right:30px;'><p>Press '0' for B</p> </div> </div></div>","null","","","","","","","","","","","","","",""
"2720","","test","audio-keyboard-response","167","511221","0.0-8.0-1.69","5f32aab12a9f82000854c3ea","condA","","resources/audio/wordStim/S9_AU_19_bxa_Step-6.wav","49","","","","","AU","resources/audio/wordStim/S9_AU_19_bxa_Step-6.wav","S9","19","bxa","6","CN","1","1","true"
"null","","fixation","html-keyboard-response","168","512227","0.0-8.0-0.70","5f32aab12a9f82000854c3ea","condA","","<div class=""vertical-center"" style='width:60%;'><p style='font-weight:bold;'>Does the middle word sound more like the first word (A) or the last word (B)?</p> <br> <div class=""container""> <div id=""a-box""> <p class=""title-text"">A</h3></p> </div> <div id=""x-box""> <p class=""title-text"">X<p> </div> <div id=""b-box""> <p class=""title-text"">B</p></div> <br> <div style='float: left;padding-left:30px;'><p>Press '1' for A</p></div><div style='float: right;padding-right:30px;'><p>Press '0' for B</p> </div> </div></div>","null","","","","","","","","","","","","","",""
"2371","","test","audio-keyboard-response","169","514608","0.0-8.0-1.70","5f32aab12a9f82000854c3ea","condA","","resources/audio/wordStim/S9_AU_20_bxa_Step-6.wav","49","","","","","AU","resources/audio/wordStim/S9_AU_20_bxa_Step-6.wav","S9","20","bxa","6","CN","1","1","true"
"null","","fixation","html-keyboard-response","170","515613","0.0-8.0-0.71","5f32aab12a9f82000854c3ea","condA","","<div class=""vertical-center"" style='width:60%;'><p style='font-weight:bold;'>Does the middle word sound more like the first word (A) or the last word (B)?</p> <br> <div class=""container""> <div id=""a-box""> <p class=""title-text"">A</h3></p> </div> <div id=""x-box""> <p class=""title-text"">X<p> </div> <div id=""b-box""> <p class=""title-text"">B</p></div> <br> <div style='float: left;padding-left:30px;'><p>Press '1' for A</p></div><div style='float: right;padding-right:30px;'><p>Press '0' for B</p> </div> </div></div>","null","","","","","","","","","","","","","",""
"2851","","test","audio-keyboard-response","171","518470","0.0-8.0-1.71","5f32aab12a9f82000854c3ea","condA","","resources/audio/wordStim/S9_AI_22_axb_Step-7.wav","49","","","","","AI","resources/audio/wordStim/S9_AI_22_axb_Step-7.wav","S9","22","axb","7","CN","0","1","false"
"null","","fixation","html-keyboard-response","172","519476","0.0-8.0-0.72","5f32aab12a9f82000854c3ea","condA","","<div class=""vertical-center"" style='width:60%;'><p style='font-weight:bold;'>Does the middle word sound more like the first word (A) or the last word (B)?</p> <br> <div class=""container""> <div id=""a-box""> <p class=""title-text"">A</h3></p> </div> <div id=""x-box""> <p class=""title-text"">X<p> </div> <div id=""b-box""> <p class=""title-text"">B</p></div> <br> <div style='float: left;padding-left:30px;'><p>Press '1' for A</p></div><div style='float: right;padding-right:30px;'><p>Press '0' for B</p> </div> </div></div>","null","","","","","","","","","","","","","",""
"2392","","test","audio-keyboard-response","173","521864","0.0-8.0-1.72","5f32aab12a9f82000854c3ea","condA","","resources/audio/wordStim/S3_AU_20_axb_Step-10.wav","49","","","","","AU","resources/audio/wordStim/S3_AU_20_axb_Step-10.wav","S3","20","axb","10","MI","0","1","false"
"null","","fixation","html-keyboard-response","174","522872","0.0-8.0-0.73","5f32aab12a9f82000854c3ea","condA","","<div class=""vertical-center"" style='width:60%;'><p style='font-weight:bold;'>Does the middle word sound more like the first word (A) or the last word (B)?</p> <br> <div class=""container""> <div id=""a-box""> <p class=""title-text"">A</h3></p> </div> <div id=""x-box""> <p class=""title-text"">X<p> </div> <div id=""b-box""> <p class=""title-text"">B</p></div> <br> <div style='float: left;padding-left:30px;'><p>Press '1' for A</p></div><div style='float: right;padding-right:30px;'><p>Press '0' for B</p> </div> </div></div>","null","","","","","","","","","","","","","",""
"2421","","test","audio-keyboard-response","175","525299","0.0-8.0-1.73","5f32aab12a9f82000854c3ea","condA","","resources/audio/wordStim/S3_AU_19_bxa_Step-8.wav","49","","","","","AU","resources/audio/wordStim/S3_AU_19_bxa_Step-8.wav","S3","19","bxa","8","MI","1","1","true"
"null","","fixation","html-keyboard-response","176","526305","0.0-8.0-0.74","5f32aab12a9f82000854c3ea","condA","","<div class=""vertical-center"" style='width:60%;'><p style='font-weight:bold;'>Does the middle word sound more like the first word (A) or the last word (B)?</p> <br> <div class=""container""> <div id=""a-box""> <p class=""title-text"">A</h3></p> </div> <div id=""x-box""> <p class=""title-text"">X<p> </div> <div id=""b-box""> <p class=""title-text"">B</p></div> <br> <div style='float: left;padding-left:30px;'><p>Press '1' for A</p></div><div style='float: right;padding-right:30px;'><p>Press '0' for B</p> </div> </div></div>","null","","","","","","","","","","","","","",""
"2859","","test","audio-keyboard-response","177","529164","0.0-8.0-1.74","5f32aab12a9f82000854c3ea","condA","","resources/audio/wordStim/S9_AI_24_bxa_Step-8.wav","49","","","","","AI","resources/audio/wordStim/S9_AI_24_bxa_Step-8.wav","S9","24","bxa","8","CN","1","1","true"
"null","","fixation","html-keyboard-response","178","530173","0.0-8.0-0.75","5f32aab12a9f82000854c3ea","condA","","<div class=""vertical-center"" style='width:60%;'><p style='font-weight:bold;'>Does the middle word sound more like the first word (A) or the last word (B)?</p> <br> <div class=""container""> <div id=""a-box""> <p class=""title-text"">A</h3></p> </div> <div id=""x-box""> <p class=""title-text"">X<p> </div> <div id=""b-box""> <p class=""title-text"">B</p></div> <br> <div style='float: left;padding-left:30px;'><p>Press '1' for A</p></div><div style='float: right;padding-right:30px;'><p>Press '0' for B</p> </div> </div></div>","null","","","","","","","","","","","","","",""
"2229","","test","audio-keyboard-response","179","532403","0.0-8.0-1.75","5f32aab12a9f82000854c3ea","condA","","resources/audio/wordStim/S3_AI_21_axb_Step-3.wav","49","","","","","AI","resources/audio/wordStim/S3_AI_21_axb_Step-3.wav","S3","21","axb","3","MI","0","1","false"
"null","","fixation","html-keyboard-response","180","533411","0.0-8.0-0.76","5f32aab12a9f82000854c3ea","condA","","<div class=""vertical-center"" style='width:60%;'><p style='font-weight:bold;'>Does the middle word sound more like the first word (A) or the last word (B)?</p> <br> <div class=""container""> <div id=""a-box""> <p class=""title-text"">A</h3></p> </div> <div id=""x-box""> <p class=""title-text"">X<p> </div> <div id=""b-box""> <p class=""title-text"">B</p></div> <br> <div style='float: left;padding-left:30px;'><p>Press '1' for A</p></div><div style='float: right;padding-right:30px;'><p>Press '0' for B</p> </div> </div></div>","null","","","","","","","","","","","","","",""
"2491","","test","audio-keyboard-response","181","535903","0.0-8.0-1.76","5f32aab12a9f82000854c3ea","condA","","resources/audio/wordStim/S9_AI_25_axb_Step-3.wav","49","","","","","AI","resources/audio/wordStim/S9_AI_25_axb_Step-3.wav","S9","25","axb","3","CN","0","1","false"
"null","","fixation","html-keyboard-response","182","536909","0.0-8.0-0.77","5f32aab12a9f82000854c3ea","condA","","<div class=""vertical-center"" style='width:60%;'><p style='font-weight:bold;'>Does the middle word sound more like the first word (A) or the last word (B)?</p> <br> <div class=""container""> <div id=""a-box""> <p class=""title-text"">A</h3></p> </div> <div id=""x-box""> <p class=""title-text"">X<p> </div> <div id=""b-box""> <p class=""title-text"">B</p></div> <br> <div style='float: left;padding-left:30px;'><p>Press '1' for A</p></div><div style='float: right;padding-right:30px;'><p>Press '0' for B</p> </div> </div></div>","null","","","","","","","","","","","","","",""
"2651","","test","audio-keyboard-response","183","539563","0.0-8.0-1.77","5f32aab12a9f82000854c3ea","condA","","resources/audio/wordStim/S9_AU_14_bxa_Step-8.wav","49","","","","","AU","resources/audio/wordStim/S9_AU_14_bxa_Step-8.wav","S9","14","bxa","8","CN","1","1","true"
"null","","fixation","html-keyboard-response","184","540568","0.0-8.0-0.78","5f32aab12a9f82000854c3ea","condA","","<div class=""vertical-center"" style='width:60%;'><p style='font-weight:bold;'>Does the middle word sound more like the first word (A) or the last word (B)?</p> <br> <div class=""container""> <div id=""a-box""> <p class=""title-text"">A</h3></p> </div> <div id=""x-box""> <p class=""title-text"">X<p> </div> <div id=""b-box""> <p class=""title-text"">B</p></div> <br> <div style='float: left;padding-left:30px;'><p>Press '1' for A</p></div><div style='float: right;padding-right:30px;'><p>Press '0' for B</p> </div> </div></div>","null","","","","","","","","","","","","","",""
"2971","","test","audio-keyboard-response","185","543543","0.0-8.0-1.78","5f32aab12a9f82000854c3ea","condA","","resources/audio/wordStim/S3_AU_17_bxa_Step-4.wav","49","","","","","AU","resources/audio/wordStim/S3_AU_17_bxa_Step-4.wav","S3","17","bxa","4","MI","1","1","true"
"null","","fixation","html-keyboard-response","186","544549","0.0-8.0-0.79","5f32aab12a9f82000854c3ea","condA","","<div class=""vertical-center"" style='width:60%;'><p style='font-weight:bold;'>Does the middle word sound more like the first word (A) or the last word (B)?</p> <br> <div class=""container""> <div id=""a-box""> <p class=""title-text"">A</h3></p> </div> <div id=""x-box""> <p class=""title-text"">X<p> </div> <div id=""b-box""> <p class=""title-text"">B</p></div> <br> <div style='float: left;padding-left:30px;'><p>Press '1' for A</p></div><div style='float: right;padding-right:30px;'><p>Press '0' for B</p> </div> </div></div>","null","","","","","","","","","","","","","",""
"2952","","test","audio-keyboard-response","187","547502","0.0-8.0-1.79","5f32aab12a9f82000854c3ea","condA","","resources/audio/wordStim/S9_AU_18_axb_Step-5.wav","49","","","","","AU","resources/audio/wordStim/S9_AU_18_axb_Step-5.wav","S9","18","axb","5","CN","0","1","false"
"null","","fixation","html-keyboard-response","188","548509","0.0-8.0-0.80","5f32aab12a9f82000854c3ea","condA","","<div class=""vertical-center"" style='width:60%;'><p style='font-weight:bold;'>Does the middle word sound more like the first word (A) or the last word (B)?</p> <br> <div class=""container""> <div id=""a-box""> <p class=""title-text"">A</h3></p> </div> <div id=""x-box""> <p class=""title-text"">X<p> </div> <div id=""b-box""> <p class=""title-text"">B</p></div> <br> <div style='float: left;padding-left:30px;'><p>Press '1' for A</p></div><div style='float: right;padding-right:30px;'><p>Press '0' for B</p> </div> </div></div>","null","","","","","","","","","","","","","",""
"2381","","test","audio-keyboard-response","189","550893","0.0-8.0-1.80","5f32aab12a9f82000854c3ea","condA","","resources/audio/wordStim/S9_AU_16_axb_Step-10.wav","48","","","","","AU","resources/audio/wordStim/S9_AU_16_axb_Step-10.wav","S9","16","axb","10","CN","0","0","true"
"905.3549999953248","","break","html-keyboard-response","190","552302","0.0-8.0-2.80-0.80","5f32aab12a9f82000854c3ea","condA","","<div class=""vertical-center""><p>Feel free to take a break!</p><i>When you're ready to continue, press SPACE to begin the next trial.</i></p></div>","32","","","","","","","","","","","","","",""
"null","","fixation","html-keyboard-response","191","552806","0.0-8.0-0.81","5f32aab12a9f82000854c3ea","condA","","<div class=""vertical-center"" style='width:60%;'><p style='font-weight:bold;'>Does the middle word sound more like the first word (A) or the last word (B)?</p> <br> <div class=""container""> <div id=""a-box""> <p class=""title-text"">A</h3></p> </div> <div id=""x-box""> <p class=""title-text"">X<p> </div> <div id=""b-box""> <p class=""title-text"">B</p></div> <br> <div style='float: left;padding-left:30px;'><p>Press '1' for A</p></div><div style='float: right;padding-right:30px;'><p>Press '0' for B</p> </div> </div></div>","null","","","","","","","","","","","","","",""
"3029","","test","audio-keyboard-response","192","555843","0.0-8.0-1.81","5f32aab12a9f82000854c3ea","condA","","resources/audio/wordStim/S3_AU_18_bxa_Step-2.wav","49","","","","","AU","resources/audio/wordStim/S3_AU_18_bxa_Step-2.wav","S3","18","bxa","2","MI","1","1","true"
"null","","fixation","html-keyboard-response","193","556851","0.0-8.0-0.82","5f32aab12a9f82000854c3ea","condA","","<div class=""vertical-center"" style='width:60%;'><p style='font-weight:bold;'>Does the middle word sound more like the first word (A) or the last word (B)?</p> <br> <div class=""container""> <div id=""a-box""> <p class=""title-text"">A</h3></p> </div> <div id=""x-box""> <p class=""title-text"">X<p> </div> <div id=""b-box""> <p class=""title-text"">B</p></div> <br> <div style='float: left;padding-left:30px;'><p>Press '1' for A</p></div><div style='float: right;padding-right:30px;'><p>Press '0' for B</p> </div> </div></div>","null","","","","","","","","","","","","","",""
"2869","","test","audio-keyboard-response","194","559726","0.0-8.0-1.82","5f32aab12a9f82000854c3ea","condA","","resources/audio/wordStim/S3_AI_29_bxa_Step-6.wav","49","","","","","AI","resources/audio/wordStim/S3_AI_29_bxa_Step-6.wav","S3","29","bxa","6","MI","1","1","true"
"null","","fixation","html-keyboard-response","195","560733","0.0-8.0-0.83","5f32aab12a9f82000854c3ea","condA","","<div class=""vertical-center"" style='width:60%;'><p style='font-weight:bold;'>Does the middle word sound more like the first word (A) or the last word (B)?</p> <br> <div class=""container""> <div id=""a-box""> <p class=""title-text"">A</h3></p> </div> <div id=""x-box""> <p class=""title-text"">X<p> </div> <div id=""b-box""> <p class=""title-text"">B</p></div> <br> <div style='float: left;padding-left:30px;'><p>Press '1' for A</p></div><div style='float: right;padding-right:30px;'><p>Press '0' for B</p> </div> </div></div>","null","","","","","","","","","","","","","",""
"2339","","test","audio-keyboard-response","196","563074","0.0-8.0-1.83","5f32aab12a9f82000854c3ea","condA","","resources/audio/wordStim/S9_AU_16_bxa_Step-2.wav","48","","","","","AU","resources/audio/wordStim/S9_AU_16_bxa_Step-2.wav","S9","16","bxa","2","CN","1","0","false"
"null","","fixation","html-keyboard-response","197","564079","0.0-8.0-0.84","5f32aab12a9f82000854c3ea","condA","","<div class=""vertical-center"" style='width:60%;'><p style='font-weight:bold;'>Does the middle word sound more like the first word (A) or the last word (B)?</p> <br> <div class=""container""> <div id=""a-box""> <p class=""title-text"">A</h3></p> </div> <div id=""x-box""> <p class=""title-text"">X<p> </div> <div id=""b-box""> <p class=""title-text"">B</p></div> <br> <div style='float: left;padding-left:30px;'><p>Press '1' for A</p></div><div style='float: right;padding-right:30px;'><p>Press '0' for B</p> </div> </div></div>","null","","","","","","","","","","","","","",""
"2229","","test","audio-keyboard-response","198","566313","0.0-8.0-1.84","5f32aab12a9f82000854c3ea","condA","","resources/audio/wordStim/S3_AI_21_axb_Step-10.wav","48","","","","","AI","resources/audio/wordStim/S3_AI_21_axb_Step-10.wav","S3","21","axb","10","MI","0","0","true"
"null","","fixation","html-keyboard-response","199","567317","0.0-8.0-0.85","5f32aab12a9f82000854c3ea","condA","","<div class=""vertical-center"" style='width:60%;'><p style='font-weight:bold;'>Does the middle word sound more like the first word (A) or the last word (B)?</p> <br> <div class=""container""> <div id=""a-box""> <p class=""title-text"">A</h3></p> </div> <div id=""x-box""> <p class=""title-text"">X<p> </div> <div id=""b-box""> <p class=""title-text"">B</p></div> <br> <div style='float: left;padding-left:30px;'><p>Press '1' for A</p></div><div style='float: right;padding-right:30px;'><p>Press '0' for B</p> </div> </div></div>","null","","","","","","","","","","","","","",""
"3011","","test","audio-keyboard-response","200","570325","0.0-8.0-1.85","5f32aab12a9f82000854c3ea","condA","","resources/audio/wordStim/S3_AU_16_bxa_Step-4.wav","49","","","","","AU","resources/audio/wordStim/S3_AU_16_bxa_Step-4.wav","S3","16","bxa","4","MI","1","1","true"
"null","","fixation","html-keyboard-response","201","571331","0.0-8.0-0.86","5f32aab12a9f82000854c3ea","condA","","<div class=""vertical-center"" style='width:60%;'><p style='font-weight:bold;'>Does the middle word sound more like the first word (A) or the last word (B)?</p> <br> <div class=""container""> <div id=""a-box""> <p class=""title-text"">A</h3></p> </div> <div id=""x-box""> <p class=""title-text"">X<p> </div> <div id=""b-box""> <p class=""title-text"">B</p></div> <br> <div style='float: left;padding-left:30px;'><p>Press '1' for A</p></div><div style='float: right;padding-right:30px;'><p>Press '0' for B</p> </div> </div></div>","null","","","","","","","","","","","","","",""
"2739","","test","audio-keyboard-response","202","574074","0.0-8.0-1.86","5f32aab12a9f82000854c3ea","condA","","resources/audio/wordStim/S9_AU_17_axb_Step-5.wav","48","","","","","AU","resources/audio/wordStim/S9_AU_17_axb_Step-5.wav","S9","17","axb","5","CN","0","0","true"
"null","","fixation","html-keyboard-response","203","575080","0.0-8.0-0.87","5f32aab12a9f82000854c3ea","condA","","<div class=""vertical-center"" style='width:60%;'><p style='font-weight:bold;'>Does the middle word sound more like the first word (A) or the last word (B)?</p> <br> <div class=""container""> <div id=""a-box""> <p class=""title-text"">A</h3></p> </div> <div id=""x-box""> <p class=""title-text"">X<p> </div> <div id=""b-box""> <p class=""title-text"">B</p></div> <br> <div style='float: left;padding-left:30px;'><p>Press '1' for A</p></div><div style='float: right;padding-right:30px;'><p>Press '0' for B</p> </div> </div></div>","null","","","","","","","","","","","","","",""
"2931","","test","audio-keyboard-response","204","578017","0.0-8.0-1.87","5f32aab12a9f82000854c3ea","condA","","resources/audio/wordStim/S9_AU_19_axb_Step-9.wav","49","","","","","AU","resources/audio/wordStim/S9_AU_19_axb_Step-9.wav","S9","19","axb","9","CN","0","1","false"
"null","","fixation","html-keyboard-response","205","579024","0.0-8.0-0.88","5f32aab12a9f82000854c3ea","condA","","<div class=""vertical-center"" style='width:60%;'><p style='font-weight:bold;'>Does the middle word sound more like the first word (A) or the last word (B)?</p> <br> <div class=""container""> <div id=""a-box""> <p class=""title-text"">A</h3></p> </div> <div id=""x-box""> <p class=""title-text"">X<p> </div> <div id=""b-box""> <p class=""title-text"">B</p></div> <br> <div style='float: left;padding-left:30px;'><p>Press '1' for A</p></div><div style='float: right;padding-right:30px;'><p>Press '0' for B</p> </div> </div></div>","null","","","","","","","","","","","","","",""
"2728","","test","audio-keyboard-response","206","581753","0.0-8.0-1.88","5f32aab12a9f82000854c3ea","condA","","resources/audio/wordStim/S9_AI_29_axb_Step-7.wav","48","","","","","AI","resources/audio/wordStim/S9_AI_29_axb_Step-7.wav","S9","29","axb","7","CN","0","0","true"
"null","","fixation","html-keyboard-response","207","582759","0.0-8.0-0.89","5f32aab12a9f82000854c3ea","condA","","<div class=""vertical-center"" style='width:60%;'><p style='font-weight:bold;'>Does the middle word sound more like the first word (A) or the last word (B)?</p> <br> <div class=""container""> <div id=""a-box""> <p class=""title-text"">A</h3></p> </div> <div id=""x-box""> <p class=""title-text"">X<p> </div> <div id=""b-box""> <p class=""title-text"">B</p></div> <br> <div style='float: left;padding-left:30px;'><p>Press '1' for A</p></div><div style='float: right;padding-right:30px;'><p>Press '0' for B</p> </div> </div></div>","null","","","","","","","","","","","","","",""
"2571","","test","audio-keyboard-response","208","585339","0.0-8.0-1.89","5f32aab12a9f82000854c3ea","condA","","resources/audio/wordStim/S3_AU_11_bxa_Step-8.wav","49","","","","","AU","resources/audio/wordStim/S3_AU_11_bxa_Step-8.wav","S3","11","bxa","8","MI","1","1","true"
"null","","fixation","html-keyboard-response","209","586345","0.0-8.0-0.90","5f32aab12a9f82000854c3ea","condA","","<div class=""vertical-center"" style='width:60%;'><p style='font-weight:bold;'>Does the middle word sound more like the first word (A) or the last word (B)?</p> <br> <div class=""container""> <div id=""a-box""> <p class=""title-text"">A</h3></p> </div> <div id=""x-box""> <p class=""title-text"">X<p> </div> <div id=""b-box""> <p class=""title-text"">B</p></div> <br> <div style='float: left;padding-left:30px;'><p>Press '1' for A</p></div><div style='float: right;padding-right:30px;'><p>Press '0' for B</p> </div> </div></div>","null","","","","","","","","","","","","","",""
"2451","","test","audio-keyboard-response","210","588802","0.0-8.0-1.90","5f32aab12a9f82000854c3ea","condA","","resources/audio/wordStim/S9_AU_14_bxa_Step-2.wav","49","","","","","AU","resources/audio/wordStim/S9_AU_14_bxa_Step-2.wav","S9","14","bxa","2","CN","1","1","true"
"null","","fixation","html-keyboard-response","211","589809","0.0-8.0-0.91","5f32aab12a9f82000854c3ea","condA","","<div class=""vertical-center"" style='width:60%;'><p style='font-weight:bold;'>Does the middle word sound more like the first word (A) or the last word (B)?</p> <br> <div class=""container""> <div id=""a-box""> <p class=""title-text"">A</h3></p> </div> <div id=""x-box""> <p class=""title-text"">X<p> </div> <div id=""b-box""> <p class=""title-text"">B</p></div> <br> <div style='float: left;padding-left:30px;'><p>Press '1' for A</p></div><div style='float: right;padding-right:30px;'><p>Press '0' for B</p> </div> </div></div>","null","","","","","","","","","","","","","",""
"2459","","test","audio-keyboard-response","212","592279","0.0-8.0-1.91","5f32aab12a9f82000854c3ea","condA","","resources/audio/wordStim/S9_AU_20_bxa_Step-4.wav","48","","","","","AU","resources/audio/wordStim/S9_AU_20_bxa_Step-4.wav","S9","20","bxa","4","CN","1","0","false"
"null","","fixation","html-keyboard-response","213","593285","0.0-8.0-0.92","5f32aab12a9f82000854c3ea","condA","","<div class=""vertical-center"" style='width:60%;'><p style='font-weight:bold;'>Does the middle word sound more like the first word (A) or the last word (B)?</p> <br> <div class=""container""> <div id=""a-box""> <p class=""title-text"">A</h3></p> </div> <div id=""x-box""> <p class=""title-text"">X<p> </div> <div id=""b-box""> <p class=""title-text"">B</p></div> <br> <div style='float: left;padding-left:30px;'><p>Press '1' for A</p></div><div style='float: right;padding-right:30px;'><p>Press '0' for B</p> </div> </div></div>","null","","","","","","","","","","","","","",""
"2520","","test","audio-keyboard-response","214","595803","0.0-8.0-1.92","5f32aab12a9f82000854c3ea","condA","","resources/audio/wordStim/S3_AI_23_axb_Step-3.wav","49","","","","","AI","resources/audio/wordStim/S3_AI_23_axb_Step-3.wav","S3","23","axb","3","MI","0","1","false"
