"rt","url","trial_role","trial_type","trial_index","time_elapsed","internal_node_id","participantId","condition","view_history","stimulus","key_press","button_pressed","correct_answer","correct_response","success","vowel","wordStim","speaker","sentNum","order","step","speakerIdentity","raised_answer","key_response","raised_response"
"8431.920000119135","micr.con.consent.html","consent","external-html","0","8477","0.0-0.0","5f3eeb74bfbc021a779796d2","condA","","","","","","","","","","","","","","","","",""
"46788.2999998983","","instructions","instructions","1","55266","0.0-1.0","5f3eeb74bfbc021a779796d2","condA","[{""page_index"":0,""viewing_time"":4987.124999985099},{""page_index"":1,""viewing_time"":17335.354999871925},{""page_index"":2,""viewing_time"":24464.92000017315}]","","","","","","","","","","","","","","","",""
"null","","fixation","html-keyboard-response","2","55768","0.0-2.0-0.0","5f3eeb74bfbc021a779796d2","condA","","<div class=""vertical-center"" style=""font-size:60px;"">+</div>","null","","","","","","","","","","","","","",""
"6101.79500002414","","tonetest","audio-button-response","3","61872","0.0-2.0-1.0","5f3eeb74bfbc021a779796d2","condA","","../../src/audio/toneTest_2.wav","","2","1","false","","","","","","","","","","",""
"null","","fixation","html-keyboard-response","4","62374","0.0-2.0-0.1","5f3eeb74bfbc021a779796d2","condA","","<div class=""vertical-center"" style=""font-size:60px;"">+</div>","null","","","","","","","","","","","","","",""
"6816.400000127032","","tonetest","audio-button-response","5","69192","0.0-2.0-1.1","5f3eeb74bfbc021a779796d2","condA","","../../src/audio/toneTest_3.wav","","2","2","true","","","","","","","","","","",""
"null","","fixation","html-keyboard-response","6","69693","0.0-2.0-0.2","5f3eeb74bfbc021a779796d2","condA","","<div class=""vertical-center"" style=""font-size:60px;"">+</div>","null","","","","","","","","","","","","","",""
"4865.605000173673","","tonetest","audio-button-response","7","74560","0.0-2.0-1.2","5f3eeb74bfbc021a779796d2","condA","","../../src/audio/toneTest_6.wav","","0","0","true","","","","","","","","","","",""
"null","","fixation","html-keyboard-response","8","75062","0.0-2.0-0.3","5f3eeb74bfbc021a779796d2","condA","","<div class=""vertical-center"" style=""font-size:60px;"">+</div>","null","","","","","","","","","","","","","",""
"9880.205000052229","","tonetest","audio-button-response","9","84944","0.0-2.0-1.3","5f3eeb74bfbc021a779796d2","condA","","../../src/audio/toneTest_5.wav","","1","0","false","","","","","","","","","","",""
"null","","fixation","html-keyboard-response","10","85445","0.0-2.0-0.4","5f3eeb74bfbc021a779796d2","condA","","<div class=""vertical-center"" style=""font-size:60px;"">+</div>","null","","","","","","","","","","","","","",""
"4653.315000003204","","tonetest","audio-button-response","11","90100","0.0-2.0-1.4","5f3eeb74bfbc021a779796d2","condA","","../../src/audio/toneTest_4.wav","","1","1","true","","","","","","","","","","",""
"null","","fixation","html-keyboard-response","12","90601","0.0-2.0-0.5","5f3eeb74bfbc021a779796d2","condA","","<div class=""vertical-center"" style=""font-size:60px;"">+</div>","null","","","","","","","","","","","","","",""
"4613.624999998137","","tonetest","audio-button-response","13","95216","0.0-2.0-1.5","5f3eeb74bfbc021a779796d2","condA","","../../src/audio/toneTest_4.wav","","1","1","true","","","","","","","","","","",""
"7744.405000004917","","instructions","html-keyboard-response","14","102962","0.0-3.0","5f3eeb74bfbc021a779796d2","condA","","<div class=""vertical-center""><p><b>Your score was 4/6.</b></p><p>If you scored below 6, please ensure that you are wearing properly functioning headphones and in a quiet location free of distractions.</p><p><i>To continue to the main experiment, press SPACE.</i></p></div>","32","","","","","","","","","","","","","",""
"","","","fullscreen","15","107339","0.0-4.0","5f3eeb74bfbc021a779796d2","condA","","","","","","","true","","","","","","","","","",""
"32369.020000100136","","instructions","instructions","16","139709","0.0-5.0","5f3eeb74bfbc021a779796d2","condA","[{""page_index"":0,""viewing_time"":32368.86000004597}]","","","","","","","","","","","","","","","",""
"null","","fixation","html-keyboard-response","17","140210","0.0-6.0-0.0","5f3eeb74bfbc021a779796d2","condA","","<div class=""vertical-center"" style='width:60%;'><p style='font-weight:bold;'>Does the middle word sound more like the first word (A) or the last word (B)?</p> <br> <div class=""container""> <div id=""a-box""> <p class=""title-text"">A</h3></p> </div> <div id=""x-box""> <p class=""title-text"">X<p> </div> <div id=""b-box""> <p class=""title-text"">B</p></div> <br> <div style='float: left;padding-left:30px;'><p>Press '1' for A</p></div><div style='float: right;padding-right:30px;'><p>Press '0' for B</p> </div> </div></div>","null","","","","","","","","","","","","","",""
"14960","","practice","audio-keyboard-response","18","155534","0.0-6.0-1.0","5f3eeb74bfbc021a779796d2","condA","","resources/audio/practiceStim/S1_AI_21_bxa_Step-6.wav","48","","","","","","","","","","","","","",""
"null","","fixation","html-keyboard-response","19","156538","0.0-6.0-0.1","5f3eeb74bfbc021a779796d2","condA","","<div class=""vertical-center"" style='width:60%;'><p style='font-weight:bold;'>Does the middle word sound more like the first word (A) or the last word (B)?</p> <br> <div class=""container""> <div id=""a-box""> <p class=""title-text"">A</h3></p> </div> <div id=""x-box""> <p class=""title-text"">X<p> </div> <div id=""b-box""> <p class=""title-text"">B</p></div> <br> <div style='float: left;padding-left:30px;'><p>Press '1' for A</p></div><div style='float: right;padding-right:30px;'><p>Press '0' for B</p> </div> </div></div>","null","","","","","","","","","","","","","",""
"5992","","practice","audio-keyboard-response","20","162525","0.0-6.0-1.1","5f3eeb74bfbc021a779796d2","condA","","resources/audio/practiceStim/S1_AU_14_bxa_Step-6.wav","49","","","","","","","","","","","","","",""
"null","","fixation","html-keyboard-response","21","163527","0.0-6.0-0.2","5f3eeb74bfbc021a779796d2","condA","","<div class=""vertical-center"" style='width:60%;'><p style='font-weight:bold;'>Does the middle word sound more like the first word (A) or the last word (B)?</p> <br> <div class=""container""> <div id=""a-box""> <p class=""title-text"">A</h3></p> </div> <div id=""x-box""> <p class=""title-text"">X<p> </div> <div id=""b-box""> <p class=""title-text"">B</p></div> <br> <div style='float: left;padding-left:30px;'><p>Press '1' for A</p></div><div style='float: right;padding-right:30px;'><p>Press '0' for B</p> </div> </div></div>","null","","","","","","","","","","","","","",""
"4059","","practice","audio-keyboard-response","22","167593","0.0-6.0-1.2","5f3eeb74bfbc021a779796d2","condA","","resources/audio/practiceStim/S1_AU_14_axb_Step-6.wav","49","","","","","","","","","","","","","",""
"null","","fixation","html-keyboard-response","23","168597","0.0-6.0-0.3","5f3eeb74bfbc021a779796d2","condA","","<div class=""vertical-center"" style='width:60%;'><p style='font-weight:bold;'>Does the middle word sound more like the first word (A) or the last word (B)?</p> <br> <div class=""container""> <div id=""a-box""> <p class=""title-text"">A</h3></p> </div> <div id=""x-box""> <p class=""title-text"">X<p> </div> <div id=""b-box""> <p class=""title-text"">B</p></div> <br> <div style='float: left;padding-left:30px;'><p>Press '1' for A</p></div><div style='float: right;padding-right:30px;'><p>Press '0' for B</p> </div> </div></div>","null","","","","","","","","","","","","","",""
"5029","","practice","audio-keyboard-response","24","173631","0.0-6.0-1.3","5f3eeb74bfbc021a779796d2","condA","","resources/audio/practiceStim/S1_AI_21_axb_Step-6.wav","49","","","","","","","","","","","","","",""
"2724.629999836907","","instructions","instructions","25","176857","0.0-7.0","5f3eeb74bfbc021a779796d2","condA","[{""page_index"":0,""viewing_time"":2724.50999985449}]","","","","","","","","","","","","","","","",""
"null","","fixation","html-keyboard-response","26","177358","0.0-8.0-0.0","5f3eeb74bfbc021a779796d2","condA","","<div class=""vertical-center"" style='width:60%;'><p style='font-weight:bold;'>Does the middle word sound more like the first word (A) or the last word (B)?</p> <br> <div class=""container""> <div id=""a-box""> <p class=""title-text"">A</h3></p> </div> <div id=""x-box""> <p class=""title-text"">X<p> </div> <div id=""b-box""> <p class=""title-text"">B</p></div> <br> <div style='float: left;padding-left:30px;'><p>Press '1' for A</p></div><div style='float: right;padding-right:30px;'><p>Press '0' for B</p> </div> </div></div>","null","","","","","","","","","","","","","",""
"4651","","test","audio-keyboard-response","27","182008","0.0-8.0-1.0","5f3eeb74bfbc021a779796d2","condA","","resources/audio/wordStim/S9_AI_29_bxa_Step-2.wav","49","","","","","AI","resources/audio/wordStim/S9_AI_29_bxa_Step-2.wav","S9","29","bxa","2","CN","1","1","true"
"null","","fixation","html-keyboard-response","28","183011","0.0-8.0-0.1","5f3eeb74bfbc021a779796d2","condA","","<div class=""vertical-center"" style='width:60%;'><p style='font-weight:bold;'>Does the middle word sound more like the first word (A) or the last word (B)?</p> <br> <div class=""container""> <div id=""a-box""> <p class=""title-text"">A</h3></p> </div> <div id=""x-box""> <p class=""title-text"">X<p> </div> <div id=""b-box""> <p class=""title-text"">B</p></div> <br> <div style='float: left;padding-left:30px;'><p>Press '1' for A</p></div><div style='float: right;padding-right:30px;'><p>Press '0' for B</p> </div> </div></div>","null","","","","","","","","","","","","","",""
"4880","","test","audio-keyboard-response","29","187894","0.0-8.0-1.1","5f3eeb74bfbc021a779796d2","condA","","resources/audio/wordStim/S9_AU_11_bxa_Step-6.wav","48","","","","","AU","resources/audio/wordStim/S9_AU_11_bxa_Step-6.wav","S9","11","bxa","6","CN","1","0","false"
"null","","fixation","html-keyboard-response","30","188897","0.0-8.0-0.2","5f3eeb74bfbc021a779796d2","condA","","<div class=""vertical-center"" style='width:60%;'><p style='font-weight:bold;'>Does the middle word sound more like the first word (A) or the last word (B)?</p> <br> <div class=""container""> <div id=""a-box""> <p class=""title-text"">A</h3></p> </div> <div id=""x-box""> <p class=""title-text"">X<p> </div> <div id=""b-box""> <p class=""title-text"">B</p></div> <br> <div style='float: left;padding-left:30px;'><p>Press '1' for A</p></div><div style='float: right;padding-right:30px;'><p>Press '0' for B</p> </div> </div></div>","null","","","","","","","","","","","","","",""
"4672","","test","audio-keyboard-response","31","193565","0.0-8.0-1.2","5f3eeb74bfbc021a779796d2","condA","","resources/audio/wordStim/S9_AI_29_bxa_Step-4.wav","48","","","","","AI","resources/audio/wordStim/S9_AI_29_bxa_Step-4.wav","S9","29","bxa","4","CN","1","0","false"
"null","","fixation","html-keyboard-response","32","194567","0.0-8.0-0.3","5f3eeb74bfbc021a779796d2","condA","","<div class=""vertical-center"" style='width:60%;'><p style='font-weight:bold;'>Does the middle word sound more like the first word (A) or the last word (B)?</p> <br> <div class=""container""> <div id=""a-box""> <p class=""title-text"">A</h3></p> </div> <div id=""x-box""> <p class=""title-text"">X<p> </div> <div id=""b-box""> <p class=""title-text"">B</p></div> <br> <div style='float: left;padding-left:30px;'><p>Press '1' for A</p></div><div style='float: right;padding-right:30px;'><p>Press '0' for B</p> </div> </div></div>","null","","","","","","","","","","","","","",""
"8669","","test","audio-keyboard-response","33","203237","0.0-8.0-1.3","5f3eeb74bfbc021a779796d2","condA","","resources/audio/wordStim/S9_AI_25_axb_Step-7.wav","49","","","","","AI","resources/audio/wordStim/S9_AI_25_axb_Step-7.wav","S9","25","axb","7","CN","0","1","false"
"null","","fixation","html-keyboard-response","34","204239","0.0-8.0-0.4","5f3eeb74bfbc021a779796d2","condA","","<div class=""vertical-center"" style='width:60%;'><p style='font-weight:bold;'>Does the middle word sound more like the first word (A) or the last word (B)?</p> <br> <div class=""container""> <div id=""a-box""> <p class=""title-text"">A</h3></p> </div> <div id=""x-box""> <p class=""title-text"">X<p> </div> <div id=""b-box""> <p class=""title-text"">B</p></div> <br> <div style='float: left;padding-left:30px;'><p>Press '1' for A</p></div><div style='float: right;padding-right:30px;'><p>Press '0' for B</p> </div> </div></div>","null","","","","","","","","","","","","","",""
"3611","","test","audio-keyboard-response","35","207849","0.0-8.0-1.4","5f3eeb74bfbc021a779796d2","condA","","resources/audio/wordStim/S9_AI_27_axb_Step-3.wav","49","","","","","AI","resources/audio/wordStim/S9_AI_27_axb_Step-3.wav","S9","27","axb","3","CN","0","1","false"
"null","","fixation","html-keyboard-response","36","208852","0.0-8.0-0.5","5f3eeb74bfbc021a779796d2","condA","","<div class=""vertical-center"" style='width:60%;'><p style='font-weight:bold;'>Does the middle word sound more like the first word (A) or the last word (B)?</p> <br> <div class=""container""> <div id=""a-box""> <p class=""title-text"">A</h3></p> </div> <div id=""x-box""> <p class=""title-text"">X<p> </div> <div id=""b-box""> <p class=""title-text"">B</p></div> <br> <div style='float: left;padding-left:30px;'><p>Press '1' for A</p></div><div style='float: right;padding-right:30px;'><p>Press '0' for B</p> </div> </div></div>","null","","","","","","","","","","","","","",""
"3080","","test","audio-keyboard-response","37","211927","0.0-8.0-1.5","5f3eeb74bfbc021a779796d2","condA","","resources/audio/wordStim/S9_AI_27_axb_Step-9.wav","49","","","","","AI","resources/audio/wordStim/S9_AI_27_axb_Step-9.wav","S9","27","axb","9","CN","0","1","false"
"null","","fixation","html-keyboard-response","38","212930","0.0-8.0-0.6","5f3eeb74bfbc021a779796d2","condA","","<div class=""vertical-center"" style='width:60%;'><p style='font-weight:bold;'>Does the middle word sound more like the first word (A) or the last word (B)?</p> <br> <div class=""container""> <div id=""a-box""> <p class=""title-text"">A</h3></p> </div> <div id=""x-box""> <p class=""title-text"">X<p> </div> <div id=""b-box""> <p class=""title-text"">B</p></div> <br> <div style='float: left;padding-left:30px;'><p>Press '1' for A</p></div><div style='float: right;padding-right:30px;'><p>Press '0' for B</p> </div> </div></div>","null","","","","","","","","","","","","","",""
"4440","","test","audio-keyboard-response","39","217372","0.0-8.0-1.6","5f3eeb74bfbc021a779796d2","condA","","resources/audio/wordStim/S3_AI_21_bxa_Step-6.wav","48","","","","","AI","resources/audio/wordStim/S3_AI_21_bxa_Step-6.wav","S3","21","bxa","6","MI","1","0","false"
"null","","fixation","html-keyboard-response","40","218376","0.0-8.0-0.7","5f3eeb74bfbc021a779796d2","condA","","<div class=""vertical-center"" style='width:60%;'><p style='font-weight:bold;'>Does the middle word sound more like the first word (A) or the last word (B)?</p> <br> <div class=""container""> <div id=""a-box""> <p class=""title-text"">A</h3></p> </div> <div id=""x-box""> <p class=""title-text"">X<p> </div> <div id=""b-box""> <p class=""title-text"">B</p></div> <br> <div style='float: left;padding-left:30px;'><p>Press '1' for A</p></div><div style='float: right;padding-right:30px;'><p>Press '0' for B</p> </div> </div></div>","null","","","","","","","","","","","","","",""
"3611","","test","audio-keyboard-response","41","221994","0.0-8.0-1.7","5f3eeb74bfbc021a779796d2","condA","","resources/audio/wordStim/S3_AI_29_axb_Step-5.wav","48","","","","","AI","resources/audio/wordStim/S3_AI_29_axb_Step-5.wav","S3","29","axb","5","MI","0","0","true"
"null","","fixation","html-keyboard-response","42","222997","0.0-8.0-0.8","5f3eeb74bfbc021a779796d2","condA","","<div class=""vertical-center"" style='width:60%;'><p style='font-weight:bold;'>Does the middle word sound more like the first word (A) or the last word (B)?</p> <br> <div class=""container""> <div id=""a-box""> <p class=""title-text"">A</h3></p> </div> <div id=""x-box""> <p class=""title-text"">X<p> </div> <div id=""b-box""> <p class=""title-text"">B</p></div> <br> <div style='float: left;padding-left:30px;'><p>Press '1' for A</p></div><div style='float: right;padding-right:30px;'><p>Press '0' for B</p> </div> </div></div>","null","","","","","","","","","","","","","",""
"3251","","test","audio-keyboard-response","43","226253","0.0-8.0-1.8","5f3eeb74bfbc021a779796d2","condA","","resources/audio/wordStim/S9_AU_17_bxa_Step-8.wav","49","","","","","AU","resources/audio/wordStim/S9_AU_17_bxa_Step-8.wav","S9","17","bxa","8","CN","1","1","true"
"null","","fixation","html-keyboard-response","44","227254","0.0-8.0-0.9","5f3eeb74bfbc021a779796d2","condA","","<div class=""vertical-center"" style='width:60%;'><p style='font-weight:bold;'>Does the middle word sound more like the first word (A) or the last word (B)?</p> <br> <div class=""container""> <div id=""a-box""> <p class=""title-text"">A</h3></p> </div> <div id=""x-box""> <p class=""title-text"">X<p> </div> <div id=""b-box""> <p class=""title-text"">B</p></div> <br> <div style='float: left;padding-left:30px;'><p>Press '1' for A</p></div><div style='float: right;padding-right:30px;'><p>Press '0' for B</p> </div> </div></div>","null","","","","","","","","","","","","","",""
"3291","","test","audio-keyboard-response","45","230548","0.0-8.0-1.9","5f3eeb74bfbc021a779796d2","condA","","resources/audio/wordStim/S9_AU_19_axb_Step-10.wav","48","","","","","AU","resources/audio/wordStim/S9_AU_19_axb_Step-10.wav","S9","19","axb","10","CN","0","0","true"
"null","","fixation","html-keyboard-response","46","231552","0.0-8.0-0.10","5f3eeb74bfbc021a779796d2","condA","","<div class=""vertical-center"" style='width:60%;'><p style='font-weight:bold;'>Does the middle word sound more like the first word (A) or the last word (B)?</p> <br> <div class=""container""> <div id=""a-box""> <p class=""title-text"">A</h3></p> </div> <div id=""x-box""> <p class=""title-text"">X<p> </div> <div id=""b-box""> <p class=""title-text"">B</p></div> <br> <div style='float: left;padding-left:30px;'><p>Press '1' for A</p></div><div style='float: right;padding-right:30px;'><p>Press '0' for B</p> </div> </div></div>","null","","","","","","","","","","","","","",""
"4000","","test","audio-keyboard-response","47","235551","0.0-8.0-1.10","5f3eeb74bfbc021a779796d2","condA","","resources/audio/wordStim/S3_AI_23_axb_Step-7.wav","49","","","","","AI","resources/audio/wordStim/S3_AI_23_axb_Step-7.wav","S3","23","axb","7","MI","0","1","false"
"null","","fixation","html-keyboard-response","48","236555","0.0-8.0-0.11","5f3eeb74bfbc021a779796d2","condA","","<div class=""vertical-center"" style='width:60%;'><p style='font-weight:bold;'>Does the middle word sound more like the first word (A) or the last word (B)?</p> <br> <div class=""container""> <div id=""a-box""> <p class=""title-text"">A</h3></p> </div> <div id=""x-box""> <p class=""title-text"">X<p> </div> <div id=""b-box""> <p class=""title-text"">B</p></div> <br> <div style='float: left;padding-left:30px;'><p>Press '1' for A</p></div><div style='float: right;padding-right:30px;'><p>Press '0' for B</p> </div> </div></div>","null","","","","","","","","","","","","","",""
"3179","","test","audio-keyboard-response","49","239737","0.0-8.0-1.11","5f3eeb74bfbc021a779796d2","condA","","resources/audio/wordStim/S3_AI_29_bxa_Step-2.wav","48","","","","","AI","resources/audio/wordStim/S3_AI_29_bxa_Step-2.wav","S3","29","bxa","2","MI","1","0","false"
"null","","fixation","html-keyboard-response","50","240739","0.0-8.0-0.12","5f3eeb74bfbc021a779796d2","condA","","<div class=""vertical-center"" style='width:60%;'><p style='font-weight:bold;'>Does the middle word sound more like the first word (A) or the last word (B)?</p> <br> <div class=""container""> <div id=""a-box""> <p class=""title-text"">A</h3></p> </div> <div id=""x-box""> <p class=""title-text"">X<p> </div> <div id=""b-box""> <p class=""title-text"">B</p></div> <br> <div style='float: left;padding-left:30px;'><p>Press '1' for A</p></div><div style='float: right;padding-right:30px;'><p>Press '0' for B</p> </div> </div></div>","null","","","","","","","","","","","","","",""
"2661","","test","audio-keyboard-response","51","243400","0.0-8.0-1.12","5f3eeb74bfbc021a779796d2","condA","","resources/audio/wordStim/S3_AI_21_axb_Step-5.wav","48","","","","","AI","resources/audio/wordStim/S3_AI_21_axb_Step-5.wav","S3","21","axb","5","MI","0","0","true"
"null","","fixation","html-keyboard-response","52","244404","0.0-8.0-0.13","5f3eeb74bfbc021a779796d2","condA","","<div class=""vertical-center"" style='width:60%;'><p style='font-weight:bold;'>Does the middle word sound more like the first word (A) or the last word (B)?</p> <br> <div class=""container""> <div id=""a-box""> <p class=""title-text"">A</h3></p> </div> <div id=""x-box""> <p class=""title-text"">X<p> </div> <div id=""b-box""> <p class=""title-text"">B</p></div> <br> <div style='float: left;padding-left:30px;'><p>Press '1' for A</p></div><div style='float: right;padding-right:30px;'><p>Press '0' for B</p> </div> </div></div>","null","","","","","","","","","","","","","",""
"2659","","test","audio-keyboard-response","53","247072","0.0-8.0-1.13","5f3eeb74bfbc021a779796d2","condA","","resources/audio/wordStim/S3_AI_25_bxa_Step-2.wav","49","","","","","AI","resources/audio/wordStim/S3_AI_25_bxa_Step-2.wav","S3","25","bxa","2","MI","1","1","true"
"null","","fixation","html-keyboard-response","54","248074","0.0-8.0-0.14","5f3eeb74bfbc021a779796d2","condA","","<div class=""vertical-center"" style='width:60%;'><p style='font-weight:bold;'>Does the middle word sound more like the first word (A) or the last word (B)?</p> <br> <div class=""container""> <div id=""a-box""> <p class=""title-text"">A</h3></p> </div> <div id=""x-box""> <p class=""title-text"">X<p> </div> <div id=""b-box""> <p class=""title-text"">B</p></div> <br> <div style='float: left;padding-left:30px;'><p>Press '1' for A</p></div><div style='float: right;padding-right:30px;'><p>Press '0' for B</p> </div> </div></div>","null","","","","","","","","","","","","","",""
"3360","","test","audio-keyboard-response","55","251436","0.0-8.0-1.14","5f3eeb74bfbc021a779796d2","condA","","resources/audio/wordStim/S3_AU_17_axb_Step-7.wav","49","","","","","AU","resources/audio/wordStim/S3_AU_17_axb_Step-7.wav","S3","17","axb","7","MI","0","1","false"
"null","","fixation","html-keyboard-response","56","252438","0.0-8.0-0.15","5f3eeb74bfbc021a779796d2","condA","","<div class=""vertical-center"" style='width:60%;'><p style='font-weight:bold;'>Does the middle word sound more like the first word (A) or the last word (B)?</p> <br> <div class=""container""> <div id=""a-box""> <p class=""title-text"">A</h3></p> </div> <div id=""x-box""> <p class=""title-text"">X<p> </div> <div id=""b-box""> <p class=""title-text"">B</p></div> <br> <div style='float: left;padding-left:30px;'><p>Press '1' for A</p></div><div style='float: right;padding-right:30px;'><p>Press '0' for B</p> </div> </div></div>","null","","","","","","","","","","","","","",""
"2869","","test","audio-keyboard-response","57","255308","0.0-8.0-1.15","5f3eeb74bfbc021a779796d2","condA","","resources/audio/wordStim/S9_AU_18_axb_Step-9.wav","48","","","","","AU","resources/audio/wordStim/S9_AU_18_axb_Step-9.wav","S9","18","axb","9","CN","0","0","true"
"null","","fixation","html-keyboard-response","58","256312","0.0-8.0-0.16","5f3eeb74bfbc021a779796d2","condA","","<div class=""vertical-center"" style='width:60%;'><p style='font-weight:bold;'>Does the middle word sound more like the first word (A) or the last word (B)?</p> <br> <div class=""container""> <div id=""a-box""> <p class=""title-text"">A</h3></p> </div> <div id=""x-box""> <p class=""title-text"">X<p> </div> <div id=""b-box""> <p class=""title-text"">B</p></div> <br> <div style='float: left;padding-left:30px;'><p>Press '1' for A</p></div><div style='float: right;padding-right:30px;'><p>Press '0' for B</p> </div> </div></div>","null","","","","","","","","","","","","","",""
"2589","","test","audio-keyboard-response","59","258900","0.0-8.0-1.16","5f3eeb74bfbc021a779796d2","condA","","resources/audio/wordStim/S9_AI_24_axb_Step-10.wav","49","","","","","AI","resources/audio/wordStim/S9_AI_24_axb_Step-10.wav","S9","24","axb","10","CN","0","1","false"
"null","","fixation","html-keyboard-response","60","259903","0.0-8.0-0.17","5f3eeb74bfbc021a779796d2","condA","","<div class=""vertical-center"" style='width:60%;'><p style='font-weight:bold;'>Does the middle word sound more like the first word (A) or the last word (B)?</p> <br> <div class=""container""> <div id=""a-box""> <p class=""title-text"">A</h3></p> </div> <div id=""x-box""> <p class=""title-text"">X<p> </div> <div id=""b-box""> <p class=""title-text"">B</p></div> <br> <div style='float: left;padding-left:30px;'><p>Press '1' for A</p></div><div style='float: right;padding-right:30px;'><p>Press '0' for B</p> </div> </div></div>","null","","","","","","","","","","","","","",""
"2651","","test","audio-keyboard-response","61","262556","0.0-8.0-1.17","5f3eeb74bfbc021a779796d2","condA","","resources/audio/wordStim/S9_AU_14_axb_Step-7.wav","49","","","","","AU","resources/audio/wordStim/S9_AU_14_axb_Step-7.wav","S9","14","axb","7","CN","0","1","false"
"null","","fixation","html-keyboard-response","62","263558","0.0-8.0-0.18","5f3eeb74bfbc021a779796d2","condA","","<div class=""vertical-center"" style='width:60%;'><p style='font-weight:bold;'>Does the middle word sound more like the first word (A) or the last word (B)?</p> <br> <div class=""container""> <div id=""a-box""> <p class=""title-text"">A</h3></p> </div> <div id=""x-box""> <p class=""title-text"">X<p> </div> <div id=""b-box""> <p class=""title-text"">B</p></div> <br> <div style='float: left;padding-left:30px;'><p>Press '1' for A</p></div><div style='float: right;padding-right:30px;'><p>Press '0' for B</p> </div> </div></div>","null","","","","","","","","","","","","","",""
"2531","","test","audio-keyboard-response","63","266091","0.0-8.0-1.18","5f3eeb74bfbc021a779796d2","condA","","resources/audio/wordStim/S3_AI_23_bxa_Step-4.wav","49","","","","","AI","resources/audio/wordStim/S3_AI_23_bxa_Step-4.wav","S3","23","bxa","4","MI","1","1","true"
"null","","fixation","html-keyboard-response","64","267095","0.0-8.0-0.19","5f3eeb74bfbc021a779796d2","condA","","<div class=""vertical-center"" style='width:60%;'><p style='font-weight:bold;'>Does the middle word sound more like the first word (A) or the last word (B)?</p> <br> <div class=""container""> <div id=""a-box""> <p class=""title-text"">A</h3></p> </div> <div id=""x-box""> <p class=""title-text"">X<p> </div> <div id=""b-box""> <p class=""title-text"">B</p></div> <br> <div style='float: left;padding-left:30px;'><p>Press '1' for A</p></div><div style='float: right;padding-right:30px;'><p>Press '0' for B</p> </div> </div></div>","null","","","","","","","","","","","","","",""
"3221","","test","audio-keyboard-response","65","270317","0.0-8.0-1.19","5f3eeb74bfbc021a779796d2","condA","","resources/audio/wordStim/S9_AI_22_axb_Step-3.wav","48","","","","","AI","resources/audio/wordStim/S9_AI_22_axb_Step-3.wav","S9","22","axb","3","CN","0","0","true"
"null","","fixation","html-keyboard-response","66","271320","0.0-8.0-0.20","5f3eeb74bfbc021a779796d2","condA","","<div class=""vertical-center"" style='width:60%;'><p style='font-weight:bold;'>Does the middle word sound more like the first word (A) or the last word (B)?</p> <br> <div class=""container""> <div id=""a-box""> <p class=""title-text"">A</h3></p> </div> <div id=""x-box""> <p class=""title-text"">X<p> </div> <div id=""b-box""> <p class=""title-text"">B</p></div> <br> <div style='float: left;padding-left:30px;'><p>Press '1' for A</p></div><div style='float: right;padding-right:30px;'><p>Press '0' for B</p> </div> </div></div>","null","","","","","","","","","","","","","",""
"2680","","test","audio-keyboard-response","67","273999","0.0-8.0-1.20","5f3eeb74bfbc021a779796d2","condA","","resources/audio/wordStim/S3_AU_20_axb_Step-10.wav","48","","","","","AU","resources/audio/wordStim/S3_AU_20_axb_Step-10.wav","S3","20","axb","10","MI","0","0","true"
"null","","fixation","html-keyboard-response","68","275002","0.0-8.0-0.21","5f3eeb74bfbc021a779796d2","condA","","<div class=""vertical-center"" style='width:60%;'><p style='font-weight:bold;'>Does the middle word sound more like the first word (A) or the last word (B)?</p> <br> <div class=""container""> <div id=""a-box""> <p class=""title-text"">A</h3></p> </div> <div id=""x-box""> <p class=""title-text"">X<p> </div> <div id=""b-box""> <p class=""title-text"">B</p></div> <br> <div style='float: left;padding-left:30px;'><p>Press '1' for A</p></div><div style='float: right;padding-right:30px;'><p>Press '0' for B</p> </div> </div></div>","null","","","","","","","","","","","","","",""
"2520","","test","audio-keyboard-response","69","277519","0.0-8.0-1.21","5f3eeb74bfbc021a779796d2","condA","","resources/audio/wordStim/S3_AI_30_axb_Step-7.wav","49","","","","","AI","resources/audio/wordStim/S3_AI_30_axb_Step-7.wav","S3","30","axb","7","MI","0","1","false"
"null","","fixation","html-keyboard-response","70","278522","0.0-8.0-0.22","5f3eeb74bfbc021a779796d2","condA","","<div class=""vertical-center"" style='width:60%;'><p style='font-weight:bold;'>Does the middle word sound more like the first word (A) or the last word (B)?</p> <br> <div class=""container""> <div id=""a-box""> <p class=""title-text"">A</h3></p> </div> <div id=""x-box""> <p class=""title-text"">X<p> </div> <div id=""b-box""> <p class=""title-text"">B</p></div> <br> <div style='float: left;padding-left:30px;'><p>Press '1' for A</p></div><div style='float: right;padding-right:30px;'><p>Press '0' for B</p> </div> </div></div>","null","","","","","","","","","","","","","",""
"2499","","test","audio-keyboard-response","71","281020","0.0-8.0-1.22","5f3eeb74bfbc021a779796d2","condA","","resources/audio/wordStim/S9_AU_20_bxa_Step-2.wav","49","","","","","AU","resources/audio/wordStim/S9_AU_20_bxa_Step-2.wav","S9","20","bxa","2","CN","1","1","true"
"null","","fixation","html-keyboard-response","72","282023","0.0-8.0-0.23","5f3eeb74bfbc021a779796d2","condA","","<div class=""vertical-center"" style='width:60%;'><p style='font-weight:bold;'>Does the middle word sound more like the first word (A) or the last word (B)?</p> <br> <div class=""container""> <div id=""a-box""> <p class=""title-text"">A</h3></p> </div> <div id=""x-box""> <p class=""title-text"">X<p> </div> <div id=""b-box""> <p class=""title-text"">B</p></div> <br> <div style='float: left;padding-left:30px;'><p>Press '1' for A</p></div><div style='float: right;padding-right:30px;'><p>Press '0' for B</p> </div> </div></div>","null","","","","","","","","","","","","","",""
"3552","","test","audio-keyboard-response","73","285565","0.0-8.0-1.23","5f3eeb74bfbc021a779796d2","condA","","resources/audio/wordStim/S9_AU_14_axb_Step-9.wav","48","","","","","AU","resources/audio/wordStim/S9_AU_14_axb_Step-9.wav","S9","14","axb","9","CN","0","0","true"
"null","","fixation","html-keyboard-response","74","286569","0.0-8.0-0.24","5f3eeb74bfbc021a779796d2","condA","","<div class=""vertical-center"" style='width:60%;'><p style='font-weight:bold;'>Does the middle word sound more like the first word (A) or the last word (B)?</p> <br> <div class=""container""> <div id=""a-box""> <p class=""title-text"">A</h3></p> </div> <div id=""x-box""> <p class=""title-text"">X<p> </div> <div id=""b-box""> <p class=""title-text"">B</p></div> <br> <div style='float: left;padding-left:30px;'><p>Press '1' for A</p></div><div style='float: right;padding-right:30px;'><p>Press '0' for B</p> </div> </div></div>","null","","","","","","","","","","","","","",""
"2469","","test","audio-keyboard-response","75","289037","0.0-8.0-1.24","5f3eeb74bfbc021a779796d2","condA","","resources/audio/wordStim/S3_AU_15_axb_Step-9.wav","48","","","","","AU","resources/audio/wordStim/S3_AU_15_axb_Step-9.wav","S3","15","axb","9","MI","0","0","true"
"null","","fixation","html-keyboard-response","76","290039","0.0-8.0-0.25","5f3eeb74bfbc021a779796d2","condA","","<div class=""vertical-center"" style='width:60%;'><p style='font-weight:bold;'>Does the middle word sound more like the first word (A) or the last word (B)?</p> <br> <div class=""container""> <div id=""a-box""> <p class=""title-text"">A</h3></p> </div> <div id=""x-box""> <p class=""title-text"">X<p> </div> <div id=""b-box""> <p class=""title-text"">B</p></div> <br> <div style='float: left;padding-left:30px;'><p>Press '1' for A</p></div><div style='float: right;padding-right:30px;'><p>Press '0' for B</p> </div> </div></div>","null","","","","","","","","","","","","","",""
"2611","","test","audio-keyboard-response","77","292651","0.0-8.0-1.25","5f3eeb74bfbc021a779796d2","condA","","resources/audio/wordStim/S9_AU_14_bxa_Step-2.wav","48","","","","","AU","resources/audio/wordStim/S9_AU_14_bxa_Step-2.wav","S9","14","bxa","2","CN","1","0","false"
"null","","fixation","html-keyboard-response","78","293653","0.0-8.0-0.26","5f3eeb74bfbc021a779796d2","condA","","<div class=""vertical-center"" style='width:60%;'><p style='font-weight:bold;'>Does the middle word sound more like the first word (A) or the last word (B)?</p> <br> <div class=""container""> <div id=""a-box""> <p class=""title-text"">A</h3></p> </div> <div id=""x-box""> <p class=""title-text"">X<p> </div> <div id=""b-box""> <p class=""title-text"">B</p></div> <br> <div style='float: left;padding-left:30px;'><p>Press '1' for A</p></div><div style='float: right;padding-right:30px;'><p>Press '0' for B</p> </div> </div></div>","null","","","","","","","","","","","","","",""
"2819","","test","audio-keyboard-response","79","296471","0.0-8.0-1.26","5f3eeb74bfbc021a779796d2","condA","","resources/audio/wordStim/S3_AI_30_bxa_Step-6.wav","49","","","","","AI","resources/audio/wordStim/S3_AI_30_bxa_Step-6.wav","S3","30","bxa","6","MI","1","1","true"
"1895.574999973178","","break","html-keyboard-response","80","298867","0.0-8.0-2.26-0.26","5f3eeb74bfbc021a779796d2","condA","","<div class=""vertical-center""><p>Feel free to take a break!</p><i>When you're ready to continue, press SPACE to begin the next trial.</i></p></div>","32","","","","","","","","","","","","","",""
"null","","fixation","html-keyboard-response","81","299369","0.0-8.0-0.27","5f3eeb74bfbc021a779796d2","condA","","<div class=""vertical-center"" style='width:60%;'><p style='font-weight:bold;'>Does the middle word sound more like the first word (A) or the last word (B)?</p> <br> <div class=""container""> <div id=""a-box""> <p class=""title-text"">A</h3></p> </div> <div id=""x-box""> <p class=""title-text"">X<p> </div> <div id=""b-box""> <p class=""title-text"">B</p></div> <br> <div style='float: left;padding-left:30px;'><p>Press '1' for A</p></div><div style='float: right;padding-right:30px;'><p>Press '0' for B</p> </div> </div></div>","null","","","","","","","","","","","","","",""
"2960","","test","audio-keyboard-response","82","302332","0.0-8.0-1.27","5f3eeb74bfbc021a779796d2","condA","","resources/audio/wordStim/S9_AU_18_axb_Step-5.wav","49","","","","","AU","resources/audio/wordStim/S9_AU_18_axb_Step-5.wav","S9","18","axb","5","CN","0","1","false"
"null","","fixation","html-keyboard-response","83","303335","0.0-8.0-0.28","5f3eeb74bfbc021a779796d2","condA","","<div class=""vertical-center"" style='width:60%;'><p style='font-weight:bold;'>Does the middle word sound more like the first word (A) or the last word (B)?</p> <br> <div class=""container""> <div id=""a-box""> <p class=""title-text"">A</h3></p> </div> <div id=""x-box""> <p class=""title-text"">X<p> </div> <div id=""b-box""> <p class=""title-text"">B</p></div> <br> <div style='float: left;padding-left:30px;'><p>Press '1' for A</p></div><div style='float: right;padding-right:30px;'><p>Press '0' for B</p> </div> </div></div>","null","","","","","","","","","","","","","",""
"2832","","test","audio-keyboard-response","84","306174","0.0-8.0-1.28","5f3eeb74bfbc021a779796d2","condA","","resources/audio/wordStim/S3_AI_22_axb_Step-10.wav","48","","","","","AI","resources/audio/wordStim/S3_AI_22_axb_Step-10.wav","S3","22","axb","10","MI","0","0","true"
"null","","fixation","html-keyboard-response","85","307177","0.0-8.0-0.29","5f3eeb74bfbc021a779796d2","condA","","<div class=""vertical-center"" style='width:60%;'><p style='font-weight:bold;'>Does the middle word sound more like the first word (A) or the last word (B)?</p> <br> <div class=""container""> <div id=""a-box""> <p class=""title-text"">A</h3></p> </div> <div id=""x-box""> <p class=""title-text"">X<p> </div> <div id=""b-box""> <p class=""title-text"">B</p></div> <br> <div style='float: left;padding-left:30px;'><p>Press '1' for A</p></div><div style='float: right;padding-right:30px;'><p>Press '0' for B</p> </div> </div></div>","null","","","","","","","","","","","","","",""
"2992","","test","audio-keyboard-response","86","310173","0.0-8.0-1.29","5f3eeb74bfbc021a779796d2","condA","","resources/audio/wordStim/S9_AI_30_bxa_Step-8.wav","48","","","","","AI","resources/audio/wordStim/S9_AI_30_bxa_Step-8.wav","S9","30","bxa","8","CN","1","0","false"
"null","","fixation","html-keyboard-response","87","311176","0.0-8.0-0.30","5f3eeb74bfbc021a779796d2","condA","","<div class=""vertical-center"" style='width:60%;'><p style='font-weight:bold;'>Does the middle word sound more like the first word (A) or the last word (B)?</p> <br> <div class=""container""> <div id=""a-box""> <p class=""title-text"">A</h3></p> </div> <div id=""x-box""> <p class=""title-text"">X<p> </div> <div id=""b-box""> <p class=""title-text"">B</p></div> <br> <div style='float: left;padding-left:30px;'><p>Press '1' for A</p></div><div style='float: right;padding-right:30px;'><p>Press '0' for B</p> </div> </div></div>","null","","","","","","","","","","","","","",""
"3021","","test","audio-keyboard-response","88","314195","0.0-8.0-1.30","5f3eeb74bfbc021a779796d2","condA","","resources/audio/wordStim/S3_AI_28_axb_Step-10.wav","48","","","","","AI","resources/audio/wordStim/S3_AI_28_axb_Step-10.wav","S3","28","axb","10","MI","0","0","true"
"null","","fixation","html-keyboard-response","89","315197","0.0-8.0-0.31","5f3eeb74bfbc021a779796d2","condA","","<div class=""vertical-center"" style='width:60%;'><p style='font-weight:bold;'>Does the middle word sound more like the first word (A) or the last word (B)?</p> <br> <div class=""container""> <div id=""a-box""> <p class=""title-text"">A</h3></p> </div> <div id=""x-box""> <p class=""title-text"">X<p> </div> <div id=""b-box""> <p class=""title-text"">B</p></div> <br> <div style='float: left;padding-left:30px;'><p>Press '1' for A</p></div><div style='float: right;padding-right:30px;'><p>Press '0' for B</p> </div> </div></div>","null","","","","","","","","","","","","","",""
"2779","","test","audio-keyboard-response","90","317983","0.0-8.0-1.31","5f3eeb74bfbc021a779796d2","condA","","resources/audio/wordStim/S3_AU_19_axb_Step-5.wav","48","","","","","AU","resources/audio/wordStim/S3_AU_19_axb_Step-5.wav","S3","19","axb","5","MI","0","0","true"
"null","","fixation","html-keyboard-response","91","318988","0.0-8.0-0.32","5f3eeb74bfbc021a779796d2","condA","","<div class=""vertical-center"" style='width:60%;'><p style='font-weight:bold;'>Does the middle word sound more like the first word (A) or the last word (B)?</p> <br> <div class=""container""> <div id=""a-box""> <p class=""title-text"">A</h3></p> </div> <div id=""x-box""> <p class=""title-text"">X<p> </div> <div id=""b-box""> <p class=""title-text"">B</p></div> <br> <div style='float: left;padding-left:30px;'><p>Press '1' for A</p></div><div style='float: right;padding-right:30px;'><p>Press '0' for B</p> </div> </div></div>","null","","","","","","","","","","","","","",""
"2411","","test","audio-keyboard-response","92","321405","0.0-8.0-1.32","5f3eeb74bfbc021a779796d2","condA","","resources/audio/wordStim/S3_AI_25_bxa_Step-6.wav","48","","","","","AI","resources/audio/wordStim/S3_AI_25_bxa_Step-6.wav","S3","25","bxa","6","MI","1","0","false"
"null","","fixation","html-keyboard-response","93","322407","0.0-8.0-0.33","5f3eeb74bfbc021a779796d2","condA","","<div class=""vertical-center"" style='width:60%;'><p style='font-weight:bold;'>Does the middle word sound more like the first word (A) or the last word (B)?</p> <br> <div class=""container""> <div id=""a-box""> <p class=""title-text"">A</h3></p> </div> <div id=""x-box""> <p class=""title-text"">X<p> </div> <div id=""b-box""> <p class=""title-text"">B</p></div> <br> <div style='float: left;padding-left:30px;'><p>Press '1' for A</p></div><div style='float: right;padding-right:30px;'><p>Press '0' for B</p> </div> </div></div>","null","","","","","","","","","","","","","",""
"2288","","test","audio-keyboard-response","94","324704","0.0-8.0-1.33","5f3eeb74bfbc021a779796d2","condA","","resources/audio/wordStim/S3_AU_14_axb_Step-10.wav","49","","","","","AU","resources/audio/wordStim/S3_AU_14_axb_Step-10.wav","S3","14","axb","10","MI","0","1","false"
"null","","fixation","html-keyboard-response","95","325706","0.0-8.0-0.34","5f3eeb74bfbc021a779796d2","condA","","<div class=""vertical-center"" style='width:60%;'><p style='font-weight:bold;'>Does the middle word sound more like the first word (A) or the last word (B)?</p> <br> <div class=""container""> <div id=""a-box""> <p class=""title-text"">A</h3></p> </div> <div id=""x-box""> <p class=""title-text"">X<p> </div> <div id=""b-box""> <p class=""title-text"">B</p></div> <br> <div style='float: left;padding-left:30px;'><p>Press '1' for A</p></div><div style='float: right;padding-right:30px;'><p>Press '0' for B</p> </div> </div></div>","null","","","","","","","","","","","","","",""
"2571","","test","audio-keyboard-response","96","328275","0.0-8.0-1.34","5f3eeb74bfbc021a779796d2","condA","","resources/audio/wordStim/S3_AI_28_bxa_Step-8.wav","49","","","","","AI","resources/audio/wordStim/S3_AI_28_bxa_Step-8.wav","S3","28","bxa","8","MI","1","1","true"
"null","","fixation","html-keyboard-response","97","329277","0.0-8.0-0.35","5f3eeb74bfbc021a779796d2","condA","","<div class=""vertical-center"" style='width:60%;'><p style='font-weight:bold;'>Does the middle word sound more like the first word (A) or the last word (B)?</p> <br> <div class=""container""> <div id=""a-box""> <p class=""title-text"">A</h3></p> </div> <div id=""x-box""> <p class=""title-text"">X<p> </div> <div id=""b-box""> <p class=""title-text"">B</p></div> <br> <div style='float: left;padding-left:30px;'><p>Press '1' for A</p></div><div style='float: right;padding-right:30px;'><p>Press '0' for B</p> </div> </div></div>","null","","","","","","","","","","","","","",""
"2931","","test","audio-keyboard-response","98","332214","0.0-8.0-1.35","5f3eeb74bfbc021a779796d2","condA","","resources/audio/wordStim/S3_AI_28_axb_Step-7.wav","49","","","","","AI","resources/audio/wordStim/S3_AI_28_axb_Step-7.wav","S3","28","axb","7","MI","0","1","false"
"null","","fixation","html-keyboard-response","99","333216","0.0-8.0-0.36","5f3eeb74bfbc021a779796d2","condA","","<div class=""vertical-center"" style='width:60%;'><p style='font-weight:bold;'>Does the middle word sound more like the first word (A) or the last word (B)?</p> <br> <div class=""container""> <div id=""a-box""> <p class=""title-text"">A</h3></p> </div> <div id=""x-box""> <p class=""title-text"">X<p> </div> <div id=""b-box""> <p class=""title-text"">B</p></div> <br> <div style='float: left;padding-left:30px;'><p>Press '1' for A</p></div><div style='float: right;padding-right:30px;'><p>Press '0' for B</p> </div> </div></div>","null","","","","","","","","","","","","","",""
"2741","","test","audio-keyboard-response","100","335955","0.0-8.0-1.36","5f3eeb74bfbc021a779796d2","condA","","resources/audio/wordStim/S3_AI_30_axb_Step-5.wav","48","","","","","AI","resources/audio/wordStim/S3_AI_30_axb_Step-5.wav","S3","30","axb","5","MI","0","0","true"
"null","","fixation","html-keyboard-response","101","336957","0.0-8.0-0.37","5f3eeb74bfbc021a779796d2","condA","","<div class=""vertical-center"" style='width:60%;'><p style='font-weight:bold;'>Does the middle word sound more like the first word (A) or the last word (B)?</p> <br> <div class=""container""> <div id=""a-box""> <p class=""title-text"">A</h3></p> </div> <div id=""x-box""> <p class=""title-text"">X<p> </div> <div id=""b-box""> <p class=""title-text"">B</p></div> <br> <div style='float: left;padding-left:30px;'><p>Press '1' for A</p></div><div style='float: right;padding-right:30px;'><p>Press '0' for B</p> </div> </div></div>","null","","","","","","","","","","","","","",""
"2731","","test","audio-keyboard-response","102","339688","0.0-8.0-1.37","5f3eeb74bfbc021a779796d2","condA","","resources/audio/wordStim/S9_AU_13_axb_Step-10.wav","48","","","","","AU","resources/audio/wordStim/S9_AU_13_axb_Step-10.wav","S9","13","axb","10","CN","0","0","true"
"null","","fixation","html-keyboard-response","103","340689","0.0-8.0-0.38","5f3eeb74bfbc021a779796d2","condA","","<div class=""vertical-center"" style='width:60%;'><p style='font-weight:bold;'>Does the middle word sound more like the first word (A) or the last word (B)?</p> <br> <div class=""container""> <div id=""a-box""> <p class=""title-text"">A</h3></p> </div> <div id=""x-box""> <p class=""title-text"">X<p> </div> <div id=""b-box""> <p class=""title-text"">B</p></div> <br> <div style='float: left;padding-left:30px;'><p>Press '1' for A</p></div><div style='float: right;padding-right:30px;'><p>Press '0' for B</p> </div> </div></div>","null","","","","","","","","","","","","","",""
"3040","","test","audio-keyboard-response","104","343732","0.0-8.0-1.38","5f3eeb74bfbc021a779796d2","condA","","resources/audio/wordStim/S9_AU_17_bxa_Step-2.wav","49","","","","","AU","resources/audio/wordStim/S9_AU_17_bxa_Step-2.wav","S9","17","bxa","2","CN","1","1","true"
"null","","fixation","html-keyboard-response","105","344733","0.0-8.0-0.39","5f3eeb74bfbc021a779796d2","condA","","<div class=""vertical-center"" style='width:60%;'><p style='font-weight:bold;'>Does the middle word sound more like the first word (A) or the last word (B)?</p> <br> <div class=""container""> <div id=""a-box""> <p class=""title-text"">A</h3></p> </div> <div id=""x-box""> <p class=""title-text"">X<p> </div> <div id=""b-box""> <p class=""title-text"">B</p></div> <br> <div style='float: left;padding-left:30px;'><p>Press '1' for A</p></div><div style='float: right;padding-right:30px;'><p>Press '0' for B</p> </div> </div></div>","null","","","","","","","","","","","","","",""
"3080","","test","audio-keyboard-response","106","347816","0.0-8.0-1.39","5f3eeb74bfbc021a779796d2","condA","","resources/audio/wordStim/S9_AI_23_bxa_Step-4.wav","49","","","","","AI","resources/audio/wordStim/S9_AI_23_bxa_Step-4.wav","S9","23","bxa","4","CN","1","1","true"
"null","","fixation","html-keyboard-response","107","348817","0.0-8.0-0.40","5f3eeb74bfbc021a779796d2","condA","","<div class=""vertical-center"" style='width:60%;'><p style='font-weight:bold;'>Does the middle word sound more like the first word (A) or the last word (B)?</p> <br> <div class=""container""> <div id=""a-box""> <p class=""title-text"">A</h3></p> </div> <div id=""x-box""> <p class=""title-text"">X<p> </div> <div id=""b-box""> <p class=""title-text"">B</p></div> <br> <div style='float: left;padding-left:30px;'><p>Press '1' for A</p></div><div style='float: right;padding-right:30px;'><p>Press '0' for B</p> </div> </div></div>","null","","","","","","","","","","","","","",""
"2531","","test","audio-keyboard-response","108","351345","0.0-8.0-1.40","5f3eeb74bfbc021a779796d2","condA","","resources/audio/wordStim/S9_AU_16_bxa_Step-8.wav","49","","","","","AU","resources/audio/wordStim/S9_AU_16_bxa_Step-8.wav","S9","16","bxa","8","CN","1","1","true"
"null","","fixation","html-keyboard-response","109","352347","0.0-8.0-0.41","5f3eeb74bfbc021a779796d2","condA","","<div class=""vertical-center"" style='width:60%;'><p style='font-weight:bold;'>Does the middle word sound more like the first word (A) or the last word (B)?</p> <br> <div class=""container""> <div id=""a-box""> <p class=""title-text"">A</h3></p> </div> <div id=""x-box""> <p class=""title-text"">X<p> </div> <div id=""b-box""> <p class=""title-text"">B</p></div> <br> <div style='float: left;padding-left:30px;'><p>Press '1' for A</p></div><div style='float: right;padding-right:30px;'><p>Press '0' for B</p> </div> </div></div>","null","","","","","","","","","","","","","",""
"2371","","test","audio-keyboard-response","110","354719","0.0-8.0-1.41","5f3eeb74bfbc021a779796d2","condA","","resources/audio/wordStim/S9_AU_19_axb_Step-3.wav","49","","","","","AU","resources/audio/wordStim/S9_AU_19_axb_Step-3.wav","S9","19","axb","3","CN","0","1","false"
"null","","fixation","html-keyboard-response","111","355721","0.0-8.0-0.42","5f3eeb74bfbc021a779796d2","condA","","<div class=""vertical-center"" style='width:60%;'><p style='font-weight:bold;'>Does the middle word sound more like the first word (A) or the last word (B)?</p> <br> <div class=""container""> <div id=""a-box""> <p class=""title-text"">A</h3></p> </div> <div id=""x-box""> <p class=""title-text"">X<p> </div> <div id=""b-box""> <p class=""title-text"">B</p></div> <br> <div style='float: left;padding-left:30px;'><p>Press '1' for A</p></div><div style='float: right;padding-right:30px;'><p>Press '0' for B</p> </div> </div></div>","null","","","","","","","","","","","","","",""
"3080","","test","audio-keyboard-response","112","358801","0.0-8.0-1.42","5f3eeb74bfbc021a779796d2","condA","","resources/audio/wordStim/S9_AI_29_bxa_Step-6.wav","48","","","","","AI","resources/audio/wordStim/S9_AI_29_bxa_Step-6.wav","S9","29","bxa","6","CN","1","0","false"
"null","","fixation","html-keyboard-response","113","359804","0.0-8.0-0.43","5f3eeb74bfbc021a779796d2","condA","","<div class=""vertical-center"" style='width:60%;'><p style='font-weight:bold;'>Does the middle word sound more like the first word (A) or the last word (B)?</p> <br> <div class=""container""> <div id=""a-box""> <p class=""title-text"">A</h3></p> </div> <div id=""x-box""> <p class=""title-text"">X<p> </div> <div id=""b-box""> <p class=""title-text"">B</p></div> <br> <div style='float: left;padding-left:30px;'><p>Press '1' for A</p></div><div style='float: right;padding-right:30px;'><p>Press '0' for B</p> </div> </div></div>","null","","","","","","","","","","","","","",""
"2520","","test","audio-keyboard-response","114","362333","0.0-8.0-1.43","5f3eeb74bfbc021a779796d2","condA","","resources/audio/wordStim/S3_AU_14_bxa_Step-4.wav","48","","","","","AU","resources/audio/wordStim/S3_AU_14_bxa_Step-4.wav","S3","14","bxa","4","MI","1","0","false"
"null","","fixation","html-keyboard-response","115","363336","0.0-8.0-0.44","5f3eeb74bfbc021a779796d2","condA","","<div class=""vertical-center"" style='width:60%;'><p style='font-weight:bold;'>Does the middle word sound more like the first word (A) or the last word (B)?</p> <br> <div class=""container""> <div id=""a-box""> <p class=""title-text"">A</h3></p> </div> <div id=""x-box""> <p class=""title-text"">X<p> </div> <div id=""b-box""> <p class=""title-text"">B</p></div> <br> <div style='float: left;padding-left:30px;'><p>Press '1' for A</p></div><div style='float: right;padding-right:30px;'><p>Press '0' for B</p> </div> </div></div>","null","","","","","","","","","","","","","",""
"2731","","test","audio-keyboard-response","116","366067","0.0-8.0-1.44","5f3eeb74bfbc021a779796d2","condA","","resources/audio/wordStim/S3_AI_29_axb_Step-7.wav","48","","","","","AI","resources/audio/wordStim/S3_AI_29_axb_Step-7.wav","S3","29","axb","7","MI","0","0","true"
"null","","fixation","html-keyboard-response","117","367069","0.0-8.0-0.45","5f3eeb74bfbc021a779796d2","condA","","<div class=""vertical-center"" style='width:60%;'><p style='font-weight:bold;'>Does the middle word sound more like the first word (A) or the last word (B)?</p> <br> <div class=""container""> <div id=""a-box""> <p class=""title-text"">A</h3></p> </div> <div id=""x-box""> <p class=""title-text"">X<p> </div> <div id=""b-box""> <p class=""title-text"">B</p></div> <br> <div style='float: left;padding-left:30px;'><p>Press '1' for A</p></div><div style='float: right;padding-right:30px;'><p>Press '0' for B</p> </div> </div></div>","null","","","","","","","","","","","","","",""
"2331","","test","audio-keyboard-response","118","369397","0.0-8.0-1.45","5f3eeb74bfbc021a779796d2","condA","","resources/audio/wordStim/S3_AU_19_bxa_Step-6.wav","49","","","","","AU","resources/audio/wordStim/S3_AU_19_bxa_Step-6.wav","S3","19","bxa","6","MI","1","1","true"
"null","","fixation","html-keyboard-response","119","370400","0.0-8.0-0.46","5f3eeb74bfbc021a779796d2","condA","","<div class=""vertical-center"" style='width:60%;'><p style='font-weight:bold;'>Does the middle word sound more like the first word (A) or the last word (B)?</p> <br> <div class=""container""> <div id=""a-box""> <p class=""title-text"">A</h3></p> </div> <div id=""x-box""> <p class=""title-text"">X<p> </div> <div id=""b-box""> <p class=""title-text"">B</p></div> <br> <div style='float: left;padding-left:30px;'><p>Press '1' for A</p></div><div style='float: right;padding-right:30px;'><p>Press '0' for B</p> </div> </div></div>","null","","","","","","","","","","","","","",""
"3109","","test","audio-keyboard-response","120","373505","0.0-8.0-1.46","5f3eeb74bfbc021a779796d2","condA","","resources/audio/wordStim/S3_AU_18_axb_Step-3.wav","49","","","","","AU","resources/audio/wordStim/S3_AU_18_axb_Step-3.wav","S3","18","axb","3","MI","0","1","false"
"null","","fixation","html-keyboard-response","121","374509","0.0-8.0-0.47","5f3eeb74bfbc021a779796d2","condA","","<div class=""vertical-center"" style='width:60%;'><p style='font-weight:bold;'>Does the middle word sound more like the first word (A) or the last word (B)?</p> <br> <div class=""container""> <div id=""a-box""> <p class=""title-text"">A</h3></p> </div> <div id=""x-box""> <p class=""title-text"">X<p> </div> <div id=""b-box""> <p class=""title-text"">B</p></div> <br> <div style='float: left;padding-left:30px;'><p>Press '1' for A</p></div><div style='float: right;padding-right:30px;'><p>Press '0' for B</p> </div> </div></div>","null","","","","","","","","","","","","","",""
"2309","","test","audio-keyboard-response","122","376818","0.0-8.0-1.47","5f3eeb74bfbc021a779796d2","condA","","resources/audio/wordStim/S9_AU_20_axb_Step-10.wav","48","","","","","AU","resources/audio/wordStim/S9_AU_20_axb_Step-10.wav","S9","20","axb","10","CN","0","0","true"
"null","","fixation","html-keyboard-response","123","377821","0.0-8.0-0.48","5f3eeb74bfbc021a779796d2","condA","","<div class=""vertical-center"" style='width:60%;'><p style='font-weight:bold;'>Does the middle word sound more like the first word (A) or the last word (B)?</p> <br> <div class=""container""> <div id=""a-box""> <p class=""title-text"">A</h3></p> </div> <div id=""x-box""> <p class=""title-text"">X<p> </div> <div id=""b-box""> <p class=""title-text"">B</p></div> <br> <div style='float: left;padding-left:30px;'><p>Press '1' for A</p></div><div style='float: right;padding-right:30px;'><p>Press '0' for B</p> </div> </div></div>","null","","","","","","","","","","","","","",""
"2480","","test","audio-keyboard-response","124","380300","0.0-8.0-1.48","5f3eeb74bfbc021a779796d2","condA","","resources/audio/wordStim/S9_AI_25_axb_Step-3.wav","49","","","","","AI","resources/audio/wordStim/S9_AI_25_axb_Step-3.wav","S9","25","axb","3","CN","0","1","false"
"null","","fixation","html-keyboard-response","125","381302","0.0-8.0-0.49","5f3eeb74bfbc021a779796d2","condA","","<div class=""vertical-center"" style='width:60%;'><p style='font-weight:bold;'>Does the middle word sound more like the first word (A) or the last word (B)?</p> <br> <div class=""container""> <div id=""a-box""> <p class=""title-text"">A</h3></p> </div> <div id=""x-box""> <p class=""title-text"">X<p> </div> <div id=""b-box""> <p class=""title-text"">B</p></div> <br> <div style='float: left;padding-left:30px;'><p>Press '1' for A</p></div><div style='float: right;padding-right:30px;'><p>Press '0' for B</p> </div> </div></div>","null","","","","","","","","","","","","","",""
"3291","","test","audio-keyboard-response","126","384589","0.0-8.0-1.49","5f3eeb74bfbc021a779796d2","condA","","resources/audio/wordStim/S3_AU_17_axb_Step-10.wav","48","","","","","AU","resources/audio/wordStim/S3_AU_17_axb_Step-10.wav","S3","17","axb","10","MI","0","0","true"
"null","","fixation","html-keyboard-response","127","385593","0.0-8.0-0.50","5f3eeb74bfbc021a779796d2","condA","","<div class=""vertical-center"" style='width:60%;'><p style='font-weight:bold;'>Does the middle word sound more like the first word (A) or the last word (B)?</p> <br> <div class=""container""> <div id=""a-box""> <p class=""title-text"">A</h3></p> </div> <div id=""x-box""> <p class=""title-text"">X<p> </div> <div id=""b-box""> <p class=""title-text"">B</p></div> <br> <div style='float: left;padding-left:30px;'><p>Press '1' for A</p></div><div style='float: right;padding-right:30px;'><p>Press '0' for B</p> </div> </div></div>","null","","","","","","","","","","","","","",""
"2611","","test","audio-keyboard-response","128","388196","0.0-8.0-1.50","5f3eeb74bfbc021a779796d2","condA","","resources/audio/wordStim/S9_AI_29_bxa_Step-8.wav","49","","","","","AI","resources/audio/wordStim/S9_AI_29_bxa_Step-8.wav","S9","29","bxa","8","CN","1","1","true"
"null","","fixation","html-keyboard-response","129","389198","0.0-8.0-0.51","5f3eeb74bfbc021a779796d2","condA","","<div class=""vertical-center"" style='width:60%;'><p style='font-weight:bold;'>Does the middle word sound more like the first word (A) or the last word (B)?</p> <br> <div class=""container""> <div id=""a-box""> <p class=""title-text"">A</h3></p> </div> <div id=""x-box""> <p class=""title-text"">X<p> </div> <div id=""b-box""> <p class=""title-text"">B</p></div> <br> <div style='float: left;padding-left:30px;'><p>Press '1' for A</p></div><div style='float: right;padding-right:30px;'><p>Press '0' for B</p> </div> </div></div>","null","","","","","","","","","","","","","",""
"3120","","test","audio-keyboard-response","130","392316","0.0-8.0-1.51","5f3eeb74bfbc021a779796d2","condA","","resources/audio/wordStim/S3_AU_17_axb_Step-3.wav","49","","","","","AU","resources/audio/wordStim/S3_AU_17_axb_Step-3.wav","S3","17","axb","3","MI","0","1","false"
"null","","fixation","html-keyboard-response","131","393318","0.0-8.0-0.52","5f3eeb74bfbc021a779796d2","condA","","<div class=""vertical-center"" style='width:60%;'><p style='font-weight:bold;'>Does the middle word sound more like the first word (A) or the last word (B)?</p> <br> <div class=""container""> <div id=""a-box""> <p class=""title-text"">A</h3></p> </div> <div id=""x-box""> <p class=""title-text"">X<p> </div> <div id=""b-box""> <p class=""title-text"">B</p></div> <br> <div style='float: left;padding-left:30px;'><p>Press '1' for A</p></div><div style='float: right;padding-right:30px;'><p>Press '0' for B</p> </div> </div></div>","null","","","","","","","","","","","","","",""
"2659","","test","audio-keyboard-response","132","395985","0.0-8.0-1.52","5f3eeb74bfbc021a779796d2","condA","","resources/audio/wordStim/S3_AU_11_bxa_Step-8.wav","49","","","","","AU","resources/audio/wordStim/S3_AU_11_bxa_Step-8.wav","S3","11","bxa","8","MI","1","1","true"
"null","","fixation","html-keyboard-response","133","396988","0.0-8.0-0.53","5f3eeb74bfbc021a779796d2","condA","","<div class=""vertical-center"" style='width:60%;'><p style='font-weight:bold;'>Does the middle word sound more like the first word (A) or the last word (B)?</p> <br> <div class=""container""> <div id=""a-box""> <p class=""title-text"">A</h3></p> </div> <div id=""x-box""> <p class=""title-text"">X<p> </div> <div id=""b-box""> <p class=""title-text"">B</p></div> <br> <div style='float: left;padding-left:30px;'><p>Press '1' for A</p></div><div style='float: right;padding-right:30px;'><p>Press '0' for B</p> </div> </div></div>","null","","","","","","","","","","","","","",""
"3051","","test","audio-keyboard-response","134","400036","0.0-8.0-1.53","5f3eeb74bfbc021a779796d2","condA","","resources/audio/wordStim/S3_AI_29_bxa_Step-4.wav","49","","","","","AI","resources/audio/wordStim/S3_AI_29_bxa_Step-4.wav","S3","29","bxa","4","MI","1","1","true"
"1569.9450001120567","","break","html-keyboard-response","135","402108","0.0-8.0-2.53-0.53","5f3eeb74bfbc021a779796d2","condA","","<div class=""vertical-center""><p>Feel free to take a break!</p><i>When you're ready to continue, press SPACE to begin the next trial.</i></p></div>","32","","","","","","","","","","","","","",""
"null","","fixation","html-keyboard-response","136","402610","0.0-8.0-0.54","5f3eeb74bfbc021a779796d2","condA","","<div class=""vertical-center"" style='width:60%;'><p style='font-weight:bold;'>Does the middle word sound more like the first word (A) or the last word (B)?</p> <br> <div class=""container""> <div id=""a-box""> <p class=""title-text"">A</h3></p> </div> <div id=""x-box""> <p class=""title-text"">X<p> </div> <div id=""b-box""> <p class=""title-text"">B</p></div> <br> <div style='float: left;padding-left:30px;'><p>Press '1' for A</p></div><div style='float: right;padding-right:30px;'><p>Press '0' for B</p> </div> </div></div>","null","","","","","","","","","","","","","",""
"2680","","test","audio-keyboard-response","137","405294","0.0-8.0-1.54","5f3eeb74bfbc021a779796d2","condA","","resources/audio/wordStim/S9_AI_30_bxa_Step-6.wav","49","","","","","AI","resources/audio/wordStim/S9_AI_30_bxa_Step-6.wav","S9","30","bxa","6","CN","1","1","true"
"null","","fixation","html-keyboard-response","138","406296","0.0-8.0-0.55","5f3eeb74bfbc021a779796d2","condA","","<div class=""vertical-center"" style='width:60%;'><p style='font-weight:bold;'>Does the middle word sound more like the first word (A) or the last word (B)?</p> <br> <div class=""container""> <div id=""a-box""> <p class=""title-text"">A</h3></p> </div> <div id=""x-box""> <p class=""title-text"">X<p> </div> <div id=""b-box""> <p class=""title-text"">B</p></div> <br> <div style='float: left;padding-left:30px;'><p>Press '1' for A</p></div><div style='float: right;padding-right:30px;'><p>Press '0' for B</p> </div> </div></div>","null","","","","","","","","","","","","","",""
"3061","","test","audio-keyboard-response","139","409360","0.0-8.0-1.55","5f3eeb74bfbc021a779796d2","condA","","resources/audio/wordStim/S3_AU_16_bxa_Step-8.wav","48","","","","","AU","resources/audio/wordStim/S3_AU_16_bxa_Step-8.wav","S3","16","bxa","8","MI","1","0","false"
"null","","fixation","html-keyboard-response","140","410362","0.0-8.0-0.56","5f3eeb74bfbc021a779796d2","condA","","<div class=""vertical-center"" style='width:60%;'><p style='font-weight:bold;'>Does the middle word sound more like the first word (A) or the last word (B)?</p> <br> <div class=""container""> <div id=""a-box""> <p class=""title-text"">A</h3></p> </div> <div id=""x-box""> <p class=""title-text"">X<p> </div> <div id=""b-box""> <p class=""title-text"">B</p></div> <br> <div style='float: left;padding-left:30px;'><p>Press '1' for A</p></div><div style='float: right;padding-right:30px;'><p>Press '0' for B</p> </div> </div></div>","null","","","","","","","","","","","","","",""
"2520","","test","audio-keyboard-response","141","412882","0.0-8.0-1.56","5f3eeb74bfbc021a779796d2","condA","","resources/audio/wordStim/S3_AU_20_axb_Step-5.wav","48","","","","","AU","resources/audio/wordStim/S3_AU_20_axb_Step-5.wav","S3","20","axb","5","MI","0","0","true"
"null","","fixation","html-keyboard-response","142","413884","0.0-8.0-0.57","5f3eeb74bfbc021a779796d2","condA","","<div class=""vertical-center"" style='width:60%;'><p style='font-weight:bold;'>Does the middle word sound more like the first word (A) or the last word (B)?</p> <br> <div class=""container""> <div id=""a-box""> <p class=""title-text"">A</h3></p> </div> <div id=""x-box""> <p class=""title-text"">X<p> </div> <div id=""b-box""> <p class=""title-text"">B</p></div> <br> <div style='float: left;padding-left:30px;'><p>Press '1' for A</p></div><div style='float: right;padding-right:30px;'><p>Press '0' for B</p> </div> </div></div>","null","","","","","","","","","","","","","",""
"3488","","test","audio-keyboard-response","143","417381","0.0-8.0-1.57","5f3eeb74bfbc021a779796d2","condA","","resources/audio/wordStim/S9_AI_22_bxa_Step-6.wav","49","","","","","AI","resources/audio/wordStim/S9_AI_22_bxa_Step-6.wav","S9","22","bxa","6","CN","1","1","true"
"null","","fixation","html-keyboard-response","144","418385","0.0-8.0-0.58","5f3eeb74bfbc021a779796d2","condA","","<div class=""vertical-center"" style='width:60%;'><p style='font-weight:bold;'>Does the middle word sound more like the first word (A) or the last word (B)?</p> <br> <div class=""container""> <div id=""a-box""> <p class=""title-text"">A</h3></p> </div> <div id=""x-box""> <p class=""title-text"">X<p> </div> <div id=""b-box""> <p class=""title-text"">B</p></div> <br> <div style='float: left;padding-left:30px;'><p>Press '1' for A</p></div><div style='float: right;padding-right:30px;'><p>Press '0' for B</p> </div> </div></div>","null","","","","","","","","","","","","","",""
"2731","","test","audio-keyboard-response","145","421124","0.0-8.0-1.58","5f3eeb74bfbc021a779796d2","condA","","resources/audio/wordStim/S9_AU_13_bxa_Step-4.wav","48","","","","","AU","resources/audio/wordStim/S9_AU_13_bxa_Step-4.wav","S9","13","bxa","4","CN","1","0","false"
"null","","fixation","html-keyboard-response","146","422126","0.0-8.0-0.59","5f3eeb74bfbc021a779796d2","condA","","<div class=""vertical-center"" style='width:60%;'><p style='font-weight:bold;'>Does the middle word sound more like the first word (A) or the last word (B)?</p> <br> <div class=""container""> <div id=""a-box""> <p class=""title-text"">A</h3></p> </div> <div id=""x-box""> <p class=""title-text"">X<p> </div> <div id=""b-box""> <p class=""title-text"">B</p></div> <br> <div style='float: left;padding-left:30px;'><p>Press '1' for A</p></div><div style='float: right;padding-right:30px;'><p>Press '0' for B</p> </div> </div></div>","null","","","","","","","","","","","","","",""
"2469","","test","audio-keyboard-response","147","424598","0.0-8.0-1.59","5f3eeb74bfbc021a779796d2","condA","","resources/audio/wordStim/S9_AU_16_bxa_Step-4.wav","49","","","","","AU","resources/audio/wordStim/S9_AU_16_bxa_Step-4.wav","S9","16","bxa","4","CN","1","1","true"
"null","","fixation","html-keyboard-response","148","425600","0.0-8.0-0.60","5f3eeb74bfbc021a779796d2","condA","","<div class=""vertical-center"" style='width:60%;'><p style='font-weight:bold;'>Does the middle word sound more like the first word (A) or the last word (B)?</p> <br> <div class=""container""> <div id=""a-box""> <p class=""title-text"">A</h3></p> </div> <div id=""x-box""> <p class=""title-text"">X<p> </div> <div id=""b-box""> <p class=""title-text"">B</p></div> <br> <div style='float: left;padding-left:30px;'><p>Press '1' for A</p></div><div style='float: right;padding-right:30px;'><p>Press '0' for B</p> </div> </div></div>","null","","","","","","","","","","","","","",""
"2699","","test","audio-keyboard-response","149","428297","0.0-8.0-1.60","5f3eeb74bfbc021a779796d2","condA","","resources/audio/wordStim/S9_AU_14_axb_Step-3.wav","49","","","","","AU","resources/audio/wordStim/S9_AU_14_axb_Step-3.wav","S9","14","axb","3","CN","0","1","false"
"null","","fixation","html-keyboard-response","150","429300","0.0-8.0-0.61","5f3eeb74bfbc021a779796d2","condA","","<div class=""vertical-center"" style='width:60%;'><p style='font-weight:bold;'>Does the middle word sound more like the first word (A) or the last word (B)?</p> <br> <div class=""container""> <div id=""a-box""> <p class=""title-text"">A</h3></p> </div> <div id=""x-box""> <p class=""title-text"">X<p> </div> <div id=""b-box""> <p class=""title-text"">B</p></div> <br> <div style='float: left;padding-left:30px;'><p>Press '1' for A</p></div><div style='float: right;padding-right:30px;'><p>Press '0' for B</p> </div> </div></div>","null","","","","","","","","","","","","","",""
"2501","","test","audio-keyboard-response","151","431796","0.0-8.0-1.61","5f3eeb74bfbc021a779796d2","condA","","resources/audio/wordStim/S9_AU_14_axb_Step-10.wav","48","","","","","AU","resources/audio/wordStim/S9_AU_14_axb_Step-10.wav","S9","14","axb","10","CN","0","0","true"
"null","","fixation","html-keyboard-response","152","432799","0.0-8.0-0.62","5f3eeb74bfbc021a779796d2","condA","","<div class=""vertical-center"" style='width:60%;'><p style='font-weight:bold;'>Does the middle word sound more like the first word (A) or the last word (B)?</p> <br> <div class=""container""> <div id=""a-box""> <p class=""title-text"">A</h3></p> </div> <div id=""x-box""> <p class=""title-text"">X<p> </div> <div id=""b-box""> <p class=""title-text"">B</p></div> <br> <div style='float: left;padding-left:30px;'><p>Press '1' for A</p></div><div style='float: right;padding-right:30px;'><p>Press '0' for B</p> </div> </div></div>","null","","","","","","","","","","","","","",""
"3051","","test","audio-keyboard-response","153","435855","0.0-8.0-1.62","5f3eeb74bfbc021a779796d2","condA","","resources/audio/wordStim/S9_AI_30_axb_Step-5.wav","49","","","","","AI","resources/audio/wordStim/S9_AI_30_axb_Step-5.wav","S9","30","axb","5","CN","0","1","false"
"null","","fixation","html-keyboard-response","154","436859","0.0-8.0-0.63","5f3eeb74bfbc021a779796d2","condA","","<div class=""vertical-center"" style='width:60%;'><p style='font-weight:bold;'>Does the middle word sound more like the first word (A) or the last word (B)?</p> <br> <div class=""container""> <div id=""a-box""> <p class=""title-text"">A</h3></p> </div> <div id=""x-box""> <p class=""title-text"">X<p> </div> <div id=""b-box""> <p class=""title-text"">B</p></div> <br> <div style='float: left;padding-left:30px;'><p>Press '1' for A</p></div><div style='float: right;padding-right:30px;'><p>Press '0' for B</p> </div> </div></div>","null","","","","","","","","","","","","","",""
"3091","","test","audio-keyboard-response","155","439948","0.0-8.0-1.63","5f3eeb74bfbc021a779796d2","condA","","resources/audio/wordStim/S9_AI_27_axb_Step-10.wav","48","","","","","AI","resources/audio/wordStim/S9_AI_27_axb_Step-10.wav","S9","27","axb","10","CN","0","0","true"
"null","","fixation","html-keyboard-response","156","440950","0.0-8.0-0.64","5f3eeb74bfbc021a779796d2","condA","","<div class=""vertical-center"" style='width:60%;'><p style='font-weight:bold;'>Does the middle word sound more like the first word (A) or the last word (B)?</p> <br> <div class=""container""> <div id=""a-box""> <p class=""title-text"">A</h3></p> </div> <div id=""x-box""> <p class=""title-text"">X<p> </div> <div id=""b-box""> <p class=""title-text"">B</p></div> <br> <div style='float: left;padding-left:30px;'><p>Press '1' for A</p></div><div style='float: right;padding-right:30px;'><p>Press '0' for B</p> </div> </div></div>","null","","","","","","","","","","","","","",""
"2869","","test","audio-keyboard-response","157","443819","0.0-8.0-1.64","5f3eeb74bfbc021a779796d2","condA","","resources/audio/wordStim/S9_AI_22_axb_Step-10.wav","48","","","","","AI","resources/audio/wordStim/S9_AI_22_axb_Step-10.wav","S9","22","axb","10","CN","0","0","true"
"null","","fixation","html-keyboard-response","158","444823","0.0-8.0-0.65","5f3eeb74bfbc021a779796d2","condA","","<div class=""vertical-center"" style='width:60%;'><p style='font-weight:bold;'>Does the middle word sound more like the first word (A) or the last word (B)?</p> <br> <div class=""container""> <div id=""a-box""> <p class=""title-text"">A</h3></p> </div> <div id=""x-box""> <p class=""title-text"">X<p> </div> <div id=""b-box""> <p class=""title-text"">B</p></div> <br> <div style='float: left;padding-left:30px;'><p>Press '1' for A</p></div><div style='float: right;padding-right:30px;'><p>Press '0' for B</p> </div> </div></div>","null","","","","","","","","","","","","","",""
"2600","","test","audio-keyboard-response","159","447418","0.0-8.0-1.65","5f3eeb74bfbc021a779796d2","condA","","resources/audio/wordStim/S3_AI_30_axb_Step-10.wav","48","","","","","AI","resources/audio/wordStim/S3_AI_30_axb_Step-10.wav","S3","30","axb","10","MI","0","0","true"
"null","","fixation","html-keyboard-response","160","448420","0.0-8.0-0.66","5f3eeb74bfbc021a779796d2","condA","","<div class=""vertical-center"" style='width:60%;'><p style='font-weight:bold;'>Does the middle word sound more like the first word (A) or the last word (B)?</p> <br> <div class=""container""> <div id=""a-box""> <p class=""title-text"">A</h3></p> </div> <div id=""x-box""> <p class=""title-text"">X<p> </div> <div id=""b-box""> <p class=""title-text"">B</p></div> <br> <div style='float: left;padding-left:30px;'><p>Press '1' for A</p></div><div style='float: right;padding-right:30px;'><p>Press '0' for B</p> </div> </div></div>","null","","","","","","","","","","","","","",""
"2821","","test","audio-keyboard-response","161","451240","0.0-8.0-1.66","5f3eeb74bfbc021a779796d2","condA","","resources/audio/wordStim/S3_AI_22_bxa_Step-4.wav","48","","","","","AI","resources/audio/wordStim/S3_AI_22_bxa_Step-4.wav","S3","22","bxa","4","MI","1","0","false"
"null","","fixation","html-keyboard-response","162","452242","0.0-8.0-0.67","5f3eeb74bfbc021a779796d2","condA","","<div class=""vertical-center"" style='width:60%;'><p style='font-weight:bold;'>Does the middle word sound more like the first word (A) or the last word (B)?</p> <br> <div class=""container""> <div id=""a-box""> <p class=""title-text"">A</h3></p> </div> <div id=""x-box""> <p class=""title-text"">X<p> </div> <div id=""b-box""> <p class=""title-text"">B</p></div> <br> <div style='float: left;padding-left:30px;'><p>Press '1' for A</p></div><div style='float: right;padding-right:30px;'><p>Press '0' for B</p> </div> </div></div>","null","","","","","","","","","","","","","",""
"2789","","test","audio-keyboard-response","163","455033","0.0-8.0-1.67","5f3eeb74bfbc021a779796d2","condA","","resources/audio/wordStim/S9_AI_23_bxa_Step-6.wav","48","","","","","AI","resources/audio/wordStim/S9_AI_23_bxa_Step-6.wav","S9","23","bxa","6","CN","1","0","false"
"null","","fixation","html-keyboard-response","164","456036","0.0-8.0-0.68","5f3eeb74bfbc021a779796d2","condA","","<div class=""vertical-center"" style='width:60%;'><p style='font-weight:bold;'>Does the middle word sound more like the first word (A) or the last word (B)?</p> <br> <div class=""container""> <div id=""a-box""> <p class=""title-text"">A</h3></p> </div> <div id=""x-box""> <p class=""title-text"">X<p> </div> <div id=""b-box""> <p class=""title-text"">B</p></div> <br> <div style='float: left;padding-left:30px;'><p>Press '1' for A</p></div><div style='float: right;padding-right:30px;'><p>Press '0' for B</p> </div> </div></div>","null","","","","","","","","","","","","","",""
"2229","","test","audio-keyboard-response","165","458268","0.0-8.0-1.68","5f3eeb74bfbc021a779796d2","condA","","resources/audio/wordStim/S3_AU_14_bxa_Step-8.wav","48","","","","","AU","resources/audio/wordStim/S3_AU_14_bxa_Step-8.wav","S3","14","bxa","8","MI","1","0","false"
"null","","fixation","html-keyboard-response","166","459271","0.0-8.0-0.69","5f3eeb74bfbc021a779796d2","condA","","<div class=""vertical-center"" style='width:60%;'><p style='font-weight:bold;'>Does the middle word sound more like the first word (A) or the last word (B)?</p> <br> <div class=""container""> <div id=""a-box""> <p class=""title-text"">A</h3></p> </div> <div id=""x-box""> <p class=""title-text"">X<p> </div> <div id=""b-box""> <p class=""title-text"">B</p></div> <br> <div style='float: left;padding-left:30px;'><p>Press '1' for A</p></div><div style='float: right;padding-right:30px;'><p>Press '0' for B</p> </div> </div></div>","null","","","","","","","","","","","","","",""
"2909","","test","audio-keyboard-response","167","462180","0.0-8.0-1.69","5f3eeb74bfbc021a779796d2","condA","","resources/audio/wordStim/S9_AI_22_bxa_Step-2.wav","49","","","","","AI","resources/audio/wordStim/S9_AI_22_bxa_Step-2.wav","S9","22","bxa","2","CN","1","1","true"
"null","","fixation","html-keyboard-response","168","463183","0.0-8.0-0.70","5f3eeb74bfbc021a779796d2","condA","","<div class=""vertical-center"" style='width:60%;'><p style='font-weight:bold;'>Does the middle word sound more like the first word (A) or the last word (B)?</p> <br> <div class=""container""> <div id=""a-box""> <p class=""title-text"">A</h3></p> </div> <div id=""x-box""> <p class=""title-text"">X<p> </div> <div id=""b-box""> <p class=""title-text"">B</p></div> <br> <div style='float: left;padding-left:30px;'><p>Press '1' for A</p></div><div style='float: right;padding-right:30px;'><p>Press '0' for B</p> </div> </div></div>","null","","","","","","","","","","","","","",""
"2112","","test","audio-keyboard-response","169","465293","0.0-8.0-1.70","5f3eeb74bfbc021a779796d2","condA","","resources/audio/wordStim/S3_AI_25_axb_Step-9.wav","48","","","","","AI","resources/audio/wordStim/S3_AI_25_axb_Step-9.wav","S3","25","axb","9","MI","0","0","true"
"null","","fixation","html-keyboard-response","170","466297","0.0-8.0-0.71","5f3eeb74bfbc021a779796d2","condA","","<div class=""vertical-center"" style='width:60%;'><p style='font-weight:bold;'>Does the middle word sound more like the first word (A) or the last word (B)?</p> <br> <div class=""container""> <div id=""a-box""> <p class=""title-text"">A</h3></p> </div> <div id=""x-box""> <p class=""title-text"">X<p> </div> <div id=""b-box""> <p class=""title-text"">B</p></div> <br> <div style='float: left;padding-left:30px;'><p>Press '1' for A</p></div><div style='float: right;padding-right:30px;'><p>Press '0' for B</p> </div> </div></div>","null","","","","","","","","","","","","","",""
"2661","","test","audio-keyboard-response","171","468964","0.0-8.0-1.71","5f3eeb74bfbc021a779796d2","condA","","resources/audio/wordStim/S9_AI_27_bxa_Step-4.wav","49","","","","","AI","resources/audio/wordStim/S9_AI_27_bxa_Step-4.wav","S9","27","bxa","4","CN","1","1","true"
"null","","fixation","html-keyboard-response","172","469966","0.0-8.0-0.72","5f3eeb74bfbc021a779796d2","condA","","<div class=""vertical-center"" style='width:60%;'><p style='font-weight:bold;'>Does the middle word sound more like the first word (A) or the last word (B)?</p> <br> <div class=""container""> <div id=""a-box""> <p class=""title-text"">A</h3></p> </div> <div id=""x-box""> <p class=""title-text"">X<p> </div> <div id=""b-box""> <p class=""title-text"">B</p></div> <br> <div style='float: left;padding-left:30px;'><p>Press '1' for A</p></div><div style='float: right;padding-right:30px;'><p>Press '0' for B</p> </div> </div></div>","null","","","","","","","","","","","","","",""
"2709","","test","audio-keyboard-response","173","472680","0.0-8.0-1.72","5f3eeb74bfbc021a779796d2","condA","","resources/audio/wordStim/S3_AI_29_axb_Step-10.wav","48","","","","","AI","resources/audio/wordStim/S3_AI_29_axb_Step-10.wav","S3","29","axb","10","MI","0","0","true"
"null","","fixation","html-keyboard-response","174","473683","0.0-8.0-0.73","5f3eeb74bfbc021a779796d2","condA","","<div class=""vertical-center"" style='width:60%;'><p style='font-weight:bold;'>Does the middle word sound more like the first word (A) or the last word (B)?</p> <br> <div class=""container""> <div id=""a-box""> <p class=""title-text"">A</h3></p> </div> <div id=""x-box""> <p class=""title-text"">X<p> </div> <div id=""b-box""> <p class=""title-text"">B</p></div> <br> <div style='float: left;padding-left:30px;'><p>Press '1' for A</p></div><div style='float: right;padding-right:30px;'><p>Press '0' for B</p> </div> </div></div>","null","","","","","","","","","","","","","",""
"2709","","test","audio-keyboard-response","175","476391","0.0-8.0-1.73","5f3eeb74bfbc021a779796d2","condA","","resources/audio/wordStim/S9_AU_13_bxa_Step-6.wav","49","","","","","AU","resources/audio/wordStim/S9_AU_13_bxa_Step-6.wav","S9","13","bxa","6","CN","1","1","true"
"null","","fixation","html-keyboard-response","176","477393","0.0-8.0-0.74","5f3eeb74bfbc021a779796d2","condA","","<div class=""vertical-center"" style='width:60%;'><p style='font-weight:bold;'>Does the middle word sound more like the first word (A) or the last word (B)?</p> <br> <div class=""container""> <div id=""a-box""> <p class=""title-text"">A</h3></p> </div> <div id=""x-box""> <p class=""title-text"">X<p> </div> <div id=""b-box""> <p class=""title-text"">B</p></div> <br> <div style='float: left;padding-left:30px;'><p>Press '1' for A</p></div><div style='float: right;padding-right:30px;'><p>Press '0' for B</p> </div> </div></div>","null","","","","","","","","","","","","","",""
"2549","","test","audio-keyboard-response","177","479942","0.0-8.0-1.74","5f3eeb74bfbc021a779796d2","condA","","resources/audio/wordStim/S3_AI_28_bxa_Step-2.wav","48","","","","","AI","resources/audio/wordStim/S3_AI_28_bxa_Step-2.wav","S3","28","bxa","2","MI","1","0","false"
"null","","fixation","html-keyboard-response","178","480946","0.0-8.0-0.75","5f3eeb74bfbc021a779796d2","condA","","<div class=""vertical-center"" style='width:60%;'><p style='font-weight:bold;'>Does the middle word sound more like the first word (A) or the last word (B)?</p> <br> <div class=""container""> <div id=""a-box""> <p class=""title-text"">A</h3></p> </div> <div id=""x-box""> <p class=""title-text"">X<p> </div> <div id=""b-box""> <p class=""title-text"">B</p></div> <br> <div style='float: left;padding-left:30px;'><p>Press '1' for A</p></div><div style='float: right;padding-right:30px;'><p>Press '0' for B</p> </div> </div></div>","null","","","","","","","","","","","","","",""
"2760","","test","audio-keyboard-response","179","483708","0.0-8.0-1.75","5f3eeb74bfbc021a779796d2","condA","","resources/audio/wordStim/S9_AU_11_axb_Step-9.wav","48","","","","","AU","resources/audio/wordStim/S9_AU_11_axb_Step-9.wav","S9","11","axb","9","CN","0","0","true"
"null","","fixation","html-keyboard-response","180","484709","0.0-8.0-0.76","5f3eeb74bfbc021a779796d2","condA","","<div class=""vertical-center"" style='width:60%;'><p style='font-weight:bold;'>Does the middle word sound more like the first word (A) or the last word (B)?</p> <br> <div class=""container""> <div id=""a-box""> <p class=""title-text"">A</h3></p> </div> <div id=""x-box""> <p class=""title-text"">X<p> </div> <div id=""b-box""> <p class=""title-text"">B</p></div> <br> <div style='float: left;padding-left:30px;'><p>Press '1' for A</p></div><div style='float: right;padding-right:30px;'><p>Press '0' for B</p> </div> </div></div>","null","","","","","","","","","","","","","",""
"2349","","test","audio-keyboard-response","181","487059","0.0-8.0-1.76","5f3eeb74bfbc021a779796d2","condA","","resources/audio/wordStim/S3_AI_28_axb_Step-5.wav","49","","","","","AI","resources/audio/wordStim/S3_AI_28_axb_Step-5.wav","S3","28","axb","5","MI","0","1","false"
"null","","fixation","html-keyboard-response","182","488061","0.0-8.0-0.77","5f3eeb74bfbc021a779796d2","condA","","<div class=""vertical-center"" style='width:60%;'><p style='font-weight:bold;'>Does the middle word sound more like the first word (A) or the last word (B)?</p> <br> <div class=""container""> <div id=""a-box""> <p class=""title-text"">A</h3></p> </div> <div id=""x-box""> <p class=""title-text"">X<p> </div> <div id=""b-box""> <p class=""title-text"">B</p></div> <br> <div style='float: left;padding-left:30px;'><p>Press '1' for A</p></div><div style='float: right;padding-right:30px;'><p>Press '0' for B</p> </div> </div></div>","null","","","","","","","","","","","","","",""
"2701","","test","audio-keyboard-response","183","490762","0.0-8.0-1.77","5f3eeb74bfbc021a779796d2","condA","","resources/audio/wordStim/S3_AU_19_bxa_Step-2.wav","48","","","","","AU","resources/audio/wordStim/S3_AU_19_bxa_Step-2.wav","S3","19","bxa","2","MI","1","0","false"
"null","","fixation","html-keyboard-response","184","491764","0.0-8.0-0.78","5f3eeb74bfbc021a779796d2","condA","","<div class=""vertical-center"" style='width:60%;'><p style='font-weight:bold;'>Does the middle word sound more like the first word (A) or the last word (B)?</p> <br> <div class=""container""> <div id=""a-box""> <p class=""title-text"">A</h3></p> </div> <div id=""x-box""> <p class=""title-text"">X<p> </div> <div id=""b-box""> <p class=""title-text"">B</p></div> <br> <div style='float: left;padding-left:30px;'><p>Press '1' for A</p></div><div style='float: right;padding-right:30px;'><p>Press '0' for B</p> </div> </div></div>","null","","","","","","","","","","","","","",""
"2888","","test","audio-keyboard-response","185","494662","0.0-8.0-1.78","5f3eeb74bfbc021a779796d2","condA","","resources/audio/wordStim/S3_AI_22_bxa_Step-6.wav","48","","","","","AI","resources/audio/wordStim/S3_AI_22_bxa_Step-6.wav","S3","22","bxa","6","MI","1","0","false"
"null","","fixation","html-keyboard-response","186","495664","0.0-8.0-0.79","5f3eeb74bfbc021a779796d2","condA","","<div class=""vertical-center"" style='width:60%;'><p style='font-weight:bold;'>Does the middle word sound more like the first word (A) or the last word (B)?</p> <br> <div class=""container""> <div id=""a-box""> <p class=""title-text"">A</h3></p> </div> <div id=""x-box""> <p class=""title-text"">X<p> </div> <div id=""b-box""> <p class=""title-text"">B</p></div> <br> <div style='float: left;padding-left:30px;'><p>Press '1' for A</p></div><div style='float: right;padding-right:30px;'><p>Press '0' for B</p> </div> </div></div>","null","","","","","","","","","","","","","",""
"2909","","test","audio-keyboard-response","187","498576","0.0-8.0-1.79","5f3eeb74bfbc021a779796d2","condA","","resources/audio/wordStim/S9_AU_19_axb_Step-5.wav","48","","","","","AU","resources/audio/wordStim/S9_AU_19_axb_Step-5.wav","S9","19","axb","5","CN","0","0","true"
"null","","fixation","html-keyboard-response","188","499579","0.0-8.0-0.80","5f3eeb74bfbc021a779796d2","condA","","<div class=""vertical-center"" style='width:60%;'><p style='font-weight:bold;'>Does the middle word sound more like the first word (A) or the last word (B)?</p> <br> <div class=""container""> <div id=""a-box""> <p class=""title-text"">A</h3></p> </div> <div id=""x-box""> <p class=""title-text"">X<p> </div> <div id=""b-box""> <p class=""title-text"">B</p></div> <br> <div style='float: left;padding-left:30px;'><p>Press '1' for A</p></div><div style='float: right;padding-right:30px;'><p>Press '0' for B</p> </div> </div></div>","null","","","","","","","","","","","","","",""
"2781","","test","audio-keyboard-response","189","502361","0.0-8.0-1.80","5f3eeb74bfbc021a779796d2","condA","","resources/audio/wordStim/S9_AU_20_axb_Step-3.wav","49","","","","","AU","resources/audio/wordStim/S9_AU_20_axb_Step-3.wav","S9","20","axb","3","CN","0","1","false"
"1459.1849998105317","","break","html-keyboard-response","190","504321","0.0-8.0-2.80-0.80","5f3eeb74bfbc021a779796d2","condA","","<div class=""vertical-center""><p>Feel free to take a break!</p><i>When you're ready to continue, press SPACE to begin the next trial.</i></p></div>","32","","","","","","","","","","","","","",""
"null","","fixation","html-keyboard-response","191","504823","0.0-8.0-0.81","5f3eeb74bfbc021a779796d2","condA","","<div class=""vertical-center"" style='width:60%;'><p style='font-weight:bold;'>Does the middle word sound more like the first word (A) or the last word (B)?</p> <br> <div class=""container""> <div id=""a-box""> <p class=""title-text"">A</h3></p> </div> <div id=""x-box""> <p class=""title-text"">X<p> </div> <div id=""b-box""> <p class=""title-text"">B</p></div> <br> <div style='float: left;padding-left:30px;'><p>Press '1' for A</p></div><div style='float: right;padding-right:30px;'><p>Press '0' for B</p> </div> </div></div>","null","","","","","","","","","","","","","",""
"2632","","test","audio-keyboard-response","192","507452","0.0-8.0-1.81","5f3eeb74bfbc021a779796d2","condA","","resources/audio/wordStim/S3_AI_30_bxa_Step-8.wav","49","","","","","AI","resources/audio/wordStim/S3_AI_30_bxa_Step-8.wav","S3","30","bxa","8","MI","1","1","true"
"null","","fixation","html-keyboard-response","193","508453","0.0-8.0-0.82","5f3eeb74bfbc021a779796d2","condA","","<div class=""vertical-center"" style='width:60%;'><p style='font-weight:bold;'>Does the middle word sound more like the first word (A) or the last word (B)?</p> <br> <div class=""container""> <div id=""a-box""> <p class=""title-text"">A</h3></p> </div> <div id=""x-box""> <p class=""title-text"">X<p> </div> <div id=""b-box""> <p class=""title-text"">B</p></div> <br> <div style='float: left;padding-left:30px;'><p>Press '1' for A</p></div><div style='float: right;padding-right:30px;'><p>Press '0' for B</p> </div> </div></div>","null","","","","","","","","","","","","","",""
"2549","","test","audio-keyboard-response","194","510998","0.0-8.0-1.82","5f3eeb74bfbc021a779796d2","condA","","resources/audio/wordStim/S9_AU_16_axb_Step-9.wav","48","","","","","AU","resources/audio/wordStim/S9_AU_16_axb_Step-9.wav","S9","16","axb","9","CN","0","0","true"
"null","","fixation","html-keyboard-response","195","512000","0.0-8.0-0.83","5f3eeb74bfbc021a779796d2","condA","","<div class=""vertical-center"" style='width:60%;'><p style='font-weight:bold;'>Does the middle word sound more like the first word (A) or the last word (B)?</p> <br> <div class=""container""> <div id=""a-box""> <p class=""title-text"">A</h3></p> </div> <div id=""x-box""> <p class=""title-text"">X<p> </div> <div id=""b-box""> <p class=""title-text"">B</p></div> <br> <div style='float: left;padding-left:30px;'><p>Press '1' for A</p></div><div style='float: right;padding-right:30px;'><p>Press '0' for B</p> </div> </div></div>","null","","","","","","","","","","","","","",""
"2971","","test","audio-keyboard-response","196","514971","0.0-8.0-1.83","5f3eeb74bfbc021a779796d2","condA","","resources/audio/wordStim/S3_AI_22_axb_Step-3.wav","49","","","","","AI","resources/audio/wordStim/S3_AI_22_axb_Step-3.wav","S3","22","axb","3","MI","0","1","false"
"null","","fixation","html-keyboard-response","197","515973","0.0-8.0-0.84","5f3eeb74bfbc021a779796d2","condA","","<div class=""vertical-center"" style='width:60%;'><p style='font-weight:bold;'>Does the middle word sound more like the first word (A) or the last word (B)?</p> <br> <div class=""container""> <div id=""a-box""> <p class=""title-text"">A</h3></p> </div> <div id=""x-box""> <p class=""title-text"">X<p> </div> <div id=""b-box""> <p class=""title-text"">B</p></div> <br> <div style='float: left;padding-left:30px;'><p>Press '1' for A</p></div><div style='float: right;padding-right:30px;'><p>Press '0' for B</p> </div> </div></div>","null","","","","","","","","","","","","","",""
"2648","","test","audio-keyboard-response","198","518618","0.0-8.0-1.84","5f3eeb74bfbc021a779796d2","condA","","resources/audio/wordStim/S3_AU_15_bxa_Step-2.wav","48","","","","","AU","resources/audio/wordStim/S3_AU_15_bxa_Step-2.wav","S3","15","bxa","2","MI","1","0","false"
"null","","fixation","html-keyboard-response","199","519620","0.0-8.0-0.85","5f3eeb74bfbc021a779796d2","condA","","<div class=""vertical-center"" style='width:60%;'><p style='font-weight:bold;'>Does the middle word sound more like the first word (A) or the last word (B)?</p> <br> <div class=""container""> <div id=""a-box""> <p class=""title-text"">A</h3></p> </div> <div id=""x-box""> <p class=""title-text"">X<p> </div> <div id=""b-box""> <p class=""title-text"">B</p></div> <br> <div style='float: left;padding-left:30px;'><p>Press '1' for A</p></div><div style='float: right;padding-right:30px;'><p>Press '0' for B</p> </div> </div></div>","null","","","","","","","","","","","","","",""
"2571","","test","audio-keyboard-response","200","522192","0.0-8.0-1.85","5f3eeb74bfbc021a779796d2","condA","","resources/audio/wordStim/S9_AU_20_axb_Step-9.wav","48","","","","","AU","resources/audio/wordStim/S9_AU_20_axb_Step-9.wav","S9","20","axb","9","CN","0","0","true"
"null","","fixation","html-keyboard-response","201","523194","0.0-8.0-0.86","5f3eeb74bfbc021a779796d2","condA","","<div class=""vertical-center"" style='width:60%;'><p style='font-weight:bold;'>Does the middle word sound more like the first word (A) or the last word (B)?</p> <br> <div class=""container""> <div id=""a-box""> <p class=""title-text"">A</h3></p> </div> <div id=""x-box""> <p class=""title-text"">X<p> </div> <div id=""b-box""> <p class=""title-text"">B</p></div> <br> <div style='float: left;padding-left:30px;'><p>Press '1' for A</p></div><div style='float: right;padding-right:30px;'><p>Press '0' for B</p> </div> </div></div>","null","","","","","","","","","","","","","",""
"3131","","test","audio-keyboard-response","202","526327","0.0-8.0-1.86","5f3eeb74bfbc021a779796d2","condA","","resources/audio/wordStim/S3_AU_16_axb_Step-5.wav","49","","","","","AU","resources/audio/wordStim/S3_AU_16_axb_Step-5.wav","S3","16","axb","5","MI","0","1","false"
"null","","fixation","html-keyboard-response","203","527331","0.0-8.0-0.87","5f3eeb74bfbc021a779796d2","condA","","<div class=""vertical-center"" style='width:60%;'><p style='font-weight:bold;'>Does the middle word sound more like the first word (A) or the last word (B)?</p> <br> <div class=""container""> <div id=""a-box""> <p class=""title-text"">A</h3></p> </div> <div id=""x-box""> <p class=""title-text"">X<p> </div> <div id=""b-box""> <p class=""title-text"">B</p></div> <br> <div style='float: left;padding-left:30px;'><p>Press '1' for A</p></div><div style='float: right;padding-right:30px;'><p>Press '0' for B</p> </div> </div></div>","null","","","","","","","","","","","","","",""
"2589","","test","audio-keyboard-response","204","529918","0.0-8.0-1.87","5f3eeb74bfbc021a779796d2","condA","","resources/audio/wordStim/S9_AI_23_bxa_Step-2.wav","48","","","","","AI","resources/audio/wordStim/S9_AI_23_bxa_Step-2.wav","S9","23","bxa","2","CN","1","0","false"
"null","","fixation","html-keyboard-response","205","530920","0.0-8.0-0.88","5f3eeb74bfbc021a779796d2","condA","","<div class=""vertical-center"" style='width:60%;'><p style='font-weight:bold;'>Does the middle word sound more like the first word (A) or the last word (B)?</p> <br> <div class=""container""> <div id=""a-box""> <p class=""title-text"">A</h3></p> </div> <div id=""x-box""> <p class=""title-text"">X<p> </div> <div id=""b-box""> <p class=""title-text"">B</p></div> <br> <div style='float: left;padding-left:30px;'><p>Press '1' for A</p></div><div style='float: right;padding-right:30px;'><p>Press '0' for B</p> </div> </div></div>","null","","","","","","","","","","","","","",""
"2571","","test","audio-keyboard-response","206","533490","0.0-8.0-1.88","5f3eeb74bfbc021a779796d2","condA","","resources/audio/wordStim/S3_AU_11_bxa_Step-4.wav","48","","","","","AU","resources/audio/wordStim/S3_AU_11_bxa_Step-4.wav","S3","11","bxa","4","MI","1","0","false"
"null","","fixation","html-keyboard-response","207","534493","0.0-8.0-0.89","5f3eeb74bfbc021a779796d2","condA","","<div class=""vertical-center"" style='width:60%;'><p style='font-weight:bold;'>Does the middle word sound more like the first word (A) or the last word (B)?</p> <br> <div class=""container""> <div id=""a-box""> <p class=""title-text"">A</h3></p> </div> <div id=""x-box""> <p class=""title-text"">X<p> </div> <div id=""b-box""> <p class=""title-text"">B</p></div> <br> <div style='float: left;padding-left:30px;'><p>Press '1' for A</p></div><div style='float: right;padding-right:30px;'><p>Press '0' for B</p> </div> </div></div>","null","","","","","","","","","","","","","",""
"2448","","test","audio-keyboard-response","208","536941","0.0-8.0-1.89","5f3eeb74bfbc021a779796d2","condA","","resources/audio/wordStim/S3_AI_28_axb_Step-9.wav","48","","","","","AI","resources/audio/wordStim/S3_AI_28_axb_Step-9.wav","S3","28","axb","9","MI","0","0","true"
"null","","fixation","html-keyboard-response","209","537942","0.0-8.0-0.90","5f3eeb74bfbc021a779796d2","condA","","<div class=""vertical-center"" style='width:60%;'><p style='font-weight:bold;'>Does the middle word sound more like the first word (A) or the last word (B)?</p> <br> <div class=""container""> <div id=""a-box""> <p class=""title-text"">A</h3></p> </div> <div id=""x-box""> <p class=""title-text"">X<p> </div> <div id=""b-box""> <p class=""title-text"">B</p></div> <br> <div style='float: left;padding-left:30px;'><p>Press '1' for A</p></div><div style='float: right;padding-right:30px;'><p>Press '0' for B</p> </div> </div></div>","null","","","","","","","","","","","","","",""
"2760","","test","audio-keyboard-response","210","540701","0.0-8.0-1.90","5f3eeb74bfbc021a779796d2","condA","","resources/audio/wordStim/S9_AU_19_bxa_Step-2.wav","48","","","","","AU","resources/audio/wordStim/S9_AU_19_bxa_Step-2.wav","S9","19","bxa","2","CN","1","0","false"
"null","","fixation","html-keyboard-response","211","541704","0.0-8.0-0.91","5f3eeb74bfbc021a779796d2","condA","","<div class=""vertical-center"" style='width:60%;'><p style='font-weight:bold;'>Does the middle word sound more like the first word (A) or the last word (B)?</p> <br> <div class=""container""> <div id=""a-box""> <p class=""title-text"">A</h3></p> </div> <div id=""x-box""> <p class=""title-text"">X<p> </div> <div id=""b-box""> <p class=""title-text"">B</p></div> <br> <div style='float: left;padding-left:30px;'><p>Press '1' for A</p></div><div style='float: right;padding-right:30px;'><p>Press '0' for B</p> </div> </div></div>","null","","","","","","","","","","","","","",""
"2949","","test","audio-keyboard-response","212","544663","0.0-8.0-1.91","5f3eeb74bfbc021a779796d2","condA","","resources/audio/wordStim/S3_AI_23_bxa_Step-8.wav","49","","","","","AI","resources/audio/wordStim/S3_AI_23_bxa_Step-8.wav","S3","23","bxa","8","MI","1","1","true"
"null","","fixation","html-keyboard-response","213","545666","0.0-8.0-0.92","5f3eeb74bfbc021a779796d2","condA","","<div class=""vertical-center"" style='width:60%;'><p style='font-weight:bold;'>Does the middle word sound more like the first word (A) or the last word (B)?</p> <br> <div class=""container""> <div id=""a-box""> <p class=""title-text"">A</h3></p> </div> <div id=""x-box""> <p class=""title-text"">X<p> </div> <div id=""b-box""> <p class=""title-text"">B</p></div> <br> <div style='float: left;padding-left:30px;'><p>Press '1' for A</p></div><div style='float: right;padding-right:30px;'><p>Press '0' for B</p> </div> </div></div>","null","","","","","","","","","","","","","",""
"2789","","test","audio-keyboard-response","214","548457","0.0-8.0-1.92","5f3eeb74bfbc021a779796d2","condA","","resources/audio/wordStim/S9_AI_24_axb_Step-7.wav","48","","","","","AI","resources/audio/wordStim/S9_AI_24_axb_Step-7.wav","S9","24","axb","7","CN","0","0","true"
