"rt","url","trial_role","trial_type","trial_index","time_elapsed","internal_node_id","participantId","condition","view_history","stimulus","key_press","button_pressed","correct_answer","correct_response","success","vowel","wordStim","speaker","sentNum","order","step","speakerIdentity","raised_answer","key_response","raised_response"
"5123","micr.con.consent.html","consent","external-html","0","5142","0.0-0.0","5f441dda761e0a72e306807d","condA","","","","","","","","","","","","","","","","",""
"3068","","instructions","instructions","1","8215","0.0-1.0","5f441dda761e0a72e306807d","condA","[{""page_index"":0,""viewing_time"":1551},{""page_index"":1,""viewing_time"":1472},{""page_index"":2,""viewing_time"":45}]","","","","","","","","","","","","","","","",""
"null","","fixation","html-keyboard-response","2","8717","0.0-2.0-0.0","5f441dda761e0a72e306807d","condA","","<div class=""vertical-center"" style=""font-size:60px;"">+</div>","null","","","","","","","","","","","","","",""
"3931","","tonetest","audio-button-response","3","12649","0.0-2.0-1.0","5f441dda761e0a72e306807d","condA","","../../src/audio/toneTest_4.wav","","1","1","true","","","","","","","","","","",""
"null","","fixation","html-keyboard-response","4","13152","0.0-2.0-0.1","5f441dda761e0a72e306807d","condA","","<div class=""vertical-center"" style=""font-size:60px;"">+</div>","null","","","","","","","","","","","","","",""
"3730","","tonetest","audio-button-response","5","16883","0.0-2.0-1.1","5f441dda761e0a72e306807d","condA","","../../src/audio/toneTest_4.wav","","1","1","true","","","","","","","","","","",""
"null","","fixation","html-keyboard-response","6","17385","0.0-2.0-0.2","5f441dda761e0a72e306807d","condA","","<div class=""vertical-center"" style=""font-size:60px;"">+</div>","null","","","","","","","","","","","","","",""
"3570","","tonetest","audio-button-response","7","20957","0.0-2.0-1.2","5f441dda761e0a72e306807d","condA","","../../src/audio/toneTest_1.wav","","2","2","true","","","","","","","","","","",""
"null","","fixation","html-keyboard-response","8","21459","0.0-2.0-0.3","5f441dda761e0a72e306807d","condA","","<div class=""vertical-center"" style=""font-size:60px;"">+</div>","null","","","","","","","","","","","","","",""
"2179","","tonetest","audio-button-response","9","23640","0.0-2.0-1.3","5f441dda761e0a72e306807d","condA","","../../src/audio/toneTest_2.wav","","1","1","true","","","","","","","","","","",""
"null","","fixation","html-keyboard-response","10","24143","0.0-2.0-0.4","5f441dda761e0a72e306807d","condA","","<div class=""vertical-center"" style=""font-size:60px;"">+</div>","null","","","","","","","","","","","","","",""
"3459","","tonetest","audio-button-response","11","27603","0.0-2.0-1.4","5f441dda761e0a72e306807d","condA","","../../src/audio/toneTest_1.wav","","2","2","true","","","","","","","","","","",""
"null","","fixation","html-keyboard-response","12","28104","0.0-2.0-0.5","5f441dda761e0a72e306807d","condA","","<div class=""vertical-center"" style=""font-size:60px;"">+</div>","null","","","","","","","","","","","","","",""
"2138","","tonetest","audio-button-response","13","30242","0.0-2.0-1.5","5f441dda761e0a72e306807d","condA","","../../src/audio/toneTest_4.wav","","1","1","true","","","","","","","","","","",""
"14102","","instructions","html-keyboard-response","14","44347","0.0-3.0","5f441dda761e0a72e306807d","condA","","<div class=""vertical-center""><p><b>Your score was 6/6.</b></p><p>If you scored below 6, please ensure that you are wearing properly functioning headphones and in a quiet location free of distractions.</p><p><i>To continue to the main experiment, press SPACE.</i></p></div>","32","","","","","","","","","","","","","",""
"","","","fullscreen","15","47789","0.0-4.0","5f441dda761e0a72e306807d","condA","","","","","","","true","","","","","","","","","",""
"2119","","instructions","instructions","16","49910","0.0-5.0","5f441dda761e0a72e306807d","condA","[{""page_index"":0,""viewing_time"":2119}]","","","","","","","","","","","","","","","",""
"null","","fixation","html-keyboard-response","17","50410","0.0-6.0-0.0","5f441dda761e0a72e306807d","condA","","<div class=""vertical-center"" style='width:60%;'><p style='font-weight:bold;'>Does the middle word sound more like the first word (A) or the last word (B)?</p> <br> <div class=""container""> <div id=""a-box""> <p class=""title-text"">A</h3></p> </div> <div id=""x-box""> <p class=""title-text"">X<p> </div> <div id=""b-box""> <p class=""title-text"">B</p></div> <br> <div style='float: left;padding-left:30px;'><p>Press '1' for A</p></div><div style='float: right;padding-right:30px;'><p>Press '0' for B</p> </div> </div></div>","null","","","","","","","","","","","","","",""
"7440","","practice","audio-keyboard-response","18","57849","0.0-6.0-1.0","5f441dda761e0a72e306807d","condA","","resources/audio/practiceStim/S1_AU_14_bxa_Step-6.wav","49","","","","","","","","","","","","","",""
"null","","fixation","html-keyboard-response","19","58851","0.0-6.0-0.1","5f441dda761e0a72e306807d","condA","","<div class=""vertical-center"" style='width:60%;'><p style='font-weight:bold;'>Does the middle word sound more like the first word (A) or the last word (B)?</p> <br> <div class=""container""> <div id=""a-box""> <p class=""title-text"">A</h3></p> </div> <div id=""x-box""> <p class=""title-text"">X<p> </div> <div id=""b-box""> <p class=""title-text"">B</p></div> <br> <div style='float: left;padding-left:30px;'><p>Press '1' for A</p></div><div style='float: right;padding-right:30px;'><p>Press '0' for B</p> </div> </div></div>","null","","","","","","","","","","","","","",""
"4229","","practice","audio-keyboard-response","20","63087","0.0-6.0-1.1","5f441dda761e0a72e306807d","condA","","resources/audio/practiceStim/S1_AI_21_axb_Step-6.wav","49","","","","","","","","","","","","","",""
"null","","fixation","html-keyboard-response","21","64089","0.0-6.0-0.2","5f441dda761e0a72e306807d","condA","","<div class=""vertical-center"" style='width:60%;'><p style='font-weight:bold;'>Does the middle word sound more like the first word (A) or the last word (B)?</p> <br> <div class=""container""> <div id=""a-box""> <p class=""title-text"">A</h3></p> </div> <div id=""x-box""> <p class=""title-text"">X<p> </div> <div id=""b-box""> <p class=""title-text"">B</p></div> <br> <div style='float: left;padding-left:30px;'><p>Press '1' for A</p></div><div style='float: right;padding-right:30px;'><p>Press '0' for B</p> </div> </div></div>","null","","","","","","","","","","","","","",""
"11499","","practice","audio-keyboard-response","22","75598","0.0-6.0-1.2","5f441dda761e0a72e306807d","condA","","resources/audio/practiceStim/S1_AU_14_axb_Step-6.wav","49","","","","","","","","","","","","","",""
"null","","fixation","html-keyboard-response","23","76599","0.0-6.0-0.3","5f441dda761e0a72e306807d","condA","","<div class=""vertical-center"" style='width:60%;'><p style='font-weight:bold;'>Does the middle word sound more like the first word (A) or the last word (B)?</p> <br> <div class=""container""> <div id=""a-box""> <p class=""title-text"">A</h3></p> </div> <div id=""x-box""> <p class=""title-text"">X<p> </div> <div id=""b-box""> <p class=""title-text"">B</p></div> <br> <div style='float: left;padding-left:30px;'><p>Press '1' for A</p></div><div style='float: right;padding-right:30px;'><p>Press '0' for B</p> </div> </div></div>","null","","","","","","","","","","","","","",""
"10400","","practice","audio-keyboard-response","24","87000","0.0-6.0-1.3","5f441dda761e0a72e306807d","condA","","resources/audio/practiceStim/S1_AI_21_bxa_Step-6.wav","48","","","","","","","","","","","","","",""
"2039","","instructions","instructions","25","89541","0.0-7.0","5f441dda761e0a72e306807d","condA","[{""page_index"":0,""viewing_time"":2039}]","","","","","","","","","","","","","","","",""
"null","","fixation","html-keyboard-response","26","90042","0.0-8.0-0.0","5f441dda761e0a72e306807d","condA","","<div class=""vertical-center"" style='width:60%;'><p style='font-weight:bold;'>Does the middle word sound more like the first word (A) or the last word (B)?</p> <br> <div class=""container""> <div id=""a-box""> <p class=""title-text"">A</h3></p> </div> <div id=""x-box""> <p class=""title-text"">X<p> </div> <div id=""b-box""> <p class=""title-text"">B</p></div> <br> <div style='float: left;padding-left:30px;'><p>Press '1' for A</p></div><div style='float: right;padding-right:30px;'><p>Press '0' for B</p> </div> </div></div>","null","","","","","","","","","","","","","",""
"4211","","test","audio-keyboard-response","27","94253","0.0-8.0-1.0","5f441dda761e0a72e306807d","condA","","resources/audio/wordStim/S9_AU_11_bxa_Step-2.wav","48","","","","","AU","resources/audio/wordStim/S9_AU_11_bxa_Step-2.wav","S9","11","bxa","2","CN","1","0","false"
"null","","fixation","html-keyboard-response","28","95255","0.0-8.0-0.1","5f441dda761e0a72e306807d","condA","","<div class=""vertical-center"" style='width:60%;'><p style='font-weight:bold;'>Does the middle word sound more like the first word (A) or the last word (B)?</p> <br> <div class=""container""> <div id=""a-box""> <p class=""title-text"">A</h3></p> </div> <div id=""x-box""> <p class=""title-text"">X<p> </div> <div id=""b-box""> <p class=""title-text"">B</p></div> <br> <div style='float: left;padding-left:30px;'><p>Press '1' for A</p></div><div style='float: right;padding-right:30px;'><p>Press '0' for B</p> </div> </div></div>","null","","","","","","","","","","","","","",""
"4979","","test","audio-keyboard-response","29","100237","0.0-8.0-1.1","5f441dda761e0a72e306807d","condA","","resources/audio/wordStim/S9_AI_22_axb_Step-7.wav","49","","","","","AI","resources/audio/wordStim/S9_AI_22_axb_Step-7.wav","S9","22","axb","7","CN","0","1","false"
"null","","fixation","html-keyboard-response","30","101239","0.0-8.0-0.2","5f441dda761e0a72e306807d","condA","","<div class=""vertical-center"" style='width:60%;'><p style='font-weight:bold;'>Does the middle word sound more like the first word (A) or the last word (B)?</p> <br> <div class=""container""> <div id=""a-box""> <p class=""title-text"">A</h3></p> </div> <div id=""x-box""> <p class=""title-text"">X<p> </div> <div id=""b-box""> <p class=""title-text"">B</p></div> <br> <div style='float: left;padding-left:30px;'><p>Press '1' for A</p></div><div style='float: right;padding-right:30px;'><p>Press '0' for B</p> </div> </div></div>","null","","","","","","","","","","","","","",""
"3981","","test","audio-keyboard-response","31","105224","0.0-8.0-1.2","5f441dda761e0a72e306807d","condA","","resources/audio/wordStim/S3_AU_17_bxa_Step-6.wav","49","","","","","AU","resources/audio/wordStim/S3_AU_17_bxa_Step-6.wav","S3","17","bxa","6","MI","1","1","true"
"null","","fixation","html-keyboard-response","32","106226","0.0-8.0-0.3","5f441dda761e0a72e306807d","condA","","<div class=""vertical-center"" style='width:60%;'><p style='font-weight:bold;'>Does the middle word sound more like the first word (A) or the last word (B)?</p> <br> <div class=""container""> <div id=""a-box""> <p class=""title-text"">A</h3></p> </div> <div id=""x-box""> <p class=""title-text"">X<p> </div> <div id=""b-box""> <p class=""title-text"">B</p></div> <br> <div style='float: left;padding-left:30px;'><p>Press '1' for A</p></div><div style='float: right;padding-right:30px;'><p>Press '0' for B</p> </div> </div></div>","null","","","","","","","","","","","","","",""
"3160","","test","audio-keyboard-response","33","109379","0.0-8.0-1.3","5f441dda761e0a72e306807d","condA","","resources/audio/wordStim/S3_AI_30_bxa_Step-8.wav","49","","","","","AI","resources/audio/wordStim/S3_AI_30_bxa_Step-8.wav","S3","30","bxa","8","MI","1","1","true"
"null","","fixation","html-keyboard-response","34","110382","0.0-8.0-0.4","5f441dda761e0a72e306807d","condA","","<div class=""vertical-center"" style='width:60%;'><p style='font-weight:bold;'>Does the middle word sound more like the first word (A) or the last word (B)?</p> <br> <div class=""container""> <div id=""a-box""> <p class=""title-text"">A</h3></p> </div> <div id=""x-box""> <p class=""title-text"">X<p> </div> <div id=""b-box""> <p class=""title-text"">B</p></div> <br> <div style='float: left;padding-left:30px;'><p>Press '1' for A</p></div><div style='float: right;padding-right:30px;'><p>Press '0' for B</p> </div> </div></div>","null","","","","","","","","","","","","","",""
"3269","","test","audio-keyboard-response","35","113656","0.0-8.0-1.4","5f441dda761e0a72e306807d","condA","","resources/audio/wordStim/S3_AI_25_axb_Step-7.wav","48","","","","","AI","resources/audio/wordStim/S3_AI_25_axb_Step-7.wav","S3","25","axb","7","MI","0","0","true"
"null","","fixation","html-keyboard-response","36","114660","0.0-8.0-0.5","5f441dda761e0a72e306807d","condA","","<div class=""vertical-center"" style='width:60%;'><p style='font-weight:bold;'>Does the middle word sound more like the first word (A) or the last word (B)?</p> <br> <div class=""container""> <div id=""a-box""> <p class=""title-text"">A</h3></p> </div> <div id=""x-box""> <p class=""title-text"">X<p> </div> <div id=""b-box""> <p class=""title-text"">B</p></div> <br> <div style='float: left;padding-left:30px;'><p>Press '1' for A</p></div><div style='float: right;padding-right:30px;'><p>Press '0' for B</p> </div> </div></div>","null","","","","","","","","","","","","","",""
"3560","","test","audio-keyboard-response","37","118226","0.0-8.0-1.5","5f441dda761e0a72e306807d","condA","","resources/audio/wordStim/S3_AI_30_axb_Step-7.wav","48","","","","","AI","resources/audio/wordStim/S3_AI_30_axb_Step-7.wav","S3","30","axb","7","MI","0","0","true"
"null","","fixation","html-keyboard-response","38","119229","0.0-8.0-0.6","5f441dda761e0a72e306807d","condA","","<div class=""vertical-center"" style='width:60%;'><p style='font-weight:bold;'>Does the middle word sound more like the first word (A) or the last word (B)?</p> <br> <div class=""container""> <div id=""a-box""> <p class=""title-text"">A</h3></p> </div> <div id=""x-box""> <p class=""title-text"">X<p> </div> <div id=""b-box""> <p class=""title-text"">B</p></div> <br> <div style='float: left;padding-left:30px;'><p>Press '1' for A</p></div><div style='float: right;padding-right:30px;'><p>Press '0' for B</p> </div> </div></div>","null","","","","","","","","","","","","","",""
"2792","","test","audio-keyboard-response","39","122026","0.0-8.0-1.6","5f441dda761e0a72e306807d","condA","","resources/audio/wordStim/S9_AU_20_axb_Step-3.wav","49","","","","","AU","resources/audio/wordStim/S9_AU_20_axb_Step-3.wav","S9","20","axb","3","CN","0","1","false"
"null","","fixation","html-keyboard-response","40","123028","0.0-8.0-0.7","5f441dda761e0a72e306807d","condA","","<div class=""vertical-center"" style='width:60%;'><p style='font-weight:bold;'>Does the middle word sound more like the first word (A) or the last word (B)?</p> <br> <div class=""container""> <div id=""a-box""> <p class=""title-text"">A</h3></p> </div> <div id=""x-box""> <p class=""title-text"">X<p> </div> <div id=""b-box""> <p class=""title-text"">B</p></div> <br> <div style='float: left;padding-left:30px;'><p>Press '1' for A</p></div><div style='float: right;padding-right:30px;'><p>Press '0' for B</p> </div> </div></div>","null","","","","","","","","","","","","","",""
"3571","","test","audio-keyboard-response","41","126607","0.0-8.0-1.7","5f441dda761e0a72e306807d","condA","","resources/audio/wordStim/S9_AI_30_bxa_Step-2.wav","48","","","","","AI","resources/audio/wordStim/S9_AI_30_bxa_Step-2.wav","S9","30","bxa","2","CN","1","0","false"
"null","","fixation","html-keyboard-response","42","127609","0.0-8.0-0.8","5f441dda761e0a72e306807d","condA","","<div class=""vertical-center"" style='width:60%;'><p style='font-weight:bold;'>Does the middle word sound more like the first word (A) or the last word (B)?</p> <br> <div class=""container""> <div id=""a-box""> <p class=""title-text"">A</h3></p> </div> <div id=""x-box""> <p class=""title-text"">X<p> </div> <div id=""b-box""> <p class=""title-text"">B</p></div> <br> <div style='float: left;padding-left:30px;'><p>Press '1' for A</p></div><div style='float: right;padding-right:30px;'><p>Press '0' for B</p> </div> </div></div>","null","","","","","","","","","","","","","",""
"3331","","test","audio-keyboard-response","43","130942","0.0-8.0-1.8","5f441dda761e0a72e306807d","condA","","resources/audio/wordStim/S9_AU_18_bxa_Step-4.wav","48","","","","","AU","resources/audio/wordStim/S9_AU_18_bxa_Step-4.wav","S9","18","bxa","4","CN","1","0","false"
"null","","fixation","html-keyboard-response","44","131945","0.0-8.0-0.9","5f441dda761e0a72e306807d","condA","","<div class=""vertical-center"" style='width:60%;'><p style='font-weight:bold;'>Does the middle word sound more like the first word (A) or the last word (B)?</p> <br> <div class=""container""> <div id=""a-box""> <p class=""title-text"">A</h3></p> </div> <div id=""x-box""> <p class=""title-text"">X<p> </div> <div id=""b-box""> <p class=""title-text"">B</p></div> <br> <div style='float: left;padding-left:30px;'><p>Press '1' for A</p></div><div style='float: right;padding-right:30px;'><p>Press '0' for B</p> </div> </div></div>","null","","","","","","","","","","","","","",""
"2859","","test","audio-keyboard-response","45","134802","0.0-8.0-1.9","5f441dda761e0a72e306807d","condA","","resources/audio/wordStim/S9_AU_17_bxa_Step-4.wav","49","","","","","AU","resources/audio/wordStim/S9_AU_17_bxa_Step-4.wav","S9","17","bxa","4","CN","1","1","true"
"null","","fixation","html-keyboard-response","46","135805","0.0-8.0-0.10","5f441dda761e0a72e306807d","condA","","<div class=""vertical-center"" style='width:60%;'><p style='font-weight:bold;'>Does the middle word sound more like the first word (A) or the last word (B)?</p> <br> <div class=""container""> <div id=""a-box""> <p class=""title-text"">A</h3></p> </div> <div id=""x-box""> <p class=""title-text"">X<p> </div> <div id=""b-box""> <p class=""title-text"">B</p></div> <br> <div style='float: left;padding-left:30px;'><p>Press '1' for A</p></div><div style='float: right;padding-right:30px;'><p>Press '0' for B</p> </div> </div></div>","null","","","","","","","","","","","","","",""
"2549","","test","audio-keyboard-response","47","138355","0.0-8.0-1.10","5f441dda761e0a72e306807d","condA","","resources/audio/wordStim/S9_AU_16_bxa_Step-4.wav","48","","","","","AU","resources/audio/wordStim/S9_AU_16_bxa_Step-4.wav","S9","16","bxa","4","CN","1","0","false"
"null","","fixation","html-keyboard-response","48","139357","0.0-8.0-0.11","5f441dda761e0a72e306807d","condA","","<div class=""vertical-center"" style='width:60%;'><p style='font-weight:bold;'>Does the middle word sound more like the first word (A) or the last word (B)?</p> <br> <div class=""container""> <div id=""a-box""> <p class=""title-text"">A</h3></p> </div> <div id=""x-box""> <p class=""title-text"">X<p> </div> <div id=""b-box""> <p class=""title-text"">B</p></div> <br> <div style='float: left;padding-left:30px;'><p>Press '1' for A</p></div><div style='float: right;padding-right:30px;'><p>Press '0' for B</p> </div> </div></div>","null","","","","","","","","","","","","","",""
"3331","","test","audio-keyboard-response","49","142686","0.0-8.0-1.11","5f441dda761e0a72e306807d","condA","","resources/audio/wordStim/S9_AI_29_bxa_Step-4.wav","49","","","","","AI","resources/audio/wordStim/S9_AI_29_bxa_Step-4.wav","S9","29","bxa","4","CN","1","1","true"
"null","","fixation","html-keyboard-response","50","143688","0.0-8.0-0.12","5f441dda761e0a72e306807d","condA","","<div class=""vertical-center"" style='width:60%;'><p style='font-weight:bold;'>Does the middle word sound more like the first word (A) or the last word (B)?</p> <br> <div class=""container""> <div id=""a-box""> <p class=""title-text"">A</h3></p> </div> <div id=""x-box""> <p class=""title-text"">X<p> </div> <div id=""b-box""> <p class=""title-text"">B</p></div> <br> <div style='float: left;padding-left:30px;'><p>Press '1' for A</p></div><div style='float: right;padding-right:30px;'><p>Press '0' for B</p> </div> </div></div>","null","","","","","","","","","","","","","",""
"3389","","test","audio-keyboard-response","51","147081","0.0-8.0-1.12","5f441dda761e0a72e306807d","condA","","resources/audio/wordStim/S9_AI_22_axb_Step-10.wav","48","","","","","AI","resources/audio/wordStim/S9_AI_22_axb_Step-10.wav","S9","22","axb","10","CN","0","0","true"
"null","","fixation","html-keyboard-response","52","148085","0.0-8.0-0.13","5f441dda761e0a72e306807d","condA","","<div class=""vertical-center"" style='width:60%;'><p style='font-weight:bold;'>Does the middle word sound more like the first word (A) or the last word (B)?</p> <br> <div class=""container""> <div id=""a-box""> <p class=""title-text"">A</h3></p> </div> <div id=""x-box""> <p class=""title-text"">X<p> </div> <div id=""b-box""> <p class=""title-text"">B</p></div> <br> <div style='float: left;padding-left:30px;'><p>Press '1' for A</p></div><div style='float: right;padding-right:30px;'><p>Press '0' for B</p> </div> </div></div>","null","","","","","","","","","","","","","",""
"3560","","test","audio-keyboard-response","53","151643","0.0-8.0-1.13","5f441dda761e0a72e306807d","condA","","resources/audio/wordStim/S9_AI_22_bxa_Step-2.wav","48","","","","","AI","resources/audio/wordStim/S9_AI_22_bxa_Step-2.wav","S9","22","bxa","2","CN","1","0","false"
"null","","fixation","html-keyboard-response","54","152644","0.0-8.0-0.14","5f441dda761e0a72e306807d","condA","","<div class=""vertical-center"" style='width:60%;'><p style='font-weight:bold;'>Does the middle word sound more like the first word (A) or the last word (B)?</p> <br> <div class=""container""> <div id=""a-box""> <p class=""title-text"">A</h3></p> </div> <div id=""x-box""> <p class=""title-text"">X<p> </div> <div id=""b-box""> <p class=""title-text"">B</p></div> <br> <div style='float: left;padding-left:30px;'><p>Press '1' for A</p></div><div style='float: right;padding-right:30px;'><p>Press '0' for B</p> </div> </div></div>","null","","","","","","","","","","","","","",""
"4731","","test","audio-keyboard-response","55","157372","0.0-8.0-1.14","5f441dda761e0a72e306807d","condA","","resources/audio/wordStim/S9_AI_27_bxa_Step-6.wav","48","","","","","AI","resources/audio/wordStim/S9_AI_27_bxa_Step-6.wav","S9","27","bxa","6","CN","1","0","false"
"null","","fixation","html-keyboard-response","56","158376","0.0-8.0-0.15","5f441dda761e0a72e306807d","condA","","<div class=""vertical-center"" style='width:60%;'><p style='font-weight:bold;'>Does the middle word sound more like the first word (A) or the last word (B)?</p> <br> <div class=""container""> <div id=""a-box""> <p class=""title-text"">A</h3></p> </div> <div id=""x-box""> <p class=""title-text"">X<p> </div> <div id=""b-box""> <p class=""title-text"">B</p></div> <br> <div style='float: left;padding-left:30px;'><p>Press '1' for A</p></div><div style='float: right;padding-right:30px;'><p>Press '0' for B</p> </div> </div></div>","null","","","","","","","","","","","","","",""
"3011","","test","audio-keyboard-response","57","161387","0.0-8.0-1.15","5f441dda761e0a72e306807d","condA","","resources/audio/wordStim/S9_AU_18_axb_Step-9.wav","48","","","","","AU","resources/audio/wordStim/S9_AU_18_axb_Step-9.wav","S9","18","axb","9","CN","0","0","true"
"null","","fixation","html-keyboard-response","58","162390","0.0-8.0-0.16","5f441dda761e0a72e306807d","condA","","<div class=""vertical-center"" style='width:60%;'><p style='font-weight:bold;'>Does the middle word sound more like the first word (A) or the last word (B)?</p> <br> <div class=""container""> <div id=""a-box""> <p class=""title-text"">A</h3></p> </div> <div id=""x-box""> <p class=""title-text"">X<p> </div> <div id=""b-box""> <p class=""title-text"">B</p></div> <br> <div style='float: left;padding-left:30px;'><p>Press '1' for A</p></div><div style='float: right;padding-right:30px;'><p>Press '0' for B</p> </div> </div></div>","null","","","","","","","","","","","","","",""
"2560","","test","audio-keyboard-response","59","164955","0.0-8.0-1.16","5f441dda761e0a72e306807d","condA","","resources/audio/wordStim/S3_AI_25_bxa_Step-4.wav","48","","","","","AI","resources/audio/wordStim/S3_AI_25_bxa_Step-4.wav","S3","25","bxa","4","MI","1","0","false"
"null","","fixation","html-keyboard-response","60","165958","0.0-8.0-0.17","5f441dda761e0a72e306807d","condA","","<div class=""vertical-center"" style='width:60%;'><p style='font-weight:bold;'>Does the middle word sound more like the first word (A) or the last word (B)?</p> <br> <div class=""container""> <div id=""a-box""> <p class=""title-text"">A</h3></p> </div> <div id=""x-box""> <p class=""title-text"">X<p> </div> <div id=""b-box""> <p class=""title-text"">B</p></div> <br> <div style='float: left;padding-left:30px;'><p>Press '1' for A</p></div><div style='float: right;padding-right:30px;'><p>Press '0' for B</p> </div> </div></div>","null","","","","","","","","","","","","","",""
"2931","","test","audio-keyboard-response","61","168894","0.0-8.0-1.17","5f441dda761e0a72e306807d","condA","","resources/audio/wordStim/S9_AU_18_bxa_Step-2.wav","48","","","","","AU","resources/audio/wordStim/S9_AU_18_bxa_Step-2.wav","S9","18","bxa","2","CN","1","0","false"
"null","","fixation","html-keyboard-response","62","169896","0.0-8.0-0.18","5f441dda761e0a72e306807d","condA","","<div class=""vertical-center"" style='width:60%;'><p style='font-weight:bold;'>Does the middle word sound more like the first word (A) or the last word (B)?</p> <br> <div class=""container""> <div id=""a-box""> <p class=""title-text"">A</h3></p> </div> <div id=""x-box""> <p class=""title-text"">X<p> </div> <div id=""b-box""> <p class=""title-text"">B</p></div> <br> <div style='float: left;padding-left:30px;'><p>Press '1' for A</p></div><div style='float: right;padding-right:30px;'><p>Press '0' for B</p> </div> </div></div>","null","","","","","","","","","","","","","",""
"3099","","test","audio-keyboard-response","63","172995","0.0-8.0-1.18","5f441dda761e0a72e306807d","condA","","resources/audio/wordStim/S9_AU_19_bxa_Step-4.wav","48","","","","","AU","resources/audio/wordStim/S9_AU_19_bxa_Step-4.wav","S9","19","bxa","4","CN","1","0","false"
"null","","fixation","html-keyboard-response","64","173997","0.0-8.0-0.19","5f441dda761e0a72e306807d","condA","","<div class=""vertical-center"" style='width:60%;'><p style='font-weight:bold;'>Does the middle word sound more like the first word (A) or the last word (B)?</p> <br> <div class=""container""> <div id=""a-box""> <p class=""title-text"">A</h3></p> </div> <div id=""x-box""> <p class=""title-text"">X<p> </div> <div id=""b-box""> <p class=""title-text"">B</p></div> <br> <div style='float: left;padding-left:30px;'><p>Press '1' for A</p></div><div style='float: right;padding-right:30px;'><p>Press '0' for B</p> </div> </div></div>","null","","","","","","","","","","","","","",""
"3712","","test","audio-keyboard-response","65","177701","0.0-8.0-1.19","5f441dda761e0a72e306807d","condA","","resources/audio/wordStim/S3_AU_17_axb_Step-5.wav","49","","","","","AU","resources/audio/wordStim/S3_AU_17_axb_Step-5.wav","S3","17","axb","5","MI","0","1","false"
"null","","fixation","html-keyboard-response","66","178704","0.0-8.0-0.20","5f441dda761e0a72e306807d","condA","","<div class=""vertical-center"" style='width:60%;'><p style='font-weight:bold;'>Does the middle word sound more like the first word (A) or the last word (B)?</p> <br> <div class=""container""> <div id=""a-box""> <p class=""title-text"">A</h3></p> </div> <div id=""x-box""> <p class=""title-text"">X<p> </div> <div id=""b-box""> <p class=""title-text"">B</p></div> <br> <div style='float: left;padding-left:30px;'><p>Press '1' for A</p></div><div style='float: right;padding-right:30px;'><p>Press '0' for B</p> </div> </div></div>","null","","","","","","","","","","","","","",""
"2819","","test","audio-keyboard-response","67","181526","0.0-8.0-1.20","5f441dda761e0a72e306807d","condA","","resources/audio/wordStim/S9_AU_13_axb_Step-10.wav","48","","","","","AU","resources/audio/wordStim/S9_AU_13_axb_Step-10.wav","S9","13","axb","10","CN","0","0","true"
"null","","fixation","html-keyboard-response","68","182527","0.0-8.0-0.21","5f441dda761e0a72e306807d","condA","","<div class=""vertical-center"" style='width:60%;'><p style='font-weight:bold;'>Does the middle word sound more like the first word (A) or the last word (B)?</p> <br> <div class=""container""> <div id=""a-box""> <p class=""title-text"">A</h3></p> </div> <div id=""x-box""> <p class=""title-text"">X<p> </div> <div id=""b-box""> <p class=""title-text"">B</p></div> <br> <div style='float: left;padding-left:30px;'><p>Press '1' for A</p></div><div style='float: right;padding-right:30px;'><p>Press '0' for B</p> </div> </div></div>","null","","","","","","","","","","","","","",""
"3389","","test","audio-keyboard-response","69","185917","0.0-8.0-1.21","5f441dda761e0a72e306807d","condA","","resources/audio/wordStim/S9_AI_24_axb_Step-10.wav","49","","","","","AI","resources/audio/wordStim/S9_AI_24_axb_Step-10.wav","S9","24","axb","10","CN","0","1","false"
"null","","fixation","html-keyboard-response","70","186920","0.0-8.0-0.22","5f441dda761e0a72e306807d","condA","","<div class=""vertical-center"" style='width:60%;'><p style='font-weight:bold;'>Does the middle word sound more like the first word (A) or the last word (B)?</p> <br> <div class=""container""> <div id=""a-box""> <p class=""title-text"">A</h3></p> </div> <div id=""x-box""> <p class=""title-text"">X<p> </div> <div id=""b-box""> <p class=""title-text"">B</p></div> <br> <div style='float: left;padding-left:30px;'><p>Press '1' for A</p></div><div style='float: right;padding-right:30px;'><p>Press '0' for B</p> </div> </div></div>","null","","","","","","","","","","","","","",""
"2571","","test","audio-keyboard-response","71","189491","0.0-8.0-1.22","5f441dda761e0a72e306807d","condA","","resources/audio/wordStim/S3_AU_15_bxa_Step-2.wav","48","","","","","AU","resources/audio/wordStim/S3_AU_15_bxa_Step-2.wav","S3","15","bxa","2","MI","1","0","false"
"null","","fixation","html-keyboard-response","72","190493","0.0-8.0-0.23","5f441dda761e0a72e306807d","condA","","<div class=""vertical-center"" style='width:60%;'><p style='font-weight:bold;'>Does the middle word sound more like the first word (A) or the last word (B)?</p> <br> <div class=""container""> <div id=""a-box""> <p class=""title-text"">A</h3></p> </div> <div id=""x-box""> <p class=""title-text"">X<p> </div> <div id=""b-box""> <p class=""title-text"">B</p></div> <br> <div style='float: left;padding-left:30px;'><p>Press '1' for A</p></div><div style='float: right;padding-right:30px;'><p>Press '0' for B</p> </div> </div></div>","null","","","","","","","","","","","","","",""
"2709","","test","audio-keyboard-response","73","193198","0.0-8.0-1.23","5f441dda761e0a72e306807d","condA","","resources/audio/wordStim/S9_AI_23_axb_Step-9.wav","48","","","","","AI","resources/audio/wordStim/S9_AI_23_axb_Step-9.wav","S9","23","axb","9","CN","0","0","true"
"null","","fixation","html-keyboard-response","74","194202","0.0-8.0-0.24","5f441dda761e0a72e306807d","condA","","<div class=""vertical-center"" style='width:60%;'><p style='font-weight:bold;'>Does the middle word sound more like the first word (A) or the last word (B)?</p> <br> <div class=""container""> <div id=""a-box""> <p class=""title-text"">A</h3></p> </div> <div id=""x-box""> <p class=""title-text"">X<p> </div> <div id=""b-box""> <p class=""title-text"">B</p></div> <br> <div style='float: left;padding-left:30px;'><p>Press '1' for A</p></div><div style='float: right;padding-right:30px;'><p>Press '0' for B</p> </div> </div></div>","null","","","","","","","","","","","","","",""
"2800","","test","audio-keyboard-response","75","196999","0.0-8.0-1.24","5f441dda761e0a72e306807d","condA","","resources/audio/wordStim/S3_AI_23_axb_Step-3.wav","49","","","","","AI","resources/audio/wordStim/S3_AI_23_axb_Step-3.wav","S3","23","axb","3","MI","0","1","false"
"null","","fixation","html-keyboard-response","76","198002","0.0-8.0-0.25","5f441dda761e0a72e306807d","condA","","<div class=""vertical-center"" style='width:60%;'><p style='font-weight:bold;'>Does the middle word sound more like the first word (A) or the last word (B)?</p> <br> <div class=""container""> <div id=""a-box""> <p class=""title-text"">A</h3></p> </div> <div id=""x-box""> <p class=""title-text"">X<p> </div> <div id=""b-box""> <p class=""title-text"">B</p></div> <br> <div style='float: left;padding-left:30px;'><p>Press '1' for A</p></div><div style='float: right;padding-right:30px;'><p>Press '0' for B</p> </div> </div></div>","null","","","","","","","","","","","","","",""
"3000","","test","audio-keyboard-response","77","200998","0.0-8.0-1.25","5f441dda761e0a72e306807d","condA","","resources/audio/wordStim/S9_AI_27_axb_Step-7.wav","48","","","","","AI","resources/audio/wordStim/S9_AI_27_axb_Step-7.wav","S9","27","axb","7","CN","0","0","true"
"null","","fixation","html-keyboard-response","78","202000","0.0-8.0-0.26","5f441dda761e0a72e306807d","condA","","<div class=""vertical-center"" style='width:60%;'><p style='font-weight:bold;'>Does the middle word sound more like the first word (A) or the last word (B)?</p> <br> <div class=""container""> <div id=""a-box""> <p class=""title-text"">A</h3></p> </div> <div id=""x-box""> <p class=""title-text"">X<p> </div> <div id=""b-box""> <p class=""title-text"">B</p></div> <br> <div style='float: left;padding-left:30px;'><p>Press '1' for A</p></div><div style='float: right;padding-right:30px;'><p>Press '0' for B</p> </div> </div></div>","null","","","","","","","","","","","","","",""
"4621","","test","audio-keyboard-response","79","206621","0.0-8.0-1.26","5f441dda761e0a72e306807d","condA","","resources/audio/wordStim/S3_AU_15_bxa_Step-4.wav","48","","","","","AU","resources/audio/wordStim/S3_AU_15_bxa_Step-4.wav","S3","15","bxa","4","MI","1","0","false"
"2145","","break","html-keyboard-response","80","209269","0.0-8.0-2.26-0.26","5f441dda761e0a72e306807d","condA","","<div class=""vertical-center""><p>Feel free to take a break!</p><i>When you're ready to continue, press SPACE to begin the next trial.</i></p></div>","32","","","","","","","","","","","","","",""
"null","","fixation","html-keyboard-response","81","209771","0.0-8.0-0.27","5f441dda761e0a72e306807d","condA","","<div class=""vertical-center"" style='width:60%;'><p style='font-weight:bold;'>Does the middle word sound more like the first word (A) or the last word (B)?</p> <br> <div class=""container""> <div id=""a-box""> <p class=""title-text"">A</h3></p> </div> <div id=""x-box""> <p class=""title-text"">X<p> </div> <div id=""b-box""> <p class=""title-text"">B</p></div> <br> <div style='float: left;padding-left:30px;'><p>Press '1' for A</p></div><div style='float: right;padding-right:30px;'><p>Press '0' for B</p> </div> </div></div>","null","","","","","","","","","","","","","",""
"3139","","test","audio-keyboard-response","82","212916","0.0-8.0-1.27","5f441dda761e0a72e306807d","condA","","resources/audio/wordStim/S9_AI_27_bxa_Step-4.wav","49","","","","","AI","resources/audio/wordStim/S9_AI_27_bxa_Step-4.wav","S9","27","bxa","4","CN","1","1","true"
"null","","fixation","html-keyboard-response","83","213921","0.0-8.0-0.28","5f441dda761e0a72e306807d","condA","","<div class=""vertical-center"" style='width:60%;'><p style='font-weight:bold;'>Does the middle word sound more like the first word (A) or the last word (B)?</p> <br> <div class=""container""> <div id=""a-box""> <p class=""title-text"">A</h3></p> </div> <div id=""x-box""> <p class=""title-text"">X<p> </div> <div id=""b-box""> <p class=""title-text"">B</p></div> <br> <div style='float: left;padding-left:30px;'><p>Press '1' for A</p></div><div style='float: right;padding-right:30px;'><p>Press '0' for B</p> </div> </div></div>","null","","","","","","","","","","","","","",""
"3051","","test","audio-keyboard-response","84","216972","0.0-8.0-1.28","5f441dda761e0a72e306807d","condA","","resources/audio/wordStim/S3_AU_15_axb_Step-5.wav","49","","","","","AU","resources/audio/wordStim/S3_AU_15_axb_Step-5.wav","S3","15","axb","5","MI","0","1","false"
"null","","fixation","html-keyboard-response","85","217974","0.0-8.0-0.29","5f441dda761e0a72e306807d","condA","","<div class=""vertical-center"" style='width:60%;'><p style='font-weight:bold;'>Does the middle word sound more like the first word (A) or the last word (B)?</p> <br> <div class=""container""> <div id=""a-box""> <p class=""title-text"">A</h3></p> </div> <div id=""x-box""> <p class=""title-text"">X<p> </div> <div id=""b-box""> <p class=""title-text"">B</p></div> <br> <div style='float: left;padding-left:30px;'><p>Press '1' for A</p></div><div style='float: right;padding-right:30px;'><p>Press '0' for B</p> </div> </div></div>","null","","","","","","","","","","","","","",""
"2819","","test","audio-keyboard-response","86","220788","0.0-8.0-1.29","5f441dda761e0a72e306807d","condA","","resources/audio/wordStim/S9_AU_20_bxa_Step-6.wav","49","","","","","AU","resources/audio/wordStim/S9_AU_20_bxa_Step-6.wav","S9","20","bxa","6","CN","1","1","true"
"null","","fixation","html-keyboard-response","87","221791","0.0-8.0-0.30","5f441dda761e0a72e306807d","condA","","<div class=""vertical-center"" style='width:60%;'><p style='font-weight:bold;'>Does the middle word sound more like the first word (A) or the last word (B)?</p> <br> <div class=""container""> <div id=""a-box""> <p class=""title-text"">A</h3></p> </div> <div id=""x-box""> <p class=""title-text"">X<p> </div> <div id=""b-box""> <p class=""title-text"">B</p></div> <br> <div style='float: left;padding-left:30px;'><p>Press '1' for A</p></div><div style='float: right;padding-right:30px;'><p>Press '0' for B</p> </div> </div></div>","null","","","","","","","","","","","","","",""
"2240","","test","audio-keyboard-response","88","224029","0.0-8.0-1.30","5f441dda761e0a72e306807d","condA","","resources/audio/wordStim/S3_AI_21_bxa_Step-2.wav","48","","","","","AI","resources/audio/wordStim/S3_AI_21_bxa_Step-2.wav","S3","21","bxa","2","MI","1","0","false"
"null","","fixation","html-keyboard-response","89","225032","0.0-8.0-0.31","5f441dda761e0a72e306807d","condA","","<div class=""vertical-center"" style='width:60%;'><p style='font-weight:bold;'>Does the middle word sound more like the first word (A) or the last word (B)?</p> <br> <div class=""container""> <div id=""a-box""> <p class=""title-text"">A</h3></p> </div> <div id=""x-box""> <p class=""title-text"">X<p> </div> <div id=""b-box""> <p class=""title-text"">B</p></div> <br> <div style='float: left;padding-left:30px;'><p>Press '1' for A</p></div><div style='float: right;padding-right:30px;'><p>Press '0' for B</p> </div> </div></div>","null","","","","","","","","","","","","","",""
"3011","","test","audio-keyboard-response","90","228043","0.0-8.0-1.31","5f441dda761e0a72e306807d","condA","","resources/audio/wordStim/S9_AI_25_bxa_Step-2.wav","48","","","","","AI","resources/audio/wordStim/S9_AI_25_bxa_Step-2.wav","S9","25","bxa","2","CN","1","0","false"
"null","","fixation","html-keyboard-response","91","229046","0.0-8.0-0.32","5f441dda761e0a72e306807d","condA","","<div class=""vertical-center"" style='width:60%;'><p style='font-weight:bold;'>Does the middle word sound more like the first word (A) or the last word (B)?</p> <br> <div class=""container""> <div id=""a-box""> <p class=""title-text"">A</h3></p> </div> <div id=""x-box""> <p class=""title-text"">X<p> </div> <div id=""b-box""> <p class=""title-text"">B</p></div> <br> <div style='float: left;padding-left:30px;'><p>Press '1' for A</p></div><div style='float: right;padding-right:30px;'><p>Press '0' for B</p> </div> </div></div>","null","","","","","","","","","","","","","",""
"3640","","test","audio-keyboard-response","92","232687","0.0-8.0-1.32","5f441dda761e0a72e306807d","condA","","resources/audio/wordStim/S3_AU_16_axb_Step-9.wav","48","","","","","AU","resources/audio/wordStim/S3_AU_16_axb_Step-9.wav","S3","16","axb","9","MI","0","0","true"
"null","","fixation","html-keyboard-response","93","233689","0.0-8.0-0.33","5f441dda761e0a72e306807d","condA","","<div class=""vertical-center"" style='width:60%;'><p style='font-weight:bold;'>Does the middle word sound more like the first word (A) or the last word (B)?</p> <br> <div class=""container""> <div id=""a-box""> <p class=""title-text"">A</h3></p> </div> <div id=""x-box""> <p class=""title-text"">X<p> </div> <div id=""b-box""> <p class=""title-text"">B</p></div> <br> <div style='float: left;padding-left:30px;'><p>Press '1' for A</p></div><div style='float: right;padding-right:30px;'><p>Press '0' for B</p> </div> </div></div>","null","","","","","","","","","","","","","",""
"2611","","test","audio-keyboard-response","94","236305","0.0-8.0-1.33","5f441dda761e0a72e306807d","condA","","resources/audio/wordStim/S3_AU_20_axb_Step-10.wav","48","","","","","AU","resources/audio/wordStim/S3_AU_20_axb_Step-10.wav","S3","20","axb","10","MI","0","0","true"
"null","","fixation","html-keyboard-response","95","237306","0.0-8.0-0.34","5f441dda761e0a72e306807d","condA","","<div class=""vertical-center"" style='width:60%;'><p style='font-weight:bold;'>Does the middle word sound more like the first word (A) or the last word (B)?</p> <br> <div class=""container""> <div id=""a-box""> <p class=""title-text"">A</h3></p> </div> <div id=""x-box""> <p class=""title-text"">X<p> </div> <div id=""b-box""> <p class=""title-text"">B</p></div> <br> <div style='float: left;padding-left:30px;'><p>Press '1' for A</p></div><div style='float: right;padding-right:30px;'><p>Press '0' for B</p> </div> </div></div>","null","","","","","","","","","","","","","",""
"2688","","test","audio-keyboard-response","96","239988","0.0-8.0-1.34","5f441dda761e0a72e306807d","condA","","resources/audio/wordStim/S9_AU_17_bxa_Step-2.wav","48","","","","","AU","resources/audio/wordStim/S9_AU_17_bxa_Step-2.wav","S9","17","bxa","2","CN","1","0","false"
"null","","fixation","html-keyboard-response","97","240991","0.0-8.0-0.35","5f441dda761e0a72e306807d","condA","","<div class=""vertical-center"" style='width:60%;'><p style='font-weight:bold;'>Does the middle word sound more like the first word (A) or the last word (B)?</p> <br> <div class=""container""> <div id=""a-box""> <p class=""title-text"">A</h3></p> </div> <div id=""x-box""> <p class=""title-text"">X<p> </div> <div id=""b-box""> <p class=""title-text"">B</p></div> <br> <div style='float: left;padding-left:30px;'><p>Press '1' for A</p></div><div style='float: right;padding-right:30px;'><p>Press '0' for B</p> </div> </div></div>","null","","","","","","","","","","","","","",""
"2840","","test","audio-keyboard-response","98","243833","0.0-8.0-1.35","5f441dda761e0a72e306807d","condA","","resources/audio/wordStim/S9_AI_23_axb_Step-5.wav","49","","","","","AI","resources/audio/wordStim/S9_AI_23_axb_Step-5.wav","S9","23","axb","5","CN","0","1","false"
"null","","fixation","html-keyboard-response","99","244835","0.0-8.0-0.36","5f441dda761e0a72e306807d","condA","","<div class=""vertical-center"" style='width:60%;'><p style='font-weight:bold;'>Does the middle word sound more like the first word (A) or the last word (B)?</p> <br> <div class=""container""> <div id=""a-box""> <p class=""title-text"">A</h3></p> </div> <div id=""x-box""> <p class=""title-text"">X<p> </div> <div id=""b-box""> <p class=""title-text"">B</p></div> <br> <div style='float: left;padding-left:30px;'><p>Press '1' for A</p></div><div style='float: right;padding-right:30px;'><p>Press '0' for B</p> </div> </div></div>","null","","","","","","","","","","","","","",""
"4571","","test","audio-keyboard-response","100","249406","0.0-8.0-1.36","5f441dda761e0a72e306807d","condA","","resources/audio/wordStim/S3_AU_18_axb_Step-10.wav","48","","","","","AU","resources/audio/wordStim/S3_AU_18_axb_Step-10.wav","S3","18","axb","10","MI","0","0","true"
"null","","fixation","html-keyboard-response","101","250409","0.0-8.0-0.37","5f441dda761e0a72e306807d","condA","","<div class=""vertical-center"" style='width:60%;'><p style='font-weight:bold;'>Does the middle word sound more like the first word (A) or the last word (B)?</p> <br> <div class=""container""> <div id=""a-box""> <p class=""title-text"">A</h3></p> </div> <div id=""x-box""> <p class=""title-text"">X<p> </div> <div id=""b-box""> <p class=""title-text"">B</p></div> <br> <div style='float: left;padding-left:30px;'><p>Press '1' for A</p></div><div style='float: right;padding-right:30px;'><p>Press '0' for B</p> </div> </div></div>","null","","","","","","","","","","","","","",""
"2760","","test","audio-keyboard-response","102","253176","0.0-8.0-1.37","5f441dda761e0a72e306807d","condA","","resources/audio/wordStim/S3_AI_28_axb_Step-3.wav","49","","","","","AI","resources/audio/wordStim/S3_AI_28_axb_Step-3.wav","S3","28","axb","3","MI","0","1","false"
"null","","fixation","html-keyboard-response","103","254178","0.0-8.0-0.38","5f441dda761e0a72e306807d","condA","","<div class=""vertical-center"" style='width:60%;'><p style='font-weight:bold;'>Does the middle word sound more like the first word (A) or the last word (B)?</p> <br> <div class=""container""> <div id=""a-box""> <p class=""title-text"">A</h3></p> </div> <div id=""x-box""> <p class=""title-text"">X<p> </div> <div id=""b-box""> <p class=""title-text"">B</p></div> <br> <div style='float: left;padding-left:30px;'><p>Press '1' for A</p></div><div style='float: right;padding-right:30px;'><p>Press '0' for B</p> </div> </div></div>","null","","","","","","","","","","","","","",""
"2749","","test","audio-keyboard-response","104","256935","0.0-8.0-1.38","5f441dda761e0a72e306807d","condA","","resources/audio/wordStim/S3_AI_25_axb_Step-5.wav","48","","","","","AI","resources/audio/wordStim/S3_AI_25_axb_Step-5.wav","S3","25","axb","5","MI","0","0","true"
"null","","fixation","html-keyboard-response","105","257939","0.0-8.0-0.39","5f441dda761e0a72e306807d","condA","","<div class=""vertical-center"" style='width:60%;'><p style='font-weight:bold;'>Does the middle word sound more like the first word (A) or the last word (B)?</p> <br> <div class=""container""> <div id=""a-box""> <p class=""title-text"">A</h3></p> </div> <div id=""x-box""> <p class=""title-text"">X<p> </div> <div id=""b-box""> <p class=""title-text"">B</p></div> <br> <div style='float: left;padding-left:30px;'><p>Press '1' for A</p></div><div style='float: right;padding-right:30px;'><p>Press '0' for B</p> </div> </div></div>","null","","","","","","","","","","","","","",""
"3219","","test","audio-keyboard-response","106","261160","0.0-8.0-1.39","5f441dda761e0a72e306807d","condA","","resources/audio/wordStim/S3_AI_29_axb_Step-9.wav","48","","","","","AI","resources/audio/wordStim/S3_AI_29_axb_Step-9.wav","S3","29","axb","9","MI","0","0","true"
"null","","fixation","html-keyboard-response","107","262161","0.0-8.0-0.40","5f441dda761e0a72e306807d","condA","","<div class=""vertical-center"" style='width:60%;'><p style='font-weight:bold;'>Does the middle word sound more like the first word (A) or the last word (B)?</p> <br> <div class=""container""> <div id=""a-box""> <p class=""title-text"">A</h3></p> </div> <div id=""x-box""> <p class=""title-text"">X<p> </div> <div id=""b-box""> <p class=""title-text"">B</p></div> <br> <div style='float: left;padding-left:30px;'><p>Press '1' for A</p></div><div style='float: right;padding-right:30px;'><p>Press '0' for B</p> </div> </div></div>","null","","","","","","","","","","","","","",""
"3021","","test","audio-keyboard-response","108","265180","0.0-8.0-1.40","5f441dda761e0a72e306807d","condA","","resources/audio/wordStim/S3_AI_22_bxa_Step-8.wav","49","","","","","AI","resources/audio/wordStim/S3_AI_22_bxa_Step-8.wav","S3","22","bxa","8","MI","1","1","true"
"null","","fixation","html-keyboard-response","109","266182","0.0-8.0-0.41","5f441dda761e0a72e306807d","condA","","<div class=""vertical-center"" style='width:60%;'><p style='font-weight:bold;'>Does the middle word sound more like the first word (A) or the last word (B)?</p> <br> <div class=""container""> <div id=""a-box""> <p class=""title-text"">A</h3></p> </div> <div id=""x-box""> <p class=""title-text"">X<p> </div> <div id=""b-box""> <p class=""title-text"">B</p></div> <br> <div style='float: left;padding-left:30px;'><p>Press '1' for A</p></div><div style='float: right;padding-right:30px;'><p>Press '0' for B</p> </div> </div></div>","null","","","","","","","","","","","","","",""
"2909","","test","audio-keyboard-response","110","269094","0.0-8.0-1.41","5f441dda761e0a72e306807d","condA","","resources/audio/wordStim/S3_AI_25_axb_Step-9.wav","48","","","","","AI","resources/audio/wordStim/S3_AI_25_axb_Step-9.wav","S3","25","axb","9","MI","0","0","true"
"null","","fixation","html-keyboard-response","111","270097","0.0-8.0-0.42","5f441dda761e0a72e306807d","condA","","<div class=""vertical-center"" style='width:60%;'><p style='font-weight:bold;'>Does the middle word sound more like the first word (A) or the last word (B)?</p> <br> <div class=""container""> <div id=""a-box""> <p class=""title-text"">A</h3></p> </div> <div id=""x-box""> <p class=""title-text"">X<p> </div> <div id=""b-box""> <p class=""title-text"">B</p></div> <br> <div style='float: left;padding-left:30px;'><p>Press '1' for A</p></div><div style='float: right;padding-right:30px;'><p>Press '0' for B</p> </div> </div></div>","null","","","","","","","","","","","","","",""
"2811","","test","audio-keyboard-response","112","272898","0.0-8.0-1.42","5f441dda761e0a72e306807d","condA","","resources/audio/wordStim/S3_AU_20_axb_Step-9.wav","48","","","","","AU","resources/audio/wordStim/S3_AU_20_axb_Step-9.wav","S3","20","axb","9","MI","0","0","true"
"null","","fixation","html-keyboard-response","113","273901","0.0-8.0-0.43","5f441dda761e0a72e306807d","condA","","<div class=""vertical-center"" style='width:60%;'><p style='font-weight:bold;'>Does the middle word sound more like the first word (A) or the last word (B)?</p> <br> <div class=""container""> <div id=""a-box""> <p class=""title-text"">A</h3></p> </div> <div id=""x-box""> <p class=""title-text"">X<p> </div> <div id=""b-box""> <p class=""title-text"">B</p></div> <br> <div style='float: left;padding-left:30px;'><p>Press '1' for A</p></div><div style='float: right;padding-right:30px;'><p>Press '0' for B</p> </div> </div></div>","null","","","","","","","","","","","","","",""
"2899","","test","audio-keyboard-response","114","276803","0.0-8.0-1.43","5f441dda761e0a72e306807d","condA","","resources/audio/wordStim/S9_AI_25_axb_Step-10.wav","48","","","","","AI","resources/audio/wordStim/S9_AI_25_axb_Step-10.wav","S9","25","axb","10","CN","0","0","true"
"null","","fixation","html-keyboard-response","115","277805","0.0-8.0-0.44","5f441dda761e0a72e306807d","condA","","<div class=""vertical-center"" style='width:60%;'><p style='font-weight:bold;'>Does the middle word sound more like the first word (A) or the last word (B)?</p> <br> <div class=""container""> <div id=""a-box""> <p class=""title-text"">A</h3></p> </div> <div id=""x-box""> <p class=""title-text"">X<p> </div> <div id=""b-box""> <p class=""title-text"">B</p></div> <br> <div style='float: left;padding-left:30px;'><p>Press '1' for A</p></div><div style='float: right;padding-right:30px;'><p>Press '0' for B</p> </div> </div></div>","null","","","","","","","","","","","","","",""
"2931","","test","audio-keyboard-response","116","280738","0.0-8.0-1.44","5f441dda761e0a72e306807d","condA","","resources/audio/wordStim/S9_AI_25_axb_Step-9.wav","48","","","","","AI","resources/audio/wordStim/S9_AI_25_axb_Step-9.wav","S9","25","axb","9","CN","0","0","true"
"null","","fixation","html-keyboard-response","117","281741","0.0-8.0-0.45","5f441dda761e0a72e306807d","condA","","<div class=""vertical-center"" style='width:60%;'><p style='font-weight:bold;'>Does the middle word sound more like the first word (A) or the last word (B)?</p> <br> <div class=""container""> <div id=""a-box""> <p class=""title-text"">A</h3></p> </div> <div id=""x-box""> <p class=""title-text"">X<p> </div> <div id=""b-box""> <p class=""title-text"">B</p></div> <br> <div style='float: left;padding-left:30px;'><p>Press '1' for A</p></div><div style='float: right;padding-right:30px;'><p>Press '0' for B</p> </div> </div></div>","null","","","","","","","","","","","","","",""
"3219","","test","audio-keyboard-response","118","284958","0.0-8.0-1.45","5f441dda761e0a72e306807d","condA","","resources/audio/wordStim/S3_AU_18_bxa_Step-8.wav","49","","","","","AU","resources/audio/wordStim/S3_AU_18_bxa_Step-8.wav","S3","18","bxa","8","MI","1","1","true"
"null","","fixation","html-keyboard-response","119","285961","0.0-8.0-0.46","5f441dda761e0a72e306807d","condA","","<div class=""vertical-center"" style='width:60%;'><p style='font-weight:bold;'>Does the middle word sound more like the first word (A) or the last word (B)?</p> <br> <div class=""container""> <div id=""a-box""> <p class=""title-text"">A</h3></p> </div> <div id=""x-box""> <p class=""title-text"">X<p> </div> <div id=""b-box""> <p class=""title-text"">B</p></div> <br> <div style='float: left;padding-left:30px;'><p>Press '1' for A</p></div><div style='float: right;padding-right:30px;'><p>Press '0' for B</p> </div> </div></div>","null","","","","","","","","","","","","","",""
"2440","","test","audio-keyboard-response","120","288407","0.0-8.0-1.46","5f441dda761e0a72e306807d","condA","","resources/audio/wordStim/S3_AI_25_bxa_Step-8.wav","49","","","","","AI","resources/audio/wordStim/S3_AI_25_bxa_Step-8.wav","S3","25","bxa","8","MI","1","1","true"
"null","","fixation","html-keyboard-response","121","289411","0.0-8.0-0.47","5f441dda761e0a72e306807d","condA","","<div class=""vertical-center"" style='width:60%;'><p style='font-weight:bold;'>Does the middle word sound more like the first word (A) or the last word (B)?</p> <br> <div class=""container""> <div id=""a-box""> <p class=""title-text"">A</h3></p> </div> <div id=""x-box""> <p class=""title-text"">X<p> </div> <div id=""b-box""> <p class=""title-text"">B</p></div> <br> <div style='float: left;padding-left:30px;'><p>Press '1' for A</p></div><div style='float: right;padding-right:30px;'><p>Press '0' for B</p> </div> </div></div>","null","","","","","","","","","","","","","",""
"3080","","test","audio-keyboard-response","122","292492","0.0-8.0-1.47","5f441dda761e0a72e306807d","condA","","resources/audio/wordStim/S3_AI_22_axb_Step-3.wav","49","","","","","AI","resources/audio/wordStim/S3_AI_22_axb_Step-3.wav","S3","22","axb","3","MI","0","1","false"
"null","","fixation","html-keyboard-response","123","293495","0.0-8.0-0.48","5f441dda761e0a72e306807d","condA","","<div class=""vertical-center"" style='width:60%;'><p style='font-weight:bold;'>Does the middle word sound more like the first word (A) or the last word (B)?</p> <br> <div class=""container""> <div id=""a-box""> <p class=""title-text"">A</h3></p> </div> <div id=""x-box""> <p class=""title-text"">X<p> </div> <div id=""b-box""> <p class=""title-text"">B</p></div> <br> <div style='float: left;padding-left:30px;'><p>Press '1' for A</p></div><div style='float: right;padding-right:30px;'><p>Press '0' for B</p> </div> </div></div>","null","","","","","","","","","","","","","",""
"2800","","test","audio-keyboard-response","124","296290","0.0-8.0-1.48","5f441dda761e0a72e306807d","condA","","resources/audio/wordStim/S9_AI_24_axb_Step-5.wav","49","","","","","AI","resources/audio/wordStim/S9_AI_24_axb_Step-5.wav","S9","24","axb","5","CN","0","1","false"
"null","","fixation","html-keyboard-response","125","297294","0.0-8.0-0.49","5f441dda761e0a72e306807d","condA","","<div class=""vertical-center"" style='width:60%;'><p style='font-weight:bold;'>Does the middle word sound more like the first word (A) or the last word (B)?</p> <br> <div class=""container""> <div id=""a-box""> <p class=""title-text"">A</h3></p> </div> <div id=""x-box""> <p class=""title-text"">X<p> </div> <div id=""b-box""> <p class=""title-text"">B</p></div> <br> <div style='float: left;padding-left:30px;'><p>Press '1' for A</p></div><div style='float: right;padding-right:30px;'><p>Press '0' for B</p> </div> </div></div>","null","","","","","","","","","","","","","",""
"3440","","test","audio-keyboard-response","126","300732","0.0-8.0-1.49","5f441dda761e0a72e306807d","condA","","resources/audio/wordStim/S3_AU_19_axb_Step-10.wav","48","","","","","AU","resources/audio/wordStim/S3_AU_19_axb_Step-10.wav","S3","19","axb","10","MI","0","0","true"
"null","","fixation","html-keyboard-response","127","301734","0.0-8.0-0.50","5f441dda761e0a72e306807d","condA","","<div class=""vertical-center"" style='width:60%;'><p style='font-weight:bold;'>Does the middle word sound more like the first word (A) or the last word (B)?</p> <br> <div class=""container""> <div id=""a-box""> <p class=""title-text"">A</h3></p> </div> <div id=""x-box""> <p class=""title-text"">X<p> </div> <div id=""b-box""> <p class=""title-text"">B</p></div> <br> <div style='float: left;padding-left:30px;'><p>Press '1' for A</p></div><div style='float: right;padding-right:30px;'><p>Press '0' for B</p> </div> </div></div>","null","","","","","","","","","","","","","",""
"3200","","test","audio-keyboard-response","128","304931","0.0-8.0-1.50","5f441dda761e0a72e306807d","condA","","resources/audio/wordStim/S9_AU_11_bxa_Step-8.wav","49","","","","","AU","resources/audio/wordStim/S9_AU_11_bxa_Step-8.wav","S9","11","bxa","8","CN","1","1","true"
"null","","fixation","html-keyboard-response","129","305934","0.0-8.0-0.51","5f441dda761e0a72e306807d","condA","","<div class=""vertical-center"" style='width:60%;'><p style='font-weight:bold;'>Does the middle word sound more like the first word (A) or the last word (B)?</p> <br> <div class=""container""> <div id=""a-box""> <p class=""title-text"">A</h3></p> </div> <div id=""x-box""> <p class=""title-text"">X<p> </div> <div id=""b-box""> <p class=""title-text"">B</p></div> <br> <div style='float: left;padding-left:30px;'><p>Press '1' for A</p></div><div style='float: right;padding-right:30px;'><p>Press '0' for B</p> </div> </div></div>","null","","","","","","","","","","","","","",""
"2979","","test","audio-keyboard-response","130","308917","0.0-8.0-1.51","5f441dda761e0a72e306807d","condA","","resources/audio/wordStim/S9_AU_11_axb_Step-9.wav","49","","","","","AU","resources/audio/wordStim/S9_AU_11_axb_Step-9.wav","S9","11","axb","9","CN","0","1","false"
"null","","fixation","html-keyboard-response","131","309919","0.0-8.0-0.52","5f441dda761e0a72e306807d","condA","","<div class=""vertical-center"" style='width:60%;'><p style='font-weight:bold;'>Does the middle word sound more like the first word (A) or the last word (B)?</p> <br> <div class=""container""> <div id=""a-box""> <p class=""title-text"">A</h3></p> </div> <div id=""x-box""> <p class=""title-text"">X<p> </div> <div id=""b-box""> <p class=""title-text"">B</p></div> <br> <div style='float: left;padding-left:30px;'><p>Press '1' for A</p></div><div style='float: right;padding-right:30px;'><p>Press '0' for B</p> </div> </div></div>","null","","","","","","","","","","","","","",""
"3181","","test","audio-keyboard-response","132","313106","0.0-8.0-1.52","5f441dda761e0a72e306807d","condA","","resources/audio/wordStim/S9_AI_30_axb_Step-5.wav","49","","","","","AI","resources/audio/wordStim/S9_AI_30_axb_Step-5.wav","S9","30","axb","5","CN","0","1","false"
"null","","fixation","html-keyboard-response","133","314109","0.0-8.0-0.53","5f441dda761e0a72e306807d","condA","","<div class=""vertical-center"" style='width:60%;'><p style='font-weight:bold;'>Does the middle word sound more like the first word (A) or the last word (B)?</p> <br> <div class=""container""> <div id=""a-box""> <p class=""title-text"">A</h3></p> </div> <div id=""x-box""> <p class=""title-text"">X<p> </div> <div id=""b-box""> <p class=""title-text"">B</p></div> <br> <div style='float: left;padding-left:30px;'><p>Press '1' for A</p></div><div style='float: right;padding-right:30px;'><p>Press '0' for B</p> </div> </div></div>","null","","","","","","","","","","","","","",""
"3352","","test","audio-keyboard-response","134","317464","0.0-8.0-1.53","5f441dda761e0a72e306807d","condA","","resources/audio/wordStim/S3_AI_30_bxa_Step-4.wav","48","","","","","AI","resources/audio/wordStim/S3_AI_30_bxa_Step-4.wav","S3","30","bxa","4","MI","1","0","false"
"1919","","break","html-keyboard-response","135","319884","0.0-8.0-2.53-0.53","5f441dda761e0a72e306807d","condA","","<div class=""vertical-center""><p>Feel free to take a break!</p><i>When you're ready to continue, press SPACE to begin the next trial.</i></p></div>","32","","","","","","","","","","","","","",""
"null","","fixation","html-keyboard-response","136","320384","0.0-8.0-0.54","5f441dda761e0a72e306807d","condA","","<div class=""vertical-center"" style='width:60%;'><p style='font-weight:bold;'>Does the middle word sound more like the first word (A) or the last word (B)?</p> <br> <div class=""container""> <div id=""a-box""> <p class=""title-text"">A</h3></p> </div> <div id=""x-box""> <p class=""title-text"">X<p> </div> <div id=""b-box""> <p class=""title-text"">B</p></div> <br> <div style='float: left;padding-left:30px;'><p>Press '1' for A</p></div><div style='float: right;padding-right:30px;'><p>Press '0' for B</p> </div> </div></div>","null","","","","","","","","","","","","","",""
"2909","","test","audio-keyboard-response","137","323297","0.0-8.0-1.54","5f441dda761e0a72e306807d","condA","","resources/audio/wordStim/S9_AU_13_bxa_Step-6.wav","49","","","","","AU","resources/audio/wordStim/S9_AU_13_bxa_Step-6.wav","S9","13","bxa","6","CN","1","1","true"
"null","","fixation","html-keyboard-response","138","324300","0.0-8.0-0.55","5f441dda761e0a72e306807d","condA","","<div class=""vertical-center"" style='width:60%;'><p style='font-weight:bold;'>Does the middle word sound more like the first word (A) or the last word (B)?</p> <br> <div class=""container""> <div id=""a-box""> <p class=""title-text"">A</h3></p> </div> <div id=""x-box""> <p class=""title-text"">X<p> </div> <div id=""b-box""> <p class=""title-text"">B</p></div> <br> <div style='float: left;padding-left:30px;'><p>Press '1' for A</p></div><div style='float: right;padding-right:30px;'><p>Press '0' for B</p> </div> </div></div>","null","","","","","","","","","","","","","",""
"2899","","test","audio-keyboard-response","139","327200","0.0-8.0-1.55","5f441dda761e0a72e306807d","condA","","resources/audio/wordStim/S9_AI_27_axb_Step-10.wav","48","","","","","AI","resources/audio/wordStim/S9_AI_27_axb_Step-10.wav","S9","27","axb","10","CN","0","0","true"
"null","","fixation","html-keyboard-response","140","328202","0.0-8.0-0.56","5f441dda761e0a72e306807d","condA","","<div class=""vertical-center"" style='width:60%;'><p style='font-weight:bold;'>Does the middle word sound more like the first word (A) or the last word (B)?</p> <br> <div class=""container""> <div id=""a-box""> <p class=""title-text"">A</h3></p> </div> <div id=""x-box""> <p class=""title-text"">X<p> </div> <div id=""b-box""> <p class=""title-text"">B</p></div> <br> <div style='float: left;padding-left:30px;'><p>Press '1' for A</p></div><div style='float: right;padding-right:30px;'><p>Press '0' for B</p> </div> </div></div>","null","","","","","","","","","","","","","",""
"2760","","test","audio-keyboard-response","141","330961","0.0-8.0-1.56","5f441dda761e0a72e306807d","condA","","resources/audio/wordStim/S3_AU_20_axb_Step-3.wav","49","","","","","AU","resources/audio/wordStim/S3_AU_20_axb_Step-3.wav","S3","20","axb","3","MI","0","1","false"
"null","","fixation","html-keyboard-response","142","331962","0.0-8.0-0.57","5f441dda761e0a72e306807d","condA","","<div class=""vertical-center"" style='width:60%;'><p style='font-weight:bold;'>Does the middle word sound more like the first word (A) or the last word (B)?</p> <br> <div class=""container""> <div id=""a-box""> <p class=""title-text"">A</h3></p> </div> <div id=""x-box""> <p class=""title-text"">X<p> </div> <div id=""b-box""> <p class=""title-text"">B</p></div> <br> <div style='float: left;padding-left:30px;'><p>Press '1' for A</p></div><div style='float: right;padding-right:30px;'><p>Press '0' for B</p> </div> </div></div>","null","","","","","","","","","","","","","",""
"3021","","test","audio-keyboard-response","143","334984","0.0-8.0-1.57","5f441dda761e0a72e306807d","condA","","resources/audio/wordStim/S9_AU_13_bxa_Step-2.wav","49","","","","","AU","resources/audio/wordStim/S9_AU_13_bxa_Step-2.wav","S9","13","bxa","2","CN","1","1","true"
"null","","fixation","html-keyboard-response","144","335986","0.0-8.0-0.58","5f441dda761e0a72e306807d","condA","","<div class=""vertical-center"" style='width:60%;'><p style='font-weight:bold;'>Does the middle word sound more like the first word (A) or the last word (B)?</p> <br> <div class=""container""> <div id=""a-box""> <p class=""title-text"">A</h3></p> </div> <div id=""x-box""> <p class=""title-text"">X<p> </div> <div id=""b-box""> <p class=""title-text"">B</p></div> <br> <div style='float: left;padding-left:30px;'><p>Press '1' for A</p></div><div style='float: right;padding-right:30px;'><p>Press '0' for B</p> </div> </div></div>","null","","","","","","","","","","","","","",""
"3459","","test","audio-keyboard-response","145","339441","0.0-8.0-1.58","5f441dda761e0a72e306807d","condA","","resources/audio/wordStim/S3_AU_16_bxa_Step-6.wav","49","","","","","AU","resources/audio/wordStim/S3_AU_16_bxa_Step-6.wav","S3","16","bxa","6","MI","1","1","true"
"null","","fixation","html-keyboard-response","146","340444","0.0-8.0-0.59","5f441dda761e0a72e306807d","condA","","<div class=""vertical-center"" style='width:60%;'><p style='font-weight:bold;'>Does the middle word sound more like the first word (A) or the last word (B)?</p> <br> <div class=""container""> <div id=""a-box""> <p class=""title-text"">A</h3></p> </div> <div id=""x-box""> <p class=""title-text"">X<p> </div> <div id=""b-box""> <p class=""title-text"">B</p></div> <br> <div style='float: left;padding-left:30px;'><p>Press '1' for A</p></div><div style='float: right;padding-right:30px;'><p>Press '0' for B</p> </div> </div></div>","null","","","","","","","","","","","","","",""
"3171","","test","audio-keyboard-response","147","343617","0.0-8.0-1.59","5f441dda761e0a72e306807d","condA","","resources/audio/wordStim/S3_AU_20_bxa_Step-4.wav","48","","","","","AU","resources/audio/wordStim/S3_AU_20_bxa_Step-4.wav","S3","20","bxa","4","MI","1","0","false"
"null","","fixation","html-keyboard-response","148","344620","0.0-8.0-0.60","5f441dda761e0a72e306807d","condA","","<div class=""vertical-center"" style='width:60%;'><p style='font-weight:bold;'>Does the middle word sound more like the first word (A) or the last word (B)?</p> <br> <div class=""container""> <div id=""a-box""> <p class=""title-text"">A</h3></p> </div> <div id=""x-box""> <p class=""title-text"">X<p> </div> <div id=""b-box""> <p class=""title-text"">B</p></div> <br> <div style='float: left;padding-left:30px;'><p>Press '1' for A</p></div><div style='float: right;padding-right:30px;'><p>Press '0' for B</p> </div> </div></div>","null","","","","","","","","","","","","","",""
"2760","","test","audio-keyboard-response","149","347380","0.0-8.0-1.60","5f441dda761e0a72e306807d","condA","","resources/audio/wordStim/S3_AU_20_axb_Step-7.wav","49","","","","","AU","resources/audio/wordStim/S3_AU_20_axb_Step-7.wav","S3","20","axb","7","MI","0","1","false"
"null","","fixation","html-keyboard-response","150","348383","0.0-8.0-0.61","5f441dda761e0a72e306807d","condA","","<div class=""vertical-center"" style='width:60%;'><p style='font-weight:bold;'>Does the middle word sound more like the first word (A) or the last word (B)?</p> <br> <div class=""container""> <div id=""a-box""> <p class=""title-text"">A</h3></p> </div> <div id=""x-box""> <p class=""title-text"">X<p> </div> <div id=""b-box""> <p class=""title-text"">B</p></div> <br> <div style='float: left;padding-left:30px;'><p>Press '1' for A</p></div><div style='float: right;padding-right:30px;'><p>Press '0' for B</p> </div> </div></div>","null","","","","","","","","","","","","","",""
"2749","","test","audio-keyboard-response","151","351130","0.0-8.0-1.61","5f441dda761e0a72e306807d","condA","","resources/audio/wordStim/S9_AU_19_bxa_Step-8.wav","49","","","","","AU","resources/audio/wordStim/S9_AU_19_bxa_Step-8.wav","S9","19","bxa","8","CN","1","1","true"
"null","","fixation","html-keyboard-response","152","352134","0.0-8.0-0.62","5f441dda761e0a72e306807d","condA","","<div class=""vertical-center"" style='width:60%;'><p style='font-weight:bold;'>Does the middle word sound more like the first word (A) or the last word (B)?</p> <br> <div class=""container""> <div id=""a-box""> <p class=""title-text"">A</h3></p> </div> <div id=""x-box""> <p class=""title-text"">X<p> </div> <div id=""b-box""> <p class=""title-text"">B</p></div> <br> <div style='float: left;padding-left:30px;'><p>Press '1' for A</p></div><div style='float: right;padding-right:30px;'><p>Press '0' for B</p> </div> </div></div>","null","","","","","","","","","","","","","",""
"3539","","test","audio-keyboard-response","153","355671","0.0-8.0-1.62","5f441dda761e0a72e306807d","condA","","resources/audio/wordStim/S9_AU_16_axb_Step-5.wav","48","","","","","AU","resources/audio/wordStim/S9_AU_16_axb_Step-5.wav","S9","16","axb","5","CN","0","0","true"
"null","","fixation","html-keyboard-response","154","356674","0.0-8.0-0.63","5f441dda761e0a72e306807d","condA","","<div class=""vertical-center"" style='width:60%;'><p style='font-weight:bold;'>Does the middle word sound more like the first word (A) or the last word (B)?</p> <br> <div class=""container""> <div id=""a-box""> <p class=""title-text"">A</h3></p> </div> <div id=""x-box""> <p class=""title-text"">X<p> </div> <div id=""b-box""> <p class=""title-text"">B</p></div> <br> <div style='float: left;padding-left:30px;'><p>Press '1' for A</p></div><div style='float: right;padding-right:30px;'><p>Press '0' for B</p> </div> </div></div>","null","","","","","","","","","","","","","",""
"3160","","test","audio-keyboard-response","155","359836","0.0-8.0-1.63","5f441dda761e0a72e306807d","condA","","resources/audio/wordStim/S3_AI_23_bxa_Step-8.wav","49","","","","","AI","resources/audio/wordStim/S3_AI_23_bxa_Step-8.wav","S3","23","bxa","8","MI","1","1","true"
"null","","fixation","html-keyboard-response","156","360840","0.0-8.0-0.64","5f441dda761e0a72e306807d","condA","","<div class=""vertical-center"" style='width:60%;'><p style='font-weight:bold;'>Does the middle word sound more like the first word (A) or the last word (B)?</p> <br> <div class=""container""> <div id=""a-box""> <p class=""title-text"">A</h3></p> </div> <div id=""x-box""> <p class=""title-text"">X<p> </div> <div id=""b-box""> <p class=""title-text"">B</p></div> <br> <div style='float: left;padding-left:30px;'><p>Press '1' for A</p></div><div style='float: right;padding-right:30px;'><p>Press '0' for B</p> </div> </div></div>","null","","","","","","","","","","","","","",""
"2781","","test","audio-keyboard-response","157","363625","0.0-8.0-1.64","5f441dda761e0a72e306807d","condA","","resources/audio/wordStim/S3_AU_20_axb_Step-5.wav","49","","","","","AU","resources/audio/wordStim/S3_AU_20_axb_Step-5.wav","S3","20","axb","5","MI","0","1","false"
"null","","fixation","html-keyboard-response","158","364628","0.0-8.0-0.65","5f441dda761e0a72e306807d","condA","","<div class=""vertical-center"" style='width:60%;'><p style='font-weight:bold;'>Does the middle word sound more like the first word (A) or the last word (B)?</p> <br> <div class=""container""> <div id=""a-box""> <p class=""title-text"">A</h3></p> </div> <div id=""x-box""> <p class=""title-text"">X<p> </div> <div id=""b-box""> <p class=""title-text"">B</p></div> <br> <div style='float: left;padding-left:30px;'><p>Press '1' for A</p></div><div style='float: right;padding-right:30px;'><p>Press '0' for B</p> </div> </div></div>","null","","","","","","","","","","","","","",""
"2891","","test","audio-keyboard-response","159","367524","0.0-8.0-1.65","5f441dda761e0a72e306807d","condA","","resources/audio/wordStim/S9_AU_16_bxa_Step-6.wav","48","","","","","AU","resources/audio/wordStim/S9_AU_16_bxa_Step-6.wav","S9","16","bxa","6","CN","1","0","false"
"null","","fixation","html-keyboard-response","160","368527","0.0-8.0-0.66","5f441dda761e0a72e306807d","condA","","<div class=""vertical-center"" style='width:60%;'><p style='font-weight:bold;'>Does the middle word sound more like the first word (A) or the last word (B)?</p> <br> <div class=""container""> <div id=""a-box""> <p class=""title-text"">A</h3></p> </div> <div id=""x-box""> <p class=""title-text"">X<p> </div> <div id=""b-box""> <p class=""title-text"">B</p></div> <br> <div style='float: left;padding-left:30px;'><p>Press '1' for A</p></div><div style='float: right;padding-right:30px;'><p>Press '0' for B</p> </div> </div></div>","null","","","","","","","","","","","","","",""
"3309","","test","audio-keyboard-response","161","371835","0.0-8.0-1.66","5f441dda761e0a72e306807d","condA","","resources/audio/wordStim/S3_AI_28_axb_Step-9.wav","49","","","","","AI","resources/audio/wordStim/S3_AI_28_axb_Step-9.wav","S3","28","axb","9","MI","0","1","false"
"null","","fixation","html-keyboard-response","162","372837","0.0-8.0-0.67","5f441dda761e0a72e306807d","condA","","<div class=""vertical-center"" style='width:60%;'><p style='font-weight:bold;'>Does the middle word sound more like the first word (A) or the last word (B)?</p> <br> <div class=""container""> <div id=""a-box""> <p class=""title-text"">A</h3></p> </div> <div id=""x-box""> <p class=""title-text"">X<p> </div> <div id=""b-box""> <p class=""title-text"">B</p></div> <br> <div style='float: left;padding-left:30px;'><p>Press '1' for A</p></div><div style='float: right;padding-right:30px;'><p>Press '0' for B</p> </div> </div></div>","null","","","","","","","","","","","","","",""
"4021","","test","audio-keyboard-response","163","376848","0.0-8.0-1.67","5f441dda761e0a72e306807d","condA","","resources/audio/wordStim/S3_AU_17_axb_Step-3.wav","49","","","","","AU","resources/audio/wordStim/S3_AU_17_axb_Step-3.wav","S3","17","axb","3","MI","0","1","false"
"null","","fixation","html-keyboard-response","164","377849","0.0-8.0-0.68","5f441dda761e0a72e306807d","condA","","<div class=""vertical-center"" style='width:60%;'><p style='font-weight:bold;'>Does the middle word sound more like the first word (A) or the last word (B)?</p> <br> <div class=""container""> <div id=""a-box""> <p class=""title-text"">A</h3></p> </div> <div id=""x-box""> <p class=""title-text"">X<p> </div> <div id=""b-box""> <p class=""title-text"">B</p></div> <br> <div style='float: left;padding-left:30px;'><p>Press '1' for A</p></div><div style='float: right;padding-right:30px;'><p>Press '0' for B</p> </div> </div></div>","null","","","","","","","","","","","","","",""
"3139","","test","audio-keyboard-response","165","380988","0.0-8.0-1.68","5f441dda761e0a72e306807d","condA","","resources/audio/wordStim/S9_AU_18_axb_Step-5.wav","49","","","","","AU","resources/audio/wordStim/S9_AU_18_axb_Step-5.wav","S9","18","axb","5","CN","0","1","false"
"null","","fixation","html-keyboard-response","166","381990","0.0-8.0-0.69","5f441dda761e0a72e306807d","condA","","<div class=""vertical-center"" style='width:60%;'><p style='font-weight:bold;'>Does the middle word sound more like the first word (A) or the last word (B)?</p> <br> <div class=""container""> <div id=""a-box""> <p class=""title-text"">A</h3></p> </div> <div id=""x-box""> <p class=""title-text"">X<p> </div> <div id=""b-box""> <p class=""title-text"">B</p></div> <br> <div style='float: left;padding-left:30px;'><p>Press '1' for A</p></div><div style='float: right;padding-right:30px;'><p>Press '0' for B</p> </div> </div></div>","null","","","","","","","","","","","","","",""
"3141","","test","audio-keyboard-response","167","385127","0.0-8.0-1.69","5f441dda761e0a72e306807d","condA","","resources/audio/wordStim/S9_AI_29_bxa_Step-8.wav","49","","","","","AI","resources/audio/wordStim/S9_AI_29_bxa_Step-8.wav","S9","29","bxa","8","CN","1","1","true"
"null","","fixation","html-keyboard-response","168","386129","0.0-8.0-0.70","5f441dda761e0a72e306807d","condA","","<div class=""vertical-center"" style='width:60%;'><p style='font-weight:bold;'>Does the middle word sound more like the first word (A) or the last word (B)?</p> <br> <div class=""container""> <div id=""a-box""> <p class=""title-text"">A</h3></p> </div> <div id=""x-box""> <p class=""title-text"">X<p> </div> <div id=""b-box""> <p class=""title-text"">B</p></div> <br> <div style='float: left;padding-left:30px;'><p>Press '1' for A</p></div><div style='float: right;padding-right:30px;'><p>Press '0' for B</p> </div> </div></div>","null","","","","","","","","","","","","","",""
"2139","","test","audio-keyboard-response","169","388275","0.0-8.0-1.70","5f441dda761e0a72e306807d","condA","","resources/audio/wordStim/S3_AI_21_axb_Step-3.wav","49","","","","","AI","resources/audio/wordStim/S3_AI_21_axb_Step-3.wav","S3","21","axb","3","MI","0","1","false"
"null","","fixation","html-keyboard-response","170","389278","0.0-8.0-0.71","5f441dda761e0a72e306807d","condA","","<div class=""vertical-center"" style='width:60%;'><p style='font-weight:bold;'>Does the middle word sound more like the first word (A) or the last word (B)?</p> <br> <div class=""container""> <div id=""a-box""> <p class=""title-text"">A</h3></p> </div> <div id=""x-box""> <p class=""title-text"">X<p> </div> <div id=""b-box""> <p class=""title-text"">B</p></div> <br> <div style='float: left;padding-left:30px;'><p>Press '1' for A</p></div><div style='float: right;padding-right:30px;'><p>Press '0' for B</p> </div> </div></div>","null","","","","","","","","","","","","","",""
"3171","","test","audio-keyboard-response","171","392455","0.0-8.0-1.71","5f441dda761e0a72e306807d","condA","","resources/audio/wordStim/S3_AU_18_axb_Step-7.wav","49","","","","","AU","resources/audio/wordStim/S3_AU_18_axb_Step-7.wav","S3","18","axb","7","MI","0","1","false"
"null","","fixation","html-keyboard-response","172","393457","0.0-8.0-0.72","5f441dda761e0a72e306807d","condA","","<div class=""vertical-center"" style='width:60%;'><p style='font-weight:bold;'>Does the middle word sound more like the first word (A) or the last word (B)?</p> <br> <div class=""container""> <div id=""a-box""> <p class=""title-text"">A</h3></p> </div> <div id=""x-box""> <p class=""title-text"">X<p> </div> <div id=""b-box""> <p class=""title-text"">B</p></div> <br> <div style='float: left;padding-left:30px;'><p>Press '1' for A</p></div><div style='float: right;padding-right:30px;'><p>Press '0' for B</p> </div> </div></div>","null","","","","","","","","","","","","","",""
"2669","","test","audio-keyboard-response","173","396129","0.0-8.0-1.72","5f441dda761e0a72e306807d","condA","","resources/audio/wordStim/S9_AU_20_bxa_Step-8.wav","49","","","","","AU","resources/audio/wordStim/S9_AU_20_bxa_Step-8.wav","S9","20","bxa","8","CN","1","1","true"
"null","","fixation","html-keyboard-response","174","397131","0.0-8.0-0.73","5f441dda761e0a72e306807d","condA","","<div class=""vertical-center"" style='width:60%;'><p style='font-weight:bold;'>Does the middle word sound more like the first word (A) or the last word (B)?</p> <br> <div class=""container""> <div id=""a-box""> <p class=""title-text"">A</h3></p> </div> <div id=""x-box""> <p class=""title-text"">X<p> </div> <div id=""b-box""> <p class=""title-text"">B</p></div> <br> <div style='float: left;padding-left:30px;'><p>Press '1' for A</p></div><div style='float: right;padding-right:30px;'><p>Press '0' for B</p> </div> </div></div>","null","","","","","","","","","","","","","",""
"3560","","test","audio-keyboard-response","175","400696","0.0-8.0-1.73","5f441dda761e0a72e306807d","condA","","resources/audio/wordStim/S9_AI_24_bxa_Step-4.wav","48","","","","","AI","resources/audio/wordStim/S9_AI_24_bxa_Step-4.wav","S9","24","bxa","4","CN","1","0","false"
"null","","fixation","html-keyboard-response","176","401697","0.0-8.0-0.74","5f441dda761e0a72e306807d","condA","","<div class=""vertical-center"" style='width:60%;'><p style='font-weight:bold;'>Does the middle word sound more like the first word (A) or the last word (B)?</p> <br> <div class=""container""> <div id=""a-box""> <p class=""title-text"">A</h3></p> </div> <div id=""x-box""> <p class=""title-text"">X<p> </div> <div id=""b-box""> <p class=""title-text"">B</p></div> <br> <div style='float: left;padding-left:30px;'><p>Press '1' for A</p></div><div style='float: right;padding-right:30px;'><p>Press '0' for B</p> </div> </div></div>","null","","","","","","","","","","","","","",""
"2789","","test","audio-keyboard-response","177","404494","0.0-8.0-1.74","5f441dda761e0a72e306807d","condA","","resources/audio/wordStim/S9_AI_25_axb_Step-7.wav","49","","","","","AI","resources/audio/wordStim/S9_AI_25_axb_Step-7.wav","S9","25","axb","7","CN","0","1","false"
"null","","fixation","html-keyboard-response","178","405496","0.0-8.0-0.75","5f441dda761e0a72e306807d","condA","","<div class=""vertical-center"" style='width:60%;'><p style='font-weight:bold;'>Does the middle word sound more like the first word (A) or the last word (B)?</p> <br> <div class=""container""> <div id=""a-box""> <p class=""title-text"">A</h3></p> </div> <div id=""x-box""> <p class=""title-text"">X<p> </div> <div id=""b-box""> <p class=""title-text"">B</p></div> <br> <div style='float: left;padding-left:30px;'><p>Press '1' for A</p></div><div style='float: right;padding-right:30px;'><p>Press '0' for B</p> </div> </div></div>","null","","","","","","","","","","","","","",""
"2720","","test","audio-keyboard-response","179","408213","0.0-8.0-1.75","5f441dda761e0a72e306807d","condA","","resources/audio/wordStim/S3_AI_28_axb_Step-5.wav","49","","","","","AI","resources/audio/wordStim/S3_AI_28_axb_Step-5.wav","S3","28","axb","5","MI","0","1","false"
"null","","fixation","html-keyboard-response","180","409217","0.0-8.0-0.76","5f441dda761e0a72e306807d","condA","","<div class=""vertical-center"" style='width:60%;'><p style='font-weight:bold;'>Does the middle word sound more like the first word (A) or the last word (B)?</p> <br> <div class=""container""> <div id=""a-box""> <p class=""title-text"">A</h3></p> </div> <div id=""x-box""> <p class=""title-text"">X<p> </div> <div id=""b-box""> <p class=""title-text"">B</p></div> <br> <div style='float: left;padding-left:30px;'><p>Press '1' for A</p></div><div style='float: right;padding-right:30px;'><p>Press '0' for B</p> </div> </div></div>","null","","","","","","","","","","","","","",""
"2589","","test","audio-keyboard-response","181","411802","0.0-8.0-1.76","5f441dda761e0a72e306807d","condA","","resources/audio/wordStim/S3_AI_23_bxa_Step-6.wav","49","","","","","AI","resources/audio/wordStim/S3_AI_23_bxa_Step-6.wav","S3","23","bxa","6","MI","1","1","true"
"null","","fixation","html-keyboard-response","182","412805","0.0-8.0-0.77","5f441dda761e0a72e306807d","condA","","<div class=""vertical-center"" style='width:60%;'><p style='font-weight:bold;'>Does the middle word sound more like the first word (A) or the last word (B)?</p> <br> <div class=""container""> <div id=""a-box""> <p class=""title-text"">A</h3></p> </div> <div id=""x-box""> <p class=""title-text"">X<p> </div> <div id=""b-box""> <p class=""title-text"">B</p></div> <br> <div style='float: left;padding-left:30px;'><p>Press '1' for A</p></div><div style='float: right;padding-right:30px;'><p>Press '0' for B</p> </div> </div></div>","null","","","","","","","","","","","","","",""
"2931","","test","audio-keyboard-response","183","415737","0.0-8.0-1.77","5f441dda761e0a72e306807d","condA","","resources/audio/wordStim/S9_AU_18_bxa_Step-8.wav","49","","","","","AU","resources/audio/wordStim/S9_AU_18_bxa_Step-8.wav","S9","18","bxa","8","CN","1","1","true"
"null","","fixation","html-keyboard-response","184","416740","0.0-8.0-0.78","5f441dda761e0a72e306807d","condA","","<div class=""vertical-center"" style='width:60%;'><p style='font-weight:bold;'>Does the middle word sound more like the first word (A) or the last word (B)?</p> <br> <div class=""container""> <div id=""a-box""> <p class=""title-text"">A</h3></p> </div> <div id=""x-box""> <p class=""title-text"">X<p> </div> <div id=""b-box""> <p class=""title-text"">B</p></div> <br> <div style='float: left;padding-left:30px;'><p>Press '1' for A</p></div><div style='float: right;padding-right:30px;'><p>Press '0' for B</p> </div> </div></div>","null","","","","","","","","","","","","","",""
"2899","","test","audio-keyboard-response","185","419637","0.0-8.0-1.78","5f441dda761e0a72e306807d","condA","","resources/audio/wordStim/S9_AU_13_axb_Step-5.wav","49","","","","","AU","resources/audio/wordStim/S9_AU_13_axb_Step-5.wav","S9","13","axb","5","CN","0","1","false"
"null","","fixation","html-keyboard-response","186","420640","0.0-8.0-0.79","5f441dda761e0a72e306807d","condA","","<div class=""vertical-center"" style='width:60%;'><p style='font-weight:bold;'>Does the middle word sound more like the first word (A) or the last word (B)?</p> <br> <div class=""container""> <div id=""a-box""> <p class=""title-text"">A</h3></p> </div> <div id=""x-box""> <p class=""title-text"">X<p> </div> <div id=""b-box""> <p class=""title-text"">B</p></div> <br> <div style='float: left;padding-left:30px;'><p>Press '1' for A</p></div><div style='float: right;padding-right:30px;'><p>Press '0' for B</p> </div> </div></div>","null","","","","","","","","","","","","","",""
"3131","","test","audio-keyboard-response","187","423771","0.0-8.0-1.79","5f441dda761e0a72e306807d","condA","","resources/audio/wordStim/S9_AI_24_axb_Step-7.wav","49","","","","","AI","resources/audio/wordStim/S9_AI_24_axb_Step-7.wav","S9","24","axb","7","CN","0","1","false"
"null","","fixation","html-keyboard-response","188","424774","0.0-8.0-0.80","5f441dda761e0a72e306807d","condA","","<div class=""vertical-center"" style='width:60%;'><p style='font-weight:bold;'>Does the middle word sound more like the first word (A) or the last word (B)?</p> <br> <div class=""container""> <div id=""a-box""> <p class=""title-text"">A</h3></p> </div> <div id=""x-box""> <p class=""title-text"">X<p> </div> <div id=""b-box""> <p class=""title-text"">B</p></div> <br> <div style='float: left;padding-left:30px;'><p>Press '1' for A</p></div><div style='float: right;padding-right:30px;'><p>Press '0' for B</p> </div> </div></div>","null","","","","","","","","","","","","","",""
"2560","","test","audio-keyboard-response","189","427336","0.0-8.0-1.80","5f441dda761e0a72e306807d","condA","","resources/audio/wordStim/S9_AU_17_axb_Step-9.wav","48","","","","","AU","resources/audio/wordStim/S9_AU_17_axb_Step-9.wav","S9","17","axb","9","CN","0","0","true"
"1277","","break","html-keyboard-response","190","429115","0.0-8.0-2.80-0.80","5f441dda761e0a72e306807d","condA","","<div class=""vertical-center""><p>Feel free to take a break!</p><i>When you're ready to continue, press SPACE to begin the next trial.</i></p></div>","32","","","","","","","","","","","","","",""
"null","","fixation","html-keyboard-response","191","429616","0.0-8.0-0.81","5f441dda761e0a72e306807d","condA","","<div class=""vertical-center"" style='width:60%;'><p style='font-weight:bold;'>Does the middle word sound more like the first word (A) or the last word (B)?</p> <br> <div class=""container""> <div id=""a-box""> <p class=""title-text"">A</h3></p> </div> <div id=""x-box""> <p class=""title-text"">X<p> </div> <div id=""b-box""> <p class=""title-text"">B</p></div> <br> <div style='float: left;padding-left:30px;'><p>Press '1' for A</p></div><div style='float: right;padding-right:30px;'><p>Press '0' for B</p> </div> </div></div>","null","","","","","","","","","","","","","",""
"3029","","test","audio-keyboard-response","192","432638","0.0-8.0-1.81","5f441dda761e0a72e306807d","condA","","resources/audio/wordStim/S3_AI_29_bxa_Step-8.wav","49","","","","","AI","resources/audio/wordStim/S3_AI_29_bxa_Step-8.wav","S3","29","bxa","8","MI","1","1","true"
"null","","fixation","html-keyboard-response","193","433640","0.0-8.0-0.82","5f441dda761e0a72e306807d","condA","","<div class=""vertical-center"" style='width:60%;'><p style='font-weight:bold;'>Does the middle word sound more like the first word (A) or the last word (B)?</p> <br> <div class=""container""> <div id=""a-box""> <p class=""title-text"">A</h3></p> </div> <div id=""x-box""> <p class=""title-text"">X<p> </div> <div id=""b-box""> <p class=""title-text"">B</p></div> <br> <div style='float: left;padding-left:30px;'><p>Press '1' for A</p></div><div style='float: right;padding-right:30px;'><p>Press '0' for B</p> </div> </div></div>","null","","","","","","","","","","","","","",""
"3261","","test","audio-keyboard-response","194","436899","0.0-8.0-1.82","5f441dda761e0a72e306807d","condA","","resources/audio/wordStim/S3_AU_18_axb_Step-3.wav","49","","","","","AU","resources/audio/wordStim/S3_AU_18_axb_Step-3.wav","S3","18","axb","3","MI","0","1","false"
"null","","fixation","html-keyboard-response","195","437901","0.0-8.0-0.83","5f441dda761e0a72e306807d","condA","","<div class=""vertical-center"" style='width:60%;'><p style='font-weight:bold;'>Does the middle word sound more like the first word (A) or the last word (B)?</p> <br> <div class=""container""> <div id=""a-box""> <p class=""title-text"">A</h3></p> </div> <div id=""x-box""> <p class=""title-text"">X<p> </div> <div id=""b-box""> <p class=""title-text"">B</p></div> <br> <div style='float: left;padding-left:30px;'><p>Press '1' for A</p></div><div style='float: right;padding-right:30px;'><p>Press '0' for B</p> </div> </div></div>","null","","","","","","","","","","","","","",""
"2960","","test","audio-keyboard-response","196","440859","0.0-8.0-1.83","5f441dda761e0a72e306807d","condA","","resources/audio/wordStim/S9_AU_13_axb_Step-3.wav","49","","","","","AU","resources/audio/wordStim/S9_AU_13_axb_Step-3.wav","S9","13","axb","3","CN","0","1","false"
"null","","fixation","html-keyboard-response","197","441861","0.0-8.0-0.84","5f441dda761e0a72e306807d","condA","","<div class=""vertical-center"" style='width:60%;'><p style='font-weight:bold;'>Does the middle word sound more like the first word (A) or the last word (B)?</p> <br> <div class=""container""> <div id=""a-box""> <p class=""title-text"">A</h3></p> </div> <div id=""x-box""> <p class=""title-text"">X<p> </div> <div id=""b-box""> <p class=""title-text"">B</p></div> <br> <div style='float: left;padding-left:30px;'><p>Press '1' for A</p></div><div style='float: right;padding-right:30px;'><p>Press '0' for B</p> </div> </div></div>","null","","","","","","","","","","","","","",""
"2669","","test","audio-keyboard-response","198","444537","0.0-8.0-1.84","5f441dda761e0a72e306807d","condA","","resources/audio/wordStim/S9_AI_27_axb_Step-3.wav","49","","","","","AI","resources/audio/wordStim/S9_AI_27_axb_Step-3.wav","S9","27","axb","3","CN","0","1","false"
"null","","fixation","html-keyboard-response","199","445539","0.0-8.0-0.85","5f441dda761e0a72e306807d","condA","","<div class=""vertical-center"" style='width:60%;'><p style='font-weight:bold;'>Does the middle word sound more like the first word (A) or the last word (B)?</p> <br> <div class=""container""> <div id=""a-box""> <p class=""title-text"">A</h3></p> </div> <div id=""x-box""> <p class=""title-text"">X<p> </div> <div id=""b-box""> <p class=""title-text"">B</p></div> <br> <div style='float: left;padding-left:30px;'><p>Press '1' for A</p></div><div style='float: right;padding-right:30px;'><p>Press '0' for B</p> </div> </div></div>","null","","","","","","","","","","","","","",""
"2419","","test","audio-keyboard-response","200","447960","0.0-8.0-1.85","5f441dda761e0a72e306807d","condA","","resources/audio/wordStim/S3_AI_21_axb_Step-7.wav","49","","","","","AI","resources/audio/wordStim/S3_AI_21_axb_Step-7.wav","S3","21","axb","7","MI","0","1","false"
"null","","fixation","html-keyboard-response","201","448963","0.0-8.0-0.86","5f441dda761e0a72e306807d","condA","","<div class=""vertical-center"" style='width:60%;'><p style='font-weight:bold;'>Does the middle word sound more like the first word (A) or the last word (B)?</p> <br> <div class=""container""> <div id=""a-box""> <p class=""title-text"">A</h3></p> </div> <div id=""x-box""> <p class=""title-text"">X<p> </div> <div id=""b-box""> <p class=""title-text"">B</p></div> <br> <div style='float: left;padding-left:30px;'><p>Press '1' for A</p></div><div style='float: right;padding-right:30px;'><p>Press '0' for B</p> </div> </div></div>","null","","","","","","","","","","","","","",""
"2760","","test","audio-keyboard-response","202","451720","0.0-8.0-1.86","5f441dda761e0a72e306807d","condA","","resources/audio/wordStim/S9_AI_23_axb_Step-3.wav","49","","","","","AI","resources/audio/wordStim/S9_AI_23_axb_Step-3.wav","S9","23","axb","3","CN","0","1","false"
"null","","fixation","html-keyboard-response","203","452722","0.0-8.0-0.87","5f441dda761e0a72e306807d","condA","","<div class=""vertical-center"" style='width:60%;'><p style='font-weight:bold;'>Does the middle word sound more like the first word (A) or the last word (B)?</p> <br> <div class=""container""> <div id=""a-box""> <p class=""title-text"">A</h3></p> </div> <div id=""x-box""> <p class=""title-text"">X<p> </div> <div id=""b-box""> <p class=""title-text"">B</p></div> <br> <div style='float: left;padding-left:30px;'><p>Press '1' for A</p></div><div style='float: right;padding-right:30px;'><p>Press '0' for B</p> </div> </div></div>","null","","","","","","","","","","","","","",""
"3261","","test","audio-keyboard-response","204","455985","0.0-8.0-1.87","5f441dda761e0a72e306807d","condA","","resources/audio/wordStim/S3_AU_17_bxa_Step-4.wav","49","","","","","AU","resources/audio/wordStim/S3_AU_17_bxa_Step-4.wav","S3","17","bxa","4","MI","1","1","true"
"null","","fixation","html-keyboard-response","205","456986","0.0-8.0-0.88","5f441dda761e0a72e306807d","condA","","<div class=""vertical-center"" style='width:60%;'><p style='font-weight:bold;'>Does the middle word sound more like the first word (A) or the last word (B)?</p> <br> <div class=""container""> <div id=""a-box""> <p class=""title-text"">A</h3></p> </div> <div id=""x-box""> <p class=""title-text"">X<p> </div> <div id=""b-box""> <p class=""title-text"">B</p></div> <br> <div style='float: left;padding-left:30px;'><p>Press '1' for A</p></div><div style='float: right;padding-right:30px;'><p>Press '0' for B</p> </div> </div></div>","null","","","","","","","","","","","","","",""
"4461","","test","audio-keyboard-response","206","461455","0.0-8.0-1.88","5f441dda761e0a72e306807d","condA","","resources/audio/wordStim/S3_AI_30_axb_Step-10.wav","49","","","","","AI","resources/audio/wordStim/S3_AI_30_axb_Step-10.wav","S3","30","axb","10","MI","0","1","false"
"null","","fixation","html-keyboard-response","207","462458","0.0-8.0-0.89","5f441dda761e0a72e306807d","condA","","<div class=""vertical-center"" style='width:60%;'><p style='font-weight:bold;'>Does the middle word sound more like the first word (A) or the last word (B)?</p> <br> <div class=""container""> <div id=""a-box""> <p class=""title-text"">A</h3></p> </div> <div id=""x-box""> <p class=""title-text"">X<p> </div> <div id=""b-box""> <p class=""title-text"">B</p></div> <br> <div style='float: left;padding-left:30px;'><p>Press '1' for A</p></div><div style='float: right;padding-right:30px;'><p>Press '0' for B</p> </div> </div></div>","null","","","","","","","","","","","","","",""
"2240","","test","audio-keyboard-response","208","464706","0.0-8.0-1.89","5f441dda761e0a72e306807d","condA","","resources/audio/wordStim/S3_AI_21_bxa_Step-4.wav","48","","","","","AI","resources/audio/wordStim/S3_AI_21_bxa_Step-4.wav","S3","21","bxa","4","MI","1","0","false"
"null","","fixation","html-keyboard-response","209","465708","0.0-8.0-0.90","5f441dda761e0a72e306807d","condA","","<div class=""vertical-center"" style='width:60%;'><p style='font-weight:bold;'>Does the middle word sound more like the first word (A) or the last word (B)?</p> <br> <div class=""container""> <div id=""a-box""> <p class=""title-text"">A</h3></p> </div> <div id=""x-box""> <p class=""title-text"">X<p> </div> <div id=""b-box""> <p class=""title-text"">B</p></div> <br> <div style='float: left;padding-left:30px;'><p>Press '1' for A</p></div><div style='float: right;padding-right:30px;'><p>Press '0' for B</p> </div> </div></div>","null","","","","","","","","","","","","","",""
"2611","","test","audio-keyboard-response","210","468325","0.0-8.0-1.90","5f441dda761e0a72e306807d","condA","","resources/audio/wordStim/S3_AI_23_axb_Step-10.wav","48","","","","","AI","resources/audio/wordStim/S3_AI_23_axb_Step-10.wav","S3","23","axb","10","MI","0","0","true"
"null","","fixation","html-keyboard-response","211","469327","0.0-8.0-0.91","5f441dda761e0a72e306807d","condA","","<div class=""vertical-center"" style='width:60%;'><p style='font-weight:bold;'>Does the middle word sound more like the first word (A) or the last word (B)?</p> <br> <div class=""container""> <div id=""a-box""> <p class=""title-text"">A</h3></p> </div> <div id=""x-box""> <p class=""title-text"">X<p> </div> <div id=""b-box""> <p class=""title-text"">B</p></div> <br> <div style='float: left;padding-left:30px;'><p>Press '1' for A</p></div><div style='float: right;padding-right:30px;'><p>Press '0' for B</p> </div> </div></div>","null","","","","","","","","","","","","","",""
"2669","","test","audio-keyboard-response","212","471994","0.0-8.0-1.91","5f441dda761e0a72e306807d","condA","","resources/audio/wordStim/S9_AU_13_axb_Step-9.wav","48","","","","","AU","resources/audio/wordStim/S9_AU_13_axb_Step-9.wav","S9","13","axb","9","CN","0","0","true"
"null","","fixation","html-keyboard-response","213","472998","0.0-8.0-0.92","5f441dda761e0a72e306807d","condA","","<div class=""vertical-center"" style='width:60%;'><p style='font-weight:bold;'>Does the middle word sound more like the first word (A) or the last word (B)?</p> <br> <div class=""container""> <div id=""a-box""> <p class=""title-text"">A</h3></p> </div> <div id=""x-box""> <p class=""title-text"">X<p> </div> <div id=""b-box""> <p class=""title-text"">B</p></div> <br> <div style='float: left;padding-left:30px;'><p>Press '1' for A</p></div><div style='float: right;padding-right:30px;'><p>Press '0' for B</p> </div> </div></div>","null","","","","","","","","","","","","","",""
"3040","","test","audio-keyboard-response","214","476040","0.0-8.0-1.92","5f441dda761e0a72e306807d","condA","","resources/audio/wordStim/S9_AI_29_axb_Step-3.wav","49","","","","","AI","resources/audio/wordStim/S9_AI_29_axb_Step-3.wav","S9","29","axb","3","CN","0","1","false"
"null","","fixation","html-keyboard-response","215","477042","0.0-8.0-0.93","5f441dda761e0a72e306807d","condA","","<div class=""vertical-center"" style='width:60%;'><p style='font-weight:bold;'>Does the middle word sound more like the first word (A) or the last word (B)?</p> <br> <div class=""container""> <div id=""a-box""> <p class=""title-text"">A</h3></p> </div> <div id=""x-box""> <p class=""title-text"">X<p> </div> <div id=""b-box""> <p class=""title-text"">B</p></div> <br> <div style='float: left;padding-left:30px;'><p>Press '1' for A</p></div><div style='float: right;padding-right:30px;'><p>Press '0' for B</p> </div> </div></div>","null","","","","","","","","","","","","","",""
