"rt","url","trial_role","trial_type","trial_index","time_elapsed","internal_node_id","participantId","conditionId","view_history","stimulus","key_press","button_pressed","correct_answer","correct_response","success","vowel","wordStim","speaker","sentNum","order","step","speakerIdentity","speakerGuise","guiseName","raised_answer","key_response","raised_response"
"7636.135000037029","micr.axb.consent.html","consent","external-html","0","7684","0.0-0.0","5ca25e9a722da90017a27cf3","condA","","","","","","","","","","","","","","","","","","",""
"76501.4899999369","","instructions","instructions","1","84195","0.0-1.0","5ca25e9a722da90017a27cf3","condA","[{""page_index"":0,""viewing_time"":33410.79999995418},{""page_index"":1,""viewing_time"":18074.69499995932},{""page_index"":2,""viewing_time"":25014.075000071898}]","","","","","","","","","","","","","","","","","",""
"null","","fixation","html-keyboard-response","2","84702","0.0-2.0-0.0-0.0","5ca25e9a722da90017a27cf3","condA","","<div class=""vertical-center"" style=""font-size:60px;"">+</div>","null","","","","","","","","","","","","","","","",""
"7728.995000012219","","tonetest","audio-button-response","3","92436","0.0-2.0-0.0-1.0","5ca25e9a722da90017a27cf3","condA","","../../src/audio/toneTest_4.wav","","0","1","false","","","","","","","","","","","","",""
"null","","fixation","html-keyboard-response","4","92943","0.0-2.0-0.0-0.1","5ca25e9a722da90017a27cf3","condA","","<div class=""vertical-center"" style=""font-size:60px;"">+</div>","null","","","","","","","","","","","","","","","",""
"4533.060000045225","","tonetest","audio-button-response","5","97479","0.0-2.0-0.0-1.1","5ca25e9a722da90017a27cf3","condA","","../../src/audio/toneTest_5.wav","","2","0","false","","","","","","","","","","","","",""
"null","","fixation","html-keyboard-response","6","97982","0.0-2.0-0.0-0.2","5ca25e9a722da90017a27cf3","condA","","<div class=""vertical-center"" style=""font-size:60px;"">+</div>","null","","","","","","","","","","","","","","","",""
"5470.044999849051","","tonetest","audio-button-response","7","103455","0.0-2.0-0.0-1.2","5ca25e9a722da90017a27cf3","condA","","../../src/audio/toneTest_6.wav","","1","0","false","","","","","","","","","","","","",""
"null","","fixation","html-keyboard-response","8","103961","0.0-2.0-0.0-0.3","5ca25e9a722da90017a27cf3","condA","","<div class=""vertical-center"" style=""font-size:60px;"">+</div>","null","","","","","","","","","","","","","","","",""
"5085.955000016838","","tonetest","audio-button-response","9","109051","0.0-2.0-0.0-1.3","5ca25e9a722da90017a27cf3","condA","","../../src/audio/toneTest_3.wav","","2","2","true","","","","","","","","","","","","",""
"null","","fixation","html-keyboard-response","10","109560","0.0-2.0-0.0-0.4","5ca25e9a722da90017a27cf3","condA","","<div class=""vertical-center"" style=""font-size:60px;"">+</div>","null","","","","","","","","","","","","","","","",""
"4294.16500008665","","tonetest","audio-button-response","11","113858","0.0-2.0-0.0-1.4","5ca25e9a722da90017a27cf3","condA","","../../src/audio/toneTest_5.wav","","0","0","true","","","","","","","","","","","","",""
"null","","fixation","html-keyboard-response","12","114361","0.0-2.0-0.0-0.5","5ca25e9a722da90017a27cf3","condA","","<div class=""vertical-center"" style=""font-size:60px;"">+</div>","null","","","","","","","","","","","","","","","",""
"4890.959999989718","","tonetest","audio-button-response","13","119255","0.0-2.0-0.0-1.5","5ca25e9a722da90017a27cf3","condA","","../../src/audio/toneTest_6.wav","","0","0","true","","","","","","","","","","","","",""
"99733.28000004403","","instructions","html-keyboard-response","14","218992","0.0-2.0-1.0-0.0","5ca25e9a722da90017a27cf3","condA","","<div class=""vertical-center""><p><b>Your score was 3/6.</b></p><p>If you scored below 5, please ensure that you are wearing properly functioning headphones and in a quiet location free of distractions. Then, press SPACE to repeat the audio test. </p><p><i>If you scored 5 or above, press SPACE to continue to the main experiment.</i></p></div>","32","","","","","","","","","","","","","","","",""
"null","","fixation","html-keyboard-response","15","219500","0.0-2.1-0.1-0.6","5ca25e9a722da90017a27cf3","condA","","<div class=""vertical-center"" style=""font-size:60px;"">+</div>","null","","","","","","","","","","","","","","","",""
"4693.880000151694","","tonetest","audio-button-response","16","224196","0.0-2.1-0.1-1.6","5ca25e9a722da90017a27cf3","condA","","../../src/audio/toneTest_6.wav","","0","0","true","","","","","","","","","","","","",""
"null","","fixation","html-keyboard-response","17","224700","0.0-2.1-0.1-0.7","5ca25e9a722da90017a27cf3","condA","","<div class=""vertical-center"" style=""font-size:60px;"">+</div>","null","","","","","","","","","","","","","","","",""
"4445.595000172034","","tonetest","audio-button-response","18","229148","0.0-2.1-0.1-1.7","5ca25e9a722da90017a27cf3","condA","","../../src/audio/toneTest_3.wav","","2","2","true","","","","","","","","","","","","",""
"null","","fixation","html-keyboard-response","19","229650","0.0-2.1-0.1-0.8","5ca25e9a722da90017a27cf3","condA","","<div class=""vertical-center"" style=""font-size:60px;"">+</div>","null","","","","","","","","","","","","","","","",""
"4147.204999811947","","tonetest","audio-button-response","20","233801","0.0-2.1-0.1-1.8","5ca25e9a722da90017a27cf3","condA","","../../src/audio/toneTest_2.wav","","1","1","true","","","","","","","","","","","","",""
"null","","fixation","html-keyboard-response","21","234307","0.0-2.1-0.1-0.9","5ca25e9a722da90017a27cf3","condA","","<div class=""vertical-center"" style=""font-size:60px;"">+</div>","null","","","","","","","","","","","","","","","",""
"4719.305000035092","","tonetest","audio-button-response","22","239030","0.0-2.1-0.1-1.9","5ca25e9a722da90017a27cf3","condA","","../../src/audio/toneTest_6.wav","","0","0","true","","","","","","","","","","","","",""
"null","","fixation","html-keyboard-response","23","239539","0.0-2.1-0.1-0.10","5ca25e9a722da90017a27cf3","condA","","<div class=""vertical-center"" style=""font-size:60px;"">+</div>","null","","","","","","","","","","","","","","","",""
"4304.6399999875575","","tonetest","audio-button-response","24","243847","0.0-2.1-0.1-1.10","5ca25e9a722da90017a27cf3","condA","","../../src/audio/toneTest_6.wav","","0","0","true","","","","","","","","","","","","",""
"null","","fixation","html-keyboard-response","25","244350","0.0-2.1-0.1-0.11","5ca25e9a722da90017a27cf3","condA","","<div class=""vertical-center"" style=""font-size:60px;"">+</div>","null","","","","","","","","","","","","","","","",""
"4341.659999918193","","tonetest","audio-button-response","26","248696","0.0-2.1-0.1-1.11","5ca25e9a722da90017a27cf3","condA","","../../src/audio/toneTest_4.wav","","1","1","true","","","","","","","","","","","","",""
"4384.120000060648","","instructions","html-keyboard-response","27","253082","0.0-2.1-1.1-0.1","5ca25e9a722da90017a27cf3","condA","","<div class=""vertical-center""><p><b>Your score was 6/6.</b></p><p>If you scored below 5, please ensure that you are wearing properly functioning headphones and in a quiet location free of distractions. Then, press SPACE to repeat the audio test. </p><p><i>If you scored 5 or above, press SPACE to continue to the main experiment.</i></p></div>","32","","","","","","","","","","","","","","","",""
"","","","fullscreen","28","258129","0.0-3.0","5ca25e9a722da90017a27cf3","condA","","","","","","","true","","","","","","","","","","","",""
"90893.9600000158","","instructions","instructions","29","349025","0.0-4.0","5ca25e9a722da90017a27cf3","condA","[{""page_index"":0,""viewing_time"":90893.55000015348}]","","","","","","","","","","","","","","","","","",""
"null","","fixation","html-keyboard-response","30","349535","0.0-5.0-0.0","5ca25e9a722da90017a27cf3","condA","","<div class=""vertical-center"" style='width:60%;'><p style='font-weight:bold;'>Does the middle word sound more like the first word (A) or the last word (B)?</p> <br> <div class=""container""> <div id=""a-box""> <p class=""title-text"">A</h3></p> </div> <div id=""x-box""> <p class=""title-text"">X<p> </div> <div id=""b-box""> <p class=""title-text"">B</p></div> <br> <div style='float: left;padding-left:30px;'><p>Press '1' for A</p></div><div style='float: right;padding-right:30px;'><p>Press '0' for B</p> </div> </div></div>","null","","","","","","","","","","","","","","","",""
"4800","","practice","audio-keyboard-response","31","354400","0.0-5.0-1.0","5ca25e9a722da90017a27cf3","condA","","resources/audio/practiceStim/S1_AU_14_axb_Step-6.wav","49","","","","","","","","","","","","","","","",""
"null","","fixation","html-keyboard-response","32","355414","0.0-5.0-0.1","5ca25e9a722da90017a27cf3","condA","","<div class=""vertical-center"" style='width:60%;'><p style='font-weight:bold;'>Does the middle word sound more like the first word (A) or the last word (B)?</p> <br> <div class=""container""> <div id=""a-box""> <p class=""title-text"">A</h3></p> </div> <div id=""x-box""> <p class=""title-text"">X<p> </div> <div id=""b-box""> <p class=""title-text"">B</p></div> <br> <div style='float: left;padding-left:30px;'><p>Press '1' for A</p></div><div style='float: right;padding-right:30px;'><p>Press '0' for B</p> </div> </div></div>","null","","","","","","","","","","","","","","","",""
"2619","","practice","audio-keyboard-response","33","358037","0.0-5.0-1.1","5ca25e9a722da90017a27cf3","condA","","resources/audio/practiceStim/S1_AU_14_bxa_Step-6.wav","49","","","","","","","","","","","","","","","",""
"null","","fixation","html-keyboard-response","34","359054","0.0-5.0-0.2","5ca25e9a722da90017a27cf3","condA","","<div class=""vertical-center"" style='width:60%;'><p style='font-weight:bold;'>Does the middle word sound more like the first word (A) or the last word (B)?</p> <br> <div class=""container""> <div id=""a-box""> <p class=""title-text"">A</h3></p> </div> <div id=""x-box""> <p class=""title-text"">X<p> </div> <div id=""b-box""> <p class=""title-text"">B</p></div> <br> <div style='float: left;padding-left:30px;'><p>Press '1' for A</p></div><div style='float: right;padding-right:30px;'><p>Press '0' for B</p> </div> </div></div>","null","","","","","","","","","","","","","","","",""
"3080","","practice","audio-keyboard-response","35","362136","0.0-5.0-1.2","5ca25e9a722da90017a27cf3","condA","","resources/audio/practiceStim/S1_AI_21_axb_Step-6.wav","49","","","","","","","","","","","","","","","",""
"null","","fixation","html-keyboard-response","36","363154","0.0-5.0-0.3","5ca25e9a722da90017a27cf3","condA","","<div class=""vertical-center"" style='width:60%;'><p style='font-weight:bold;'>Does the middle word sound more like the first word (A) or the last word (B)?</p> <br> <div class=""container""> <div id=""a-box""> <p class=""title-text"">A</h3></p> </div> <div id=""x-box""> <p class=""title-text"">X<p> </div> <div id=""b-box""> <p class=""title-text"">B</p></div> <br> <div style='float: left;padding-left:30px;'><p>Press '1' for A</p></div><div style='float: right;padding-right:30px;'><p>Press '0' for B</p> </div> </div></div>","null","","","","","","","","","","","","","","","",""
"4400","","practice","audio-keyboard-response","37","367556","0.0-5.0-1.3","5ca25e9a722da90017a27cf3","condA","","resources/audio/practiceStim/S1_AI_21_bxa_Step-6.wav","48","","","","","","","","","","","","","","","",""
"8972.865000134334","","instructions","instructions","38","377038","0.0-6.0","5ca25e9a722da90017a27cf3","condA","[{""page_index"":0,""viewing_time"":8972.47500019148}]","","","","","","","","","","","","","","","","","",""
"6007.974999956787","","","html-keyboard-response","39","383058","0.0-7.0","5ca25e9a722da90017a27cf3","condA","","<div class=""vertical-center""><img src=""resources/images/US_face_a.png"" style=""width:450px;height:300px;""><p>This is the speaker you're about to hear. She is from Detroit, Michigan.</p><p> <br> <i>Press SPACE to continue.</i></p></div>","32","","","","","","","","","","","","","","","",""
"null","","fixation","html-keyboard-response","40","383564","0.0-8.0-0.0","5ca25e9a722da90017a27cf3","condA","","<div class=""vertical-center"" style='width:60%;'><img src=""resources/images/US_flag_100x52.jpg"" style=""width:100px;height:52px;opacity:0.35;""> <br> <br> <p style='font-weight:bold;'>Does the middle word sound more like the first word (A) or the last word (B)?</p> <br> <div class=""container""> <div id=""a-box""> <p class=""title-text"">A</h3></p> </div> <div id=""x-box""> <p class=""title-text"">X<p> </div> <div id=""b-box""> <p class=""title-text"">B</p></div> <br> <div style='float: left;padding-left:30px;'><p>Press '1' for A</p></div><div style='float: right;padding-right:30px;'><p>Press '0' for B</p> </div> </div></div>","null","","","","","","","","","","","","","","","",""
"5549","","test","audio-keyboard-response","41","389118","0.0-8.0-1.0","5ca25e9a722da90017a27cf3","condA","","resources/audio/wordStim/S3_AI_22_bxa_Step-8.wav","49","","","","","","resources/audio/wordStim/S3_AI_22_bxa_Step-8.wav","S3","22","bxa","8","MI","MI","S3-MI","1","1","true"
"null","","fixation","html-keyboard-response","42","390134","0.0-8.0-0.1","5ca25e9a722da90017a27cf3","condA","","<div class=""vertical-center"" style='width:60%;'><img src=""resources/images/US_flag_100x52.jpg"" style=""width:100px;height:52px;opacity:0.35;""> <br> <br> <p style='font-weight:bold;'>Does the middle word sound more like the first word (A) or the last word (B)?</p> <br> <div class=""container""> <div id=""a-box""> <p class=""title-text"">A</h3></p> </div> <div id=""x-box""> <p class=""title-text"">X<p> </div> <div id=""b-box""> <p class=""title-text"">B</p></div> <br> <div style='float: left;padding-left:30px;'><p>Press '1' for A</p></div><div style='float: right;padding-right:30px;'><p>Press '0' for B</p> </div> </div></div>","null","","","","","","","","","","","","","","","",""
"4379","","test","audio-keyboard-response","43","394525","0.0-8.0-1.1","5ca25e9a722da90017a27cf3","condA","","resources/audio/wordStim/S3_AI_30_axb_Step-7.wav","49","","","","","","resources/audio/wordStim/S3_AI_30_axb_Step-7.wav","S3","30","axb","7","MI","MI","S3-MI","0","1","false"
"null","","fixation","html-keyboard-response","44","395545","0.0-8.0-0.2","5ca25e9a722da90017a27cf3","condA","","<div class=""vertical-center"" style='width:60%;'><img src=""resources/images/US_flag_100x52.jpg"" style=""width:100px;height:52px;opacity:0.35;""> <br> <br> <p style='font-weight:bold;'>Does the middle word sound more like the first word (A) or the last word (B)?</p> <br> <div class=""container""> <div id=""a-box""> <p class=""title-text"">A</h3></p> </div> <div id=""x-box""> <p class=""title-text"">X<p> </div> <div id=""b-box""> <p class=""title-text"">B</p></div> <br> <div style='float: left;padding-left:30px;'><p>Press '1' for A</p></div><div style='float: right;padding-right:30px;'><p>Press '0' for B</p> </div> </div></div>","null","","","","","","","","","","","","","","","",""
"4149","","test","audio-keyboard-response","45","399699","0.0-8.0-1.2","5ca25e9a722da90017a27cf3","condA","","resources/audio/wordStim/S3_AU_20_bxa_Step-3.wav","49","","","","","","resources/audio/wordStim/S3_AU_20_bxa_Step-3.wav","S3","20","bxa","3","MI","MI","S3-MI","1","1","true"
"null","","fixation","html-keyboard-response","46","400712","0.0-8.0-0.3","5ca25e9a722da90017a27cf3","condA","","<div class=""vertical-center"" style='width:60%;'><img src=""resources/images/US_flag_100x52.jpg"" style=""width:100px;height:52px;opacity:0.35;""> <br> <br> <p style='font-weight:bold;'>Does the middle word sound more like the first word (A) or the last word (B)?</p> <br> <div class=""container""> <div id=""a-box""> <p class=""title-text"">A</h3></p> </div> <div id=""x-box""> <p class=""title-text"">X<p> </div> <div id=""b-box""> <p class=""title-text"">B</p></div> <br> <div style='float: left;padding-left:30px;'><p>Press '1' for A</p></div><div style='float: right;padding-right:30px;'><p>Press '0' for B</p> </div> </div></div>","null","","","","","","","","","","","","","","","",""
"3448","","test","audio-keyboard-response","47","404162","0.0-8.0-1.3","5ca25e9a722da90017a27cf3","condA","","resources/audio/wordStim/S3_AU_19_axb_Step-6.wav","49","","","","","","resources/audio/wordStim/S3_AU_19_axb_Step-6.wav","S3","19","axb","6","MI","MI","S3-MI","0","1","false"
"null","","fixation","html-keyboard-response","48","405175","0.0-8.0-0.4","5ca25e9a722da90017a27cf3","condA","","<div class=""vertical-center"" style='width:60%;'><img src=""resources/images/US_flag_100x52.jpg"" style=""width:100px;height:52px;opacity:0.35;""> <br> <br> <p style='font-weight:bold;'>Does the middle word sound more like the first word (A) or the last word (B)?</p> <br> <div class=""container""> <div id=""a-box""> <p class=""title-text"">A</h3></p> </div> <div id=""x-box""> <p class=""title-text"">X<p> </div> <div id=""b-box""> <p class=""title-text"">B</p></div> <br> <div style='float: left;padding-left:30px;'><p>Press '1' for A</p></div><div style='float: right;padding-right:30px;'><p>Press '0' for B</p> </div> </div></div>","null","","","","","","","","","","","","","","","",""
"4109","","test","audio-keyboard-response","49","409286","0.0-8.0-1.4","5ca25e9a722da90017a27cf3","condA","","resources/audio/wordStim/S3_AU_20_bxa_Step-2.wav","49","","","","","","resources/audio/wordStim/S3_AU_20_bxa_Step-2.wav","S3","20","bxa","2","MI","MI","S3-MI","1","1","true"
"null","","fixation","html-keyboard-response","50","410304","0.0-8.0-0.5","5ca25e9a722da90017a27cf3","condA","","<div class=""vertical-center"" style='width:60%;'><img src=""resources/images/US_flag_100x52.jpg"" style=""width:100px;height:52px;opacity:0.35;""> <br> <br> <p style='font-weight:bold;'>Does the middle word sound more like the first word (A) or the last word (B)?</p> <br> <div class=""container""> <div id=""a-box""> <p class=""title-text"">A</h3></p> </div> <div id=""x-box""> <p class=""title-text"">X<p> </div> <div id=""b-box""> <p class=""title-text"">B</p></div> <br> <div style='float: left;padding-left:30px;'><p>Press '1' for A</p></div><div style='float: right;padding-right:30px;'><p>Press '0' for B</p> </div> </div></div>","null","","","","","","","","","","","","","","","",""
"3989","","test","audio-keyboard-response","51","414297","0.0-8.0-1.5","5ca25e9a722da90017a27cf3","condA","","resources/audio/wordStim/S3_AU_19_axb_Step-4.wav","48","","","","","","resources/audio/wordStim/S3_AU_19_axb_Step-4.wav","S3","19","axb","4","MI","MI","S3-MI","0","0","true"
"null","","fixation","html-keyboard-response","52","415315","0.0-8.0-0.6","5ca25e9a722da90017a27cf3","condA","","<div class=""vertical-center"" style='width:60%;'><img src=""resources/images/US_flag_100x52.jpg"" style=""width:100px;height:52px;opacity:0.35;""> <br> <br> <p style='font-weight:bold;'>Does the middle word sound more like the first word (A) or the last word (B)?</p> <br> <div class=""container""> <div id=""a-box""> <p class=""title-text"">A</h3></p> </div> <div id=""x-box""> <p class=""title-text"">X<p> </div> <div id=""b-box""> <p class=""title-text"">B</p></div> <br> <div style='float: left;padding-left:30px;'><p>Press '1' for A</p></div><div style='float: right;padding-right:30px;'><p>Press '0' for B</p> </div> </div></div>","null","","","","","","","","","","","","","","","",""
"4392","","test","audio-keyboard-response","53","419705","0.0-8.0-1.6","5ca25e9a722da90017a27cf3","condA","","resources/audio/wordStim/S3_AU_19_bxa_Step-4.wav","48","","","","","","resources/audio/wordStim/S3_AU_19_bxa_Step-4.wav","S3","19","bxa","4","MI","MI","S3-MI","1","0","false"
"null","","fixation","html-keyboard-response","54","420723","0.0-8.0-0.7","5ca25e9a722da90017a27cf3","condA","","<div class=""vertical-center"" style='width:60%;'><img src=""resources/images/US_flag_100x52.jpg"" style=""width:100px;height:52px;opacity:0.35;""> <br> <br> <p style='font-weight:bold;'>Does the middle word sound more like the first word (A) or the last word (B)?</p> <br> <div class=""container""> <div id=""a-box""> <p class=""title-text"">A</h3></p> </div> <div id=""x-box""> <p class=""title-text"">X<p> </div> <div id=""b-box""> <p class=""title-text"">B</p></div> <br> <div style='float: left;padding-left:30px;'><p>Press '1' for A</p></div><div style='float: right;padding-right:30px;'><p>Press '0' for B</p> </div> </div></div>","null","","","","","","","","","","","","","","","",""
"3131","","test","audio-keyboard-response","55","423855","0.0-8.0-1.7","5ca25e9a722da90017a27cf3","condA","","resources/audio/wordStim/S3_AU_19_bxa_Step-7.wav","49","","","","","","resources/audio/wordStim/S3_AU_19_bxa_Step-7.wav","S3","19","bxa","7","MI","MI","S3-MI","1","1","true"
"null","","fixation","html-keyboard-response","56","424864","0.0-8.0-0.8","5ca25e9a722da90017a27cf3","condA","","<div class=""vertical-center"" style='width:60%;'><img src=""resources/images/US_flag_100x52.jpg"" style=""width:100px;height:52px;opacity:0.35;""> <br> <br> <p style='font-weight:bold;'>Does the middle word sound more like the first word (A) or the last word (B)?</p> <br> <div class=""container""> <div id=""a-box""> <p class=""title-text"">A</h3></p> </div> <div id=""x-box""> <p class=""title-text"">X<p> </div> <div id=""b-box""> <p class=""title-text"">B</p></div> <br> <div style='float: left;padding-left:30px;'><p>Press '1' for A</p></div><div style='float: right;padding-right:30px;'><p>Press '0' for B</p> </div> </div></div>","null","","","","","","","","","","","","","","","",""
"4299","","test","audio-keyboard-response","57","429171","0.0-8.0-1.8","5ca25e9a722da90017a27cf3","condA","","resources/audio/wordStim/S3_AU_20_axb_Step-5.wav","49","","","","","","resources/audio/wordStim/S3_AU_20_axb_Step-5.wav","S3","20","axb","5","MI","MI","S3-MI","0","1","false"
"null","","fixation","html-keyboard-response","58","430185","0.0-8.0-0.9","5ca25e9a722da90017a27cf3","condA","","<div class=""vertical-center"" style='width:60%;'><img src=""resources/images/US_flag_100x52.jpg"" style=""width:100px;height:52px;opacity:0.35;""> <br> <br> <p style='font-weight:bold;'>Does the middle word sound more like the first word (A) or the last word (B)?</p> <br> <div class=""container""> <div id=""a-box""> <p class=""title-text"">A</h3></p> </div> <div id=""x-box""> <p class=""title-text"">X<p> </div> <div id=""b-box""> <p class=""title-text"">B</p></div> <br> <div style='float: left;padding-left:30px;'><p>Press '1' for A</p></div><div style='float: right;padding-right:30px;'><p>Press '0' for B</p> </div> </div></div>","null","","","","","","","","","","","","","","","",""
"3968","","test","audio-keyboard-response","59","434160","0.0-8.0-1.9","5ca25e9a722da90017a27cf3","condA","","resources/audio/wordStim/S3_AU_20_bxa_Step-6.wav","49","","","","","","resources/audio/wordStim/S3_AU_20_bxa_Step-6.wav","S3","20","bxa","6","MI","MI","S3-MI","1","1","true"
"null","","fixation","html-keyboard-response","60","435174","0.0-8.0-0.10","5ca25e9a722da90017a27cf3","condA","","<div class=""vertical-center"" style='width:60%;'><img src=""resources/images/US_flag_100x52.jpg"" style=""width:100px;height:52px;opacity:0.35;""> <br> <br> <p style='font-weight:bold;'>Does the middle word sound more like the first word (A) or the last word (B)?</p> <br> <div class=""container""> <div id=""a-box""> <p class=""title-text"">A</h3></p> </div> <div id=""x-box""> <p class=""title-text"">X<p> </div> <div id=""b-box""> <p class=""title-text"">B</p></div> <br> <div style='float: left;padding-left:30px;'><p>Press '1' for A</p></div><div style='float: right;padding-right:30px;'><p>Press '0' for B</p> </div> </div></div>","null","","","","","","","","","","","","","","","",""
"3291","","test","audio-keyboard-response","61","438471","0.0-8.0-1.10","5ca25e9a722da90017a27cf3","condA","","resources/audio/wordStim/S3_AI_21_axb_Step-5.wav","49","","","","","","resources/audio/wordStim/S3_AI_21_axb_Step-5.wav","S3","21","axb","5","MI","MI","S3-MI","0","1","false"
"null","","fixation","html-keyboard-response","62","439484","0.0-8.0-0.11","5ca25e9a722da90017a27cf3","condA","","<div class=""vertical-center"" style='width:60%;'><img src=""resources/images/US_flag_100x52.jpg"" style=""width:100px;height:52px;opacity:0.35;""> <br> <br> <p style='font-weight:bold;'>Does the middle word sound more like the first word (A) or the last word (B)?</p> <br> <div class=""container""> <div id=""a-box""> <p class=""title-text"">A</h3></p> </div> <div id=""x-box""> <p class=""title-text"">X<p> </div> <div id=""b-box""> <p class=""title-text"">B</p></div> <br> <div style='float: left;padding-left:30px;'><p>Press '1' for A</p></div><div style='float: right;padding-right:30px;'><p>Press '0' for B</p> </div> </div></div>","null","","","","","","","","","","","","","","","",""
"2829","","test","audio-keyboard-response","63","442319","0.0-8.0-1.11","5ca25e9a722da90017a27cf3","condA","","resources/audio/wordStim/S3_AI_21_bxa_Step-7.wav","49","","","","","","resources/audio/wordStim/S3_AI_21_bxa_Step-7.wav","S3","21","bxa","7","MI","MI","S3-MI","1","1","true"
"null","","fixation","html-keyboard-response","64","443335","0.0-8.0-0.12","5ca25e9a722da90017a27cf3","condA","","<div class=""vertical-center"" style='width:60%;'><img src=""resources/images/US_flag_100x52.jpg"" style=""width:100px;height:52px;opacity:0.35;""> <br> <br> <p style='font-weight:bold;'>Does the middle word sound more like the first word (A) or the last word (B)?</p> <br> <div class=""container""> <div id=""a-box""> <p class=""title-text"">A</h3></p> </div> <div id=""x-box""> <p class=""title-text"">X<p> </div> <div id=""b-box""> <p class=""title-text"">B</p></div> <br> <div style='float: left;padding-left:30px;'><p>Press '1' for A</p></div><div style='float: right;padding-right:30px;'><p>Press '0' for B</p> </div> </div></div>","null","","","","","","","","","","","","","","","",""
"3549","","test","audio-keyboard-response","65","446892","0.0-8.0-1.12","5ca25e9a722da90017a27cf3","condA","","resources/audio/wordStim/S3_AU_20_axb_Step-7.wav","49","","","","","","resources/audio/wordStim/S3_AU_20_axb_Step-7.wav","S3","20","axb","7","MI","MI","S3-MI","0","1","false"
"null","","fixation","html-keyboard-response","66","447904","0.0-8.0-0.13","5ca25e9a722da90017a27cf3","condA","","<div class=""vertical-center"" style='width:60%;'><img src=""resources/images/US_flag_100x52.jpg"" style=""width:100px;height:52px;opacity:0.35;""> <br> <br> <p style='font-weight:bold;'>Does the middle word sound more like the first word (A) or the last word (B)?</p> <br> <div class=""container""> <div id=""a-box""> <p class=""title-text"">A</h3></p> </div> <div id=""x-box""> <p class=""title-text"">X<p> </div> <div id=""b-box""> <p class=""title-text"">B</p></div> <br> <div style='float: left;padding-left:30px;'><p>Press '1' for A</p></div><div style='float: right;padding-right:30px;'><p>Press '0' for B</p> </div> </div></div>","null","","","","","","","","","","","","","","","",""
"4589","","test","audio-keyboard-response","67","452498","0.0-8.0-1.13","5ca25e9a722da90017a27cf3","condA","","resources/audio/wordStim/S3_AI_22_axb_Step-6.wav","49","","","","","","resources/audio/wordStim/S3_AI_22_axb_Step-6.wav","S3","22","axb","6","MI","MI","S3-MI","0","1","false"
"null","","fixation","html-keyboard-response","68","453512","0.0-8.0-0.14","5ca25e9a722da90017a27cf3","condA","","<div class=""vertical-center"" style='width:60%;'><img src=""resources/images/US_flag_100x52.jpg"" style=""width:100px;height:52px;opacity:0.35;""> <br> <br> <p style='font-weight:bold;'>Does the middle word sound more like the first word (A) or the last word (B)?</p> <br> <div class=""container""> <div id=""a-box""> <p class=""title-text"">A</h3></p> </div> <div id=""x-box""> <p class=""title-text"">X<p> </div> <div id=""b-box""> <p class=""title-text"">B</p></div> <br> <div style='float: left;padding-left:30px;'><p>Press '1' for A</p></div><div style='float: right;padding-right:30px;'><p>Press '0' for B</p> </div> </div></div>","null","","","","","","","","","","","","","","","",""
"3040","","test","audio-keyboard-response","69","456555","0.0-8.0-1.14","5ca25e9a722da90017a27cf3","condA","","resources/audio/wordStim/S3_AI_21_axb_Step-4.wav","49","","","","","","resources/audio/wordStim/S3_AI_21_axb_Step-4.wav","S3","21","axb","4","MI","MI","S3-MI","0","1","false"
"null","","fixation","html-keyboard-response","70","457574","0.0-8.0-0.15","5ca25e9a722da90017a27cf3","condA","","<div class=""vertical-center"" style='width:60%;'><img src=""resources/images/US_flag_100x52.jpg"" style=""width:100px;height:52px;opacity:0.35;""> <br> <br> <p style='font-weight:bold;'>Does the middle word sound more like the first word (A) or the last word (B)?</p> <br> <div class=""container""> <div id=""a-box""> <p class=""title-text"">A</h3></p> </div> <div id=""x-box""> <p class=""title-text"">X<p> </div> <div id=""b-box""> <p class=""title-text"">B</p></div> <br> <div style='float: left;padding-left:30px;'><p>Press '1' for A</p></div><div style='float: right;padding-right:30px;'><p>Press '0' for B</p> </div> </div></div>","null","","","","","","","","","","","","","","","",""
"3459","","test","audio-keyboard-response","71","461036","0.0-8.0-1.15","5ca25e9a722da90017a27cf3","condA","","resources/audio/wordStim/S3_AI_30_bxa_Step-5.wav","49","","","","","","resources/audio/wordStim/S3_AI_30_bxa_Step-5.wav","S3","30","bxa","5","MI","MI","S3-MI","1","1","true"
"null","","fixation","html-keyboard-response","72","462054","0.0-8.0-0.16","5ca25e9a722da90017a27cf3","condA","","<div class=""vertical-center"" style='width:60%;'><img src=""resources/images/US_flag_100x52.jpg"" style=""width:100px;height:52px;opacity:0.35;""> <br> <br> <p style='font-weight:bold;'>Does the middle word sound more like the first word (A) or the last word (B)?</p> <br> <div class=""container""> <div id=""a-box""> <p class=""title-text"">A</h3></p> </div> <div id=""x-box""> <p class=""title-text"">X<p> </div> <div id=""b-box""> <p class=""title-text"">B</p></div> <br> <div style='float: left;padding-left:30px;'><p>Press '1' for A</p></div><div style='float: right;padding-right:30px;'><p>Press '0' for B</p> </div> </div></div>","null","","","","","","","","","","","","","","","",""
"3251","","test","audio-keyboard-response","73","465306","0.0-8.0-1.16","5ca25e9a722da90017a27cf3","condA","","resources/audio/wordStim/S3_AU_20_axb_Step-3.wav","49","","","","","","resources/audio/wordStim/S3_AU_20_axb_Step-3.wav","S3","20","axb","3","MI","MI","S3-MI","0","1","false"
"null","","fixation","html-keyboard-response","74","466324","0.0-8.0-0.17","5ca25e9a722da90017a27cf3","condA","","<div class=""vertical-center"" style='width:60%;'><img src=""resources/images/US_flag_100x52.jpg"" style=""width:100px;height:52px;opacity:0.35;""> <br> <br> <p style='font-weight:bold;'>Does the middle word sound more like the first word (A) or the last word (B)?</p> <br> <div class=""container""> <div id=""a-box""> <p class=""title-text"">A</h3></p> </div> <div id=""x-box""> <p class=""title-text"">X<p> </div> <div id=""b-box""> <p class=""title-text"">B</p></div> <br> <div style='float: left;padding-left:30px;'><p>Press '1' for A</p></div><div style='float: right;padding-right:30px;'><p>Press '0' for B</p> </div> </div></div>","null","","","","","","","","","","","","","","","",""
"4491","","test","audio-keyboard-response","75","470818","0.0-8.0-1.17","5ca25e9a722da90017a27cf3","condA","","resources/audio/wordStim/S3_AU_18_bxa_Step-3.wav","49","","","","","","resources/audio/wordStim/S3_AU_18_bxa_Step-3.wav","S3","18","bxa","3","MI","MI","S3-MI","1","1","true"
"null","","fixation","html-keyboard-response","76","471833","0.0-8.0-0.18","5ca25e9a722da90017a27cf3","condA","","<div class=""vertical-center"" style='width:60%;'><img src=""resources/images/US_flag_100x52.jpg"" style=""width:100px;height:52px;opacity:0.35;""> <br> <br> <p style='font-weight:bold;'>Does the middle word sound more like the first word (A) or the last word (B)?</p> <br> <div class=""container""> <div id=""a-box""> <p class=""title-text"">A</h3></p> </div> <div id=""x-box""> <p class=""title-text"">X<p> </div> <div id=""b-box""> <p class=""title-text"">B</p></div> <br> <div style='float: left;padding-left:30px;'><p>Press '1' for A</p></div><div style='float: right;padding-right:30px;'><p>Press '0' for B</p> </div> </div></div>","null","","","","","","","","","","","","","","","",""
"2960","","test","audio-keyboard-response","77","474793","0.0-8.0-1.18","5ca25e9a722da90017a27cf3","condA","","resources/audio/wordStim/S3_AU_20_axb_Step-4.wav","48","","","","","","resources/audio/wordStim/S3_AU_20_axb_Step-4.wav","S3","20","axb","4","MI","MI","S3-MI","0","0","true"
"null","","fixation","html-keyboard-response","78","475804","0.0-8.0-0.19","5ca25e9a722da90017a27cf3","condA","","<div class=""vertical-center"" style='width:60%;'><img src=""resources/images/US_flag_100x52.jpg"" style=""width:100px;height:52px;opacity:0.35;""> <br> <br> <p style='font-weight:bold;'>Does the middle word sound more like the first word (A) or the last word (B)?</p> <br> <div class=""container""> <div id=""a-box""> <p class=""title-text"">A</h3></p> </div> <div id=""x-box""> <p class=""title-text"">X<p> </div> <div id=""b-box""> <p class=""title-text"">B</p></div> <br> <div style='float: left;padding-left:30px;'><p>Press '1' for A</p></div><div style='float: right;padding-right:30px;'><p>Press '0' for B</p> </div> </div></div>","null","","","","","","","","","","","","","","","",""
"3520","","test","audio-keyboard-response","79","479335","0.0-8.0-1.19","5ca25e9a722da90017a27cf3","condA","","resources/audio/wordStim/S3_AI_22_bxa_Step-3.wav","49","","","","","","resources/audio/wordStim/S3_AI_22_bxa_Step-3.wav","S3","22","bxa","3","MI","MI","S3-MI","1","1","true"
"null","","fixation","html-keyboard-response","80","480355","0.0-8.0-0.20","5ca25e9a722da90017a27cf3","condA","","<div class=""vertical-center"" style='width:60%;'><img src=""resources/images/US_flag_100x52.jpg"" style=""width:100px;height:52px;opacity:0.35;""> <br> <br> <p style='font-weight:bold;'>Does the middle word sound more like the first word (A) or the last word (B)?</p> <br> <div class=""container""> <div id=""a-box""> <p class=""title-text"">A</h3></p> </div> <div id=""x-box""> <p class=""title-text"">X<p> </div> <div id=""b-box""> <p class=""title-text"">B</p></div> <br> <div style='float: left;padding-left:30px;'><p>Press '1' for A</p></div><div style='float: right;padding-right:30px;'><p>Press '0' for B</p> </div> </div></div>","null","","","","","","","","","","","","","","","",""
"2920","","test","audio-keyboard-response","81","483281","0.0-8.0-1.20","5ca25e9a722da90017a27cf3","condA","","resources/audio/wordStim/S3_AU_19_bxa_Step-8.wav","49","","","","","","resources/audio/wordStim/S3_AU_19_bxa_Step-8.wav","S3","19","bxa","8","MI","MI","S3-MI","1","1","true"
"49171.86000011861","","break","html-keyboard-response","82","532958","0.0-8.0-2.20-0.20","5ca25e9a722da90017a27cf3","condA","","<div class=""vertical-center""><p>Feel free to take a break!</p><i>When you're ready to continue, press SPACE to begin the next trial.</i></p></div>","32","","","","","","","","","","","","","","","",""
"null","","fixation","html-keyboard-response","83","533462","0.0-8.0-0.21","5ca25e9a722da90017a27cf3","condA","","<div class=""vertical-center"" style='width:60%;'><img src=""resources/images/US_flag_100x52.jpg"" style=""width:100px;height:52px;opacity:0.35;""> <br> <br> <p style='font-weight:bold;'>Does the middle word sound more like the first word (A) or the last word (B)?</p> <br> <div class=""container""> <div id=""a-box""> <p class=""title-text"">A</h3></p> </div> <div id=""x-box""> <p class=""title-text"">X<p> </div> <div id=""b-box""> <p class=""title-text"">B</p></div> <br> <div style='float: left;padding-left:30px;'><p>Press '1' for A</p></div><div style='float: right;padding-right:30px;'><p>Press '0' for B</p> </div> </div></div>","null","","","","","","","","","","","","","","","",""
"4901","","test","audio-keyboard-response","84","538454","0.0-8.0-1.21","5ca25e9a722da90017a27cf3","condA","","resources/audio/wordStim/S3_AU_18_bxa_Step-4.wav","48","","","","","","resources/audio/wordStim/S3_AU_18_bxa_Step-4.wav","S3","18","bxa","4","MI","MI","S3-MI","1","0","false"
"null","","fixation","html-keyboard-response","85","539470","0.0-8.0-0.22","5ca25e9a722da90017a27cf3","condA","","<div class=""vertical-center"" style='width:60%;'><img src=""resources/images/US_flag_100x52.jpg"" style=""width:100px;height:52px;opacity:0.35;""> <br> <br> <p style='font-weight:bold;'>Does the middle word sound more like the first word (A) or the last word (B)?</p> <br> <div class=""container""> <div id=""a-box""> <p class=""title-text"">A</h3></p> </div> <div id=""x-box""> <p class=""title-text"">X<p> </div> <div id=""b-box""> <p class=""title-text"">B</p></div> <br> <div style='float: left;padding-left:30px;'><p>Press '1' for A</p></div><div style='float: right;padding-right:30px;'><p>Press '0' for B</p> </div> </div></div>","null","","","","","","","","","","","","","","","",""
"3648","","test","audio-keyboard-response","86","543122","0.0-8.0-1.22","5ca25e9a722da90017a27cf3","condA","","resources/audio/wordStim/S3_AI_30_bxa_Step-7.wav","49","","","","","","resources/audio/wordStim/S3_AI_30_bxa_Step-7.wav","S3","30","bxa","7","MI","MI","S3-MI","1","1","true"
"null","","fixation","html-keyboard-response","87","544142","0.0-8.0-0.23","5ca25e9a722da90017a27cf3","condA","","<div class=""vertical-center"" style='width:60%;'><img src=""resources/images/US_flag_100x52.jpg"" style=""width:100px;height:52px;opacity:0.35;""> <br> <br> <p style='font-weight:bold;'>Does the middle word sound more like the first word (A) or the last word (B)?</p> <br> <div class=""container""> <div id=""a-box""> <p class=""title-text"">A</h3></p> </div> <div id=""x-box""> <p class=""title-text"">X<p> </div> <div id=""b-box""> <p class=""title-text"">B</p></div> <br> <div style='float: left;padding-left:30px;'><p>Press '1' for A</p></div><div style='float: right;padding-right:30px;'><p>Press '0' for B</p> </div> </div></div>","null","","","","","","","","","","","","","","","",""
"2960","","test","audio-keyboard-response","88","547107","0.0-8.0-1.23","5ca25e9a722da90017a27cf3","condA","","resources/audio/wordStim/S3_AI_21_axb_Step-6.wav","48","","","","","","resources/audio/wordStim/S3_AI_21_axb_Step-6.wav","S3","21","axb","6","MI","MI","S3-MI","0","0","true"
"null","","fixation","html-keyboard-response","89","548122","0.0-8.0-0.24","5ca25e9a722da90017a27cf3","condA","","<div class=""vertical-center"" style='width:60%;'><img src=""resources/images/US_flag_100x52.jpg"" style=""width:100px;height:52px;opacity:0.35;""> <br> <br> <p style='font-weight:bold;'>Does the middle word sound more like the first word (A) or the last word (B)?</p> <br> <div class=""container""> <div id=""a-box""> <p class=""title-text"">A</h3></p> </div> <div id=""x-box""> <p class=""title-text"">X<p> </div> <div id=""b-box""> <p class=""title-text"">B</p></div> <br> <div style='float: left;padding-left:30px;'><p>Press '1' for A</p></div><div style='float: right;padding-right:30px;'><p>Press '0' for B</p> </div> </div></div>","null","","","","","","","","","","","","","","","",""
"4880","","test","audio-keyboard-response","90","553012","0.0-8.0-1.24","5ca25e9a722da90017a27cf3","condA","","resources/audio/wordStim/S3_AI_22_axb_Step-8.wav","48","","","","","","resources/audio/wordStim/S3_AI_22_axb_Step-8.wav","S3","22","axb","8","MI","MI","S3-MI","0","0","true"
"null","","fixation","html-keyboard-response","91","554032","0.0-8.0-0.25","5ca25e9a722da90017a27cf3","condA","","<div class=""vertical-center"" style='width:60%;'><img src=""resources/images/US_flag_100x52.jpg"" style=""width:100px;height:52px;opacity:0.35;""> <br> <br> <p style='font-weight:bold;'>Does the middle word sound more like the first word (A) or the last word (B)?</p> <br> <div class=""container""> <div id=""a-box""> <p class=""title-text"">A</h3></p> </div> <div id=""x-box""> <p class=""title-text"">X<p> </div> <div id=""b-box""> <p class=""title-text"">B</p></div> <br> <div style='float: left;padding-left:30px;'><p>Press '1' for A</p></div><div style='float: right;padding-right:30px;'><p>Press '0' for B</p> </div> </div></div>","null","","","","","","","","","","","","","","","",""
"3461","","test","audio-keyboard-response","92","557496","0.0-8.0-1.25","5ca25e9a722da90017a27cf3","condA","","resources/audio/wordStim/S3_AI_30_bxa_Step-6.wav","49","","","","","","resources/audio/wordStim/S3_AI_30_bxa_Step-6.wav","S3","30","bxa","6","MI","MI","S3-MI","1","1","true"
"null","","fixation","html-keyboard-response","93","558512","0.0-8.0-0.26","5ca25e9a722da90017a27cf3","condA","","<div class=""vertical-center"" style='width:60%;'><img src=""resources/images/US_flag_100x52.jpg"" style=""width:100px;height:52px;opacity:0.35;""> <br> <br> <p style='font-weight:bold;'>Does the middle word sound more like the first word (A) or the last word (B)?</p> <br> <div class=""container""> <div id=""a-box""> <p class=""title-text"">A</h3></p> </div> <div id=""x-box""> <p class=""title-text"">X<p> </div> <div id=""b-box""> <p class=""title-text"">B</p></div> <br> <div style='float: left;padding-left:30px;'><p>Press '1' for A</p></div><div style='float: right;padding-right:30px;'><p>Press '0' for B</p> </div> </div></div>","null","","","","","","","","","","","","","","","",""
"3051","","test","audio-keyboard-response","94","561569","0.0-8.0-1.26","5ca25e9a722da90017a27cf3","condA","","resources/audio/wordStim/S3_AI_30_bxa_Step-2.wav","49","","","","","","resources/audio/wordStim/S3_AI_30_bxa_Step-2.wav","S3","30","bxa","2","MI","MI","S3-MI","1","1","true"
"null","","fixation","html-keyboard-response","95","562582","0.0-8.0-0.27","5ca25e9a722da90017a27cf3","condA","","<div class=""vertical-center"" style='width:60%;'><img src=""resources/images/US_flag_100x52.jpg"" style=""width:100px;height:52px;opacity:0.35;""> <br> <br> <p style='font-weight:bold;'>Does the middle word sound more like the first word (A) or the last word (B)?</p> <br> <div class=""container""> <div id=""a-box""> <p class=""title-text"">A</h3></p> </div> <div id=""x-box""> <p class=""title-text"">X<p> </div> <div id=""b-box""> <p class=""title-text"">B</p></div> <br> <div style='float: left;padding-left:30px;'><p>Press '1' for A</p></div><div style='float: right;padding-right:30px;'><p>Press '0' for B</p> </div> </div></div>","null","","","","","","","","","","","","","","","",""
"2909","","test","audio-keyboard-response","96","565503","0.0-8.0-1.27","5ca25e9a722da90017a27cf3","condA","","resources/audio/wordStim/S3_AU_19_axb_Step-2.wav","49","","","","","","resources/audio/wordStim/S3_AU_19_axb_Step-2.wav","S3","19","axb","2","MI","MI","S3-MI","0","1","false"
"null","","fixation","html-keyboard-response","97","566521","0.0-8.0-0.28","5ca25e9a722da90017a27cf3","condA","","<div class=""vertical-center"" style='width:60%;'><img src=""resources/images/US_flag_100x52.jpg"" style=""width:100px;height:52px;opacity:0.35;""> <br> <br> <p style='font-weight:bold;'>Does the middle word sound more like the first word (A) or the last word (B)?</p> <br> <div class=""container""> <div id=""a-box""> <p class=""title-text"">A</h3></p> </div> <div id=""x-box""> <p class=""title-text"">X<p> </div> <div id=""b-box""> <p class=""title-text"">B</p></div> <br> <div style='float: left;padding-left:30px;'><p>Press '1' for A</p></div><div style='float: right;padding-right:30px;'><p>Press '0' for B</p> </div> </div></div>","null","","","","","","","","","","","","","","","",""
"3309","","test","audio-keyboard-response","98","569837","0.0-8.0-1.28","5ca25e9a722da90017a27cf3","condA","","resources/audio/wordStim/S3_AU_19_bxa_Step-6.wav","49","","","","","","resources/audio/wordStim/S3_AU_19_bxa_Step-6.wav","S3","19","bxa","6","MI","MI","S3-MI","1","1","true"
"null","","fixation","html-keyboard-response","99","570852","0.0-8.0-0.29","5ca25e9a722da90017a27cf3","condA","","<div class=""vertical-center"" style='width:60%;'><img src=""resources/images/US_flag_100x52.jpg"" style=""width:100px;height:52px;opacity:0.35;""> <br> <br> <p style='font-weight:bold;'>Does the middle word sound more like the first word (A) or the last word (B)?</p> <br> <div class=""container""> <div id=""a-box""> <p class=""title-text"">A</h3></p> </div> <div id=""x-box""> <p class=""title-text"">X<p> </div> <div id=""b-box""> <p class=""title-text"">B</p></div> <br> <div style='float: left;padding-left:30px;'><p>Press '1' for A</p></div><div style='float: right;padding-right:30px;'><p>Press '0' for B</p> </div> </div></div>","null","","","","","","","","","","","","","","","",""
"3069","","test","audio-keyboard-response","100","573926","0.0-8.0-1.29","5ca25e9a722da90017a27cf3","condA","","resources/audio/wordStim/S3_AU_19_axb_Step-7.wav","48","","","","","","resources/audio/wordStim/S3_AU_19_axb_Step-7.wav","S3","19","axb","7","MI","MI","S3-MI","0","0","true"
"null","","fixation","html-keyboard-response","101","574942","0.0-8.0-0.30","5ca25e9a722da90017a27cf3","condA","","<div class=""vertical-center"" style='width:60%;'><img src=""resources/images/US_flag_100x52.jpg"" style=""width:100px;height:52px;opacity:0.35;""> <br> <br> <p style='font-weight:bold;'>Does the middle word sound more like the first word (A) or the last word (B)?</p> <br> <div class=""container""> <div id=""a-box""> <p class=""title-text"">A</h3></p> </div> <div id=""x-box""> <p class=""title-text"">X<p> </div> <div id=""b-box""> <p class=""title-text"">B</p></div> <br> <div style='float: left;padding-left:30px;'><p>Press '1' for A</p></div><div style='float: right;padding-right:30px;'><p>Press '0' for B</p> </div> </div></div>","null","","","","","","","","","","","","","","","",""
"3248","","test","audio-keyboard-response","102","578195","0.0-8.0-1.30","5ca25e9a722da90017a27cf3","condA","","resources/audio/wordStim/S3_AI_30_bxa_Step-8.wav","49","","","","","","resources/audio/wordStim/S3_AI_30_bxa_Step-8.wav","S3","30","bxa","8","MI","MI","S3-MI","1","1","true"
"null","","fixation","html-keyboard-response","103","579212","0.0-8.0-0.31","5ca25e9a722da90017a27cf3","condA","","<div class=""vertical-center"" style='width:60%;'><img src=""resources/images/US_flag_100x52.jpg"" style=""width:100px;height:52px;opacity:0.35;""> <br> <br> <p style='font-weight:bold;'>Does the middle word sound more like the first word (A) or the last word (B)?</p> <br> <div class=""container""> <div id=""a-box""> <p class=""title-text"">A</h3></p> </div> <div id=""x-box""> <p class=""title-text"">X<p> </div> <div id=""b-box""> <p class=""title-text"">B</p></div> <br> <div style='float: left;padding-left:30px;'><p>Press '1' for A</p></div><div style='float: right;padding-right:30px;'><p>Press '0' for B</p> </div> </div></div>","null","","","","","","","","","","","","","","","",""
"2731","","test","audio-keyboard-response","104","581947","0.0-8.0-1.31","5ca25e9a722da90017a27cf3","condA","","resources/audio/wordStim/S3_AU_19_bxa_Step-2.wav","48","","","","","","resources/audio/wordStim/S3_AU_19_bxa_Step-2.wav","S3","19","bxa","2","MI","MI","S3-MI","1","0","false"
"null","","fixation","html-keyboard-response","105","582962","0.0-8.0-0.32","5ca25e9a722da90017a27cf3","condA","","<div class=""vertical-center"" style='width:60%;'><img src=""resources/images/US_flag_100x52.jpg"" style=""width:100px;height:52px;opacity:0.35;""> <br> <br> <p style='font-weight:bold;'>Does the middle word sound more like the first word (A) or the last word (B)?</p> <br> <div class=""container""> <div id=""a-box""> <p class=""title-text"">A</h3></p> </div> <div id=""x-box""> <p class=""title-text"">X<p> </div> <div id=""b-box""> <p class=""title-text"">B</p></div> <br> <div style='float: left;padding-left:30px;'><p>Press '1' for A</p></div><div style='float: right;padding-right:30px;'><p>Press '0' for B</p> </div> </div></div>","null","","","","","","","","","","","","","","","",""
"3781","","test","audio-keyboard-response","106","586751","0.0-8.0-1.32","5ca25e9a722da90017a27cf3","condA","","resources/audio/wordStim/S3_AU_18_bxa_Step-8.wav","49","","","","","","resources/audio/wordStim/S3_AU_18_bxa_Step-8.wav","S3","18","bxa","8","MI","MI","S3-MI","1","1","true"
"null","","fixation","html-keyboard-response","107","587771","0.0-8.0-0.33","5ca25e9a722da90017a27cf3","condA","","<div class=""vertical-center"" style='width:60%;'><img src=""resources/images/US_flag_100x52.jpg"" style=""width:100px;height:52px;opacity:0.35;""> <br> <br> <p style='font-weight:bold;'>Does the middle word sound more like the first word (A) or the last word (B)?</p> <br> <div class=""container""> <div id=""a-box""> <p class=""title-text"">A</h3></p> </div> <div id=""x-box""> <p class=""title-text"">X<p> </div> <div id=""b-box""> <p class=""title-text"">B</p></div> <br> <div style='float: left;padding-left:30px;'><p>Press '1' for A</p></div><div style='float: right;padding-right:30px;'><p>Press '0' for B</p> </div> </div></div>","null","","","","","","","","","","","","","","","",""
"3539","","test","audio-keyboard-response","108","591317","0.0-8.0-1.33","5ca25e9a722da90017a27cf3","condA","","resources/audio/wordStim/S3_AU_19_bxa_Step-3.wav","49","","","","","","resources/audio/wordStim/S3_AU_19_bxa_Step-3.wav","S3","19","bxa","3","MI","MI","S3-MI","1","1","true"
"null","","fixation","html-keyboard-response","109","592332","0.0-8.0-0.34","5ca25e9a722da90017a27cf3","condA","","<div class=""vertical-center"" style='width:60%;'><img src=""resources/images/US_flag_100x52.jpg"" style=""width:100px;height:52px;opacity:0.35;""> <br> <br> <p style='font-weight:bold;'>Does the middle word sound more like the first word (A) or the last word (B)?</p> <br> <div class=""container""> <div id=""a-box""> <p class=""title-text"">A</h3></p> </div> <div id=""x-box""> <p class=""title-text"">X<p> </div> <div id=""b-box""> <p class=""title-text"">B</p></div> <br> <div style='float: left;padding-left:30px;'><p>Press '1' for A</p></div><div style='float: right;padding-right:30px;'><p>Press '0' for B</p> </div> </div></div>","null","","","","","","","","","","","","","","","",""
"3349","","test","audio-keyboard-response","110","595688","0.0-8.0-1.34","5ca25e9a722da90017a27cf3","condA","","resources/audio/wordStim/S3_AI_30_axb_Step-6.wav","48","","","","","","resources/audio/wordStim/S3_AI_30_axb_Step-6.wav","S3","30","axb","6","MI","MI","S3-MI","0","0","true"
"null","","fixation","html-keyboard-response","111","596699","0.0-8.0-0.35","5ca25e9a722da90017a27cf3","condA","","<div class=""vertical-center"" style='width:60%;'><img src=""resources/images/US_flag_100x52.jpg"" style=""width:100px;height:52px;opacity:0.35;""> <br> <br> <p style='font-weight:bold;'>Does the middle word sound more like the first word (A) or the last word (B)?</p> <br> <div class=""container""> <div id=""a-box""> <p class=""title-text"">A</h3></p> </div> <div id=""x-box""> <p class=""title-text"">X<p> </div> <div id=""b-box""> <p class=""title-text"">B</p></div> <br> <div style='float: left;padding-left:30px;'><p>Press '1' for A</p></div><div style='float: right;padding-right:30px;'><p>Press '0' for B</p> </div> </div></div>","null","","","","","","","","","","","","","","","",""
"3131","","test","audio-keyboard-response","112","599823","0.0-8.0-1.35","5ca25e9a722da90017a27cf3","condA","","resources/audio/wordStim/S3_AI_21_bxa_Step-4.wav","48","","","","","","resources/audio/wordStim/S3_AI_21_bxa_Step-4.wav","S3","21","bxa","4","MI","MI","S3-MI","1","0","false"
"null","","fixation","html-keyboard-response","113","600842","0.0-8.0-0.36","5ca25e9a722da90017a27cf3","condA","","<div class=""vertical-center"" style='width:60%;'><img src=""resources/images/US_flag_100x52.jpg"" style=""width:100px;height:52px;opacity:0.35;""> <br> <br> <p style='font-weight:bold;'>Does the middle word sound more like the first word (A) or the last word (B)?</p> <br> <div class=""container""> <div id=""a-box""> <p class=""title-text"">A</h3></p> </div> <div id=""x-box""> <p class=""title-text"">X<p> </div> <div id=""b-box""> <p class=""title-text"">B</p></div> <br> <div style='float: left;padding-left:30px;'><p>Press '1' for A</p></div><div style='float: right;padding-right:30px;'><p>Press '0' for B</p> </div> </div></div>","null","","","","","","","","","","","","","","","",""
"3261","","test","audio-keyboard-response","114","604106","0.0-8.0-1.36","5ca25e9a722da90017a27cf3","condA","","resources/audio/wordStim/S3_AU_20_bxa_Step-4.wav","49","","","","","","resources/audio/wordStim/S3_AU_20_bxa_Step-4.wav","S3","20","bxa","4","MI","MI","S3-MI","1","1","true"
"null","","fixation","html-keyboard-response","115","605122","0.0-8.0-0.37","5ca25e9a722da90017a27cf3","condA","","<div class=""vertical-center"" style='width:60%;'><img src=""resources/images/US_flag_100x52.jpg"" style=""width:100px;height:52px;opacity:0.35;""> <br> <br> <p style='font-weight:bold;'>Does the middle word sound more like the first word (A) or the last word (B)?</p> <br> <div class=""container""> <div id=""a-box""> <p class=""title-text"">A</h3></p> </div> <div id=""x-box""> <p class=""title-text"">X<p> </div> <div id=""b-box""> <p class=""title-text"">B</p></div> <br> <div style='float: left;padding-left:30px;'><p>Press '1' for A</p></div><div style='float: right;padding-right:30px;'><p>Press '0' for B</p> </div> </div></div>","null","","","","","","","","","","","","","","","",""
"3269","","test","audio-keyboard-response","116","608396","0.0-8.0-1.37","5ca25e9a722da90017a27cf3","condA","","resources/audio/wordStim/S3_AI_30_axb_Step-3.wav","48","","","","","","resources/audio/wordStim/S3_AI_30_axb_Step-3.wav","S3","30","axb","3","MI","MI","S3-MI","0","0","true"
"null","","fixation","html-keyboard-response","117","609412","0.0-8.0-0.38","5ca25e9a722da90017a27cf3","condA","","<div class=""vertical-center"" style='width:60%;'><img src=""resources/images/US_flag_100x52.jpg"" style=""width:100px;height:52px;opacity:0.35;""> <br> <br> <p style='font-weight:bold;'>Does the middle word sound more like the first word (A) or the last word (B)?</p> <br> <div class=""container""> <div id=""a-box""> <p class=""title-text"">A</h3></p> </div> <div id=""x-box""> <p class=""title-text"">X<p> </div> <div id=""b-box""> <p class=""title-text"">B</p></div> <br> <div style='float: left;padding-left:30px;'><p>Press '1' for A</p></div><div style='float: right;padding-right:30px;'><p>Press '0' for B</p> </div> </div></div>","null","","","","","","","","","","","","","","","",""
"3099","","test","audio-keyboard-response","118","612517","0.0-8.0-1.38","5ca25e9a722da90017a27cf3","condA","","resources/audio/wordStim/S3_AI_22_axb_Step-7.wav","48","","","","","","resources/audio/wordStim/S3_AI_22_axb_Step-7.wav","S3","22","axb","7","MI","MI","S3-MI","0","0","true"
"null","","fixation","html-keyboard-response","119","613532","0.0-8.0-0.39","5ca25e9a722da90017a27cf3","condA","","<div class=""vertical-center"" style='width:60%;'><img src=""resources/images/US_flag_100x52.jpg"" style=""width:100px;height:52px;opacity:0.35;""> <br> <br> <p style='font-weight:bold;'>Does the middle word sound more like the first word (A) or the last word (B)?</p> <br> <div class=""container""> <div id=""a-box""> <p class=""title-text"">A</h3></p> </div> <div id=""x-box""> <p class=""title-text"">X<p> </div> <div id=""b-box""> <p class=""title-text"">B</p></div> <br> <div style='float: left;padding-left:30px;'><p>Press '1' for A</p></div><div style='float: right;padding-right:30px;'><p>Press '0' for B</p> </div> </div></div>","null","","","","","","","","","","","","","","","",""
"4149","","test","audio-keyboard-response","120","617685","0.0-8.0-1.39","5ca25e9a722da90017a27cf3","condA","","resources/audio/wordStim/S3_AU_18_axb_Step-6.wav","49","","","","","","resources/audio/wordStim/S3_AU_18_axb_Step-6.wav","S3","18","axb","6","MI","MI","S3-MI","0","1","false"
"null","","fixation","html-keyboard-response","121","618702","0.0-8.0-0.40","5ca25e9a722da90017a27cf3","condA","","<div class=""vertical-center"" style='width:60%;'><img src=""resources/images/US_flag_100x52.jpg"" style=""width:100px;height:52px;opacity:0.35;""> <br> <br> <p style='font-weight:bold;'>Does the middle word sound more like the first word (A) or the last word (B)?</p> <br> <div class=""container""> <div id=""a-box""> <p class=""title-text"">A</h3></p> </div> <div id=""x-box""> <p class=""title-text"">X<p> </div> <div id=""b-box""> <p class=""title-text"">B</p></div> <br> <div style='float: left;padding-left:30px;'><p>Press '1' for A</p></div><div style='float: right;padding-right:30px;'><p>Press '0' for B</p> </div> </div></div>","null","","","","","","","","","","","","","","","",""
"4560","","test","audio-keyboard-response","122","623270","0.0-8.0-1.40","5ca25e9a722da90017a27cf3","condA","","resources/audio/wordStim/S3_AI_21_axb_Step-3.wav","49","","","","","","resources/audio/wordStim/S3_AI_21_axb_Step-3.wav","S3","21","axb","3","MI","MI","S3-MI","0","1","false"
"null","","fixation","html-keyboard-response","123","624279","0.0-8.0-0.41","5ca25e9a722da90017a27cf3","condA","","<div class=""vertical-center"" style='width:60%;'><img src=""resources/images/US_flag_100x52.jpg"" style=""width:100px;height:52px;opacity:0.35;""> <br> <br> <p style='font-weight:bold;'>Does the middle word sound more like the first word (A) or the last word (B)?</p> <br> <div class=""container""> <div id=""a-box""> <p class=""title-text"">A</h3></p> </div> <div id=""x-box""> <p class=""title-text"">X<p> </div> <div id=""b-box""> <p class=""title-text"">B</p></div> <br> <div style='float: left;padding-left:30px;'><p>Press '1' for A</p></div><div style='float: right;padding-right:30px;'><p>Press '0' for B</p> </div> </div></div>","null","","","","","","","","","","","","","","","",""
"2691","","test","audio-keyboard-response","124","626965","0.0-8.0-1.41","5ca25e9a722da90017a27cf3","condA","","resources/audio/wordStim/S3_AI_21_bxa_Step-2.wav","48","","","","","","resources/audio/wordStim/S3_AI_21_bxa_Step-2.wav","S3","21","bxa","2","MI","MI","S3-MI","1","0","false"
"52743.54499997571","","break","html-keyboard-response","125","680216","0.0-8.0-2.41-0.41","5ca25e9a722da90017a27cf3","condA","","<div class=""vertical-center""><p>Feel free to take a break!</p><i>When you're ready to continue, press SPACE to begin the next trial.</i></p></div>","32","","","","","","","","","","","","","","","",""
"null","","fixation","html-keyboard-response","126","680728","0.0-8.0-0.42","5ca25e9a722da90017a27cf3","condA","","<div class=""vertical-center"" style='width:60%;'><img src=""resources/images/US_flag_100x52.jpg"" style=""width:100px;height:52px;opacity:0.35;""> <br> <br> <p style='font-weight:bold;'>Does the middle word sound more like the first word (A) or the last word (B)?</p> <br> <div class=""container""> <div id=""a-box""> <p class=""title-text"">A</h3></p> </div> <div id=""x-box""> <p class=""title-text"">X<p> </div> <div id=""b-box""> <p class=""title-text"">B</p></div> <br> <div style='float: left;padding-left:30px;'><p>Press '1' for A</p></div><div style='float: right;padding-right:30px;'><p>Press '0' for B</p> </div> </div></div>","null","","","","","","","","","","","","","","","",""
"4171","","test","audio-keyboard-response","127","684983","0.0-8.0-1.42","5ca25e9a722da90017a27cf3","condA","","resources/audio/wordStim/S3_AU_19_bxa_Step-5.wav","48","","","","","","resources/audio/wordStim/S3_AU_19_bxa_Step-5.wav","S3","19","bxa","5","MI","MI","S3-MI","1","0","false"
"null","","fixation","html-keyboard-response","128","685996","0.0-8.0-0.43","5ca25e9a722da90017a27cf3","condA","","<div class=""vertical-center"" style='width:60%;'><img src=""resources/images/US_flag_100x52.jpg"" style=""width:100px;height:52px;opacity:0.35;""> <br> <br> <p style='font-weight:bold;'>Does the middle word sound more like the first word (A) or the last word (B)?</p> <br> <div class=""container""> <div id=""a-box""> <p class=""title-text"">A</h3></p> </div> <div id=""x-box""> <p class=""title-text"">X<p> </div> <div id=""b-box""> <p class=""title-text"">B</p></div> <br> <div style='float: left;padding-left:30px;'><p>Press '1' for A</p></div><div style='float: right;padding-right:30px;'><p>Press '0' for B</p> </div> </div></div>","null","","","","","","","","","","","","","","","",""
"4059","","test","audio-keyboard-response","129","690048","0.0-8.0-1.43","5ca25e9a722da90017a27cf3","condA","","resources/audio/wordStim/S3_AI_21_axb_Step-2.wav","48","","","","","","resources/audio/wordStim/S3_AI_21_axb_Step-2.wav","S3","21","axb","2","MI","MI","S3-MI","0","0","true"
"null","","fixation","html-keyboard-response","130","691068","0.0-8.0-0.44","5ca25e9a722da90017a27cf3","condA","","<div class=""vertical-center"" style='width:60%;'><img src=""resources/images/US_flag_100x52.jpg"" style=""width:100px;height:52px;opacity:0.35;""> <br> <br> <p style='font-weight:bold;'>Does the middle word sound more like the first word (A) or the last word (B)?</p> <br> <div class=""container""> <div id=""a-box""> <p class=""title-text"">A</h3></p> </div> <div id=""x-box""> <p class=""title-text"">X<p> </div> <div id=""b-box""> <p class=""title-text"">B</p></div> <br> <div style='float: left;padding-left:30px;'><p>Press '1' for A</p></div><div style='float: right;padding-right:30px;'><p>Press '0' for B</p> </div> </div></div>","null","","","","","","","","","","","","","","","",""
"3200","","test","audio-keyboard-response","131","694276","0.0-8.0-1.44","5ca25e9a722da90017a27cf3","condA","","resources/audio/wordStim/S3_AU_20_axb_Step-6.wav","49","","","","","","resources/audio/wordStim/S3_AU_20_axb_Step-6.wav","S3","20","axb","6","MI","MI","S3-MI","0","1","false"
"null","","fixation","html-keyboard-response","132","695298","0.0-8.0-0.45","5ca25e9a722da90017a27cf3","condA","","<div class=""vertical-center"" style='width:60%;'><img src=""resources/images/US_flag_100x52.jpg"" style=""width:100px;height:52px;opacity:0.35;""> <br> <br> <p style='font-weight:bold;'>Does the middle word sound more like the first word (A) or the last word (B)?</p> <br> <div class=""container""> <div id=""a-box""> <p class=""title-text"">A</h3></p> </div> <div id=""x-box""> <p class=""title-text"">X<p> </div> <div id=""b-box""> <p class=""title-text"">B</p></div> <br> <div style='float: left;padding-left:30px;'><p>Press '1' for A</p></div><div style='float: right;padding-right:30px;'><p>Press '0' for B</p> </div> </div></div>","null","","","","","","","","","","","","","","","",""
"3301","","test","audio-keyboard-response","133","698603","0.0-8.0-1.45","5ca25e9a722da90017a27cf3","condA","","resources/audio/wordStim/S3_AI_22_bxa_Step-7.wav","49","","","","","","resources/audio/wordStim/S3_AI_22_bxa_Step-7.wav","S3","22","bxa","7","MI","MI","S3-MI","1","1","true"
"null","","fixation","html-keyboard-response","134","699618","0.0-8.0-0.46","5ca25e9a722da90017a27cf3","condA","","<div class=""vertical-center"" style='width:60%;'><img src=""resources/images/US_flag_100x52.jpg"" style=""width:100px;height:52px;opacity:0.35;""> <br> <br> <p style='font-weight:bold;'>Does the middle word sound more like the first word (A) or the last word (B)?</p> <br> <div class=""container""> <div id=""a-box""> <p class=""title-text"">A</h3></p> </div> <div id=""x-box""> <p class=""title-text"">X<p> </div> <div id=""b-box""> <p class=""title-text"">B</p></div> <br> <div style='float: left;padding-left:30px;'><p>Press '1' for A</p></div><div style='float: right;padding-right:30px;'><p>Press '0' for B</p> </div> </div></div>","null","","","","","","","","","","","","","","","",""
"3880","","test","audio-keyboard-response","135","703502","0.0-8.0-1.46","5ca25e9a722da90017a27cf3","condA","","resources/audio/wordStim/S3_AU_18_bxa_Step-7.wav","49","","","","","","resources/audio/wordStim/S3_AU_18_bxa_Step-7.wav","S3","18","bxa","7","MI","MI","S3-MI","1","1","true"
"null","","fixation","html-keyboard-response","136","704515","0.0-8.0-0.47","5ca25e9a722da90017a27cf3","condA","","<div class=""vertical-center"" style='width:60%;'><img src=""resources/images/US_flag_100x52.jpg"" style=""width:100px;height:52px;opacity:0.35;""> <br> <br> <p style='font-weight:bold;'>Does the middle word sound more like the first word (A) or the last word (B)?</p> <br> <div class=""container""> <div id=""a-box""> <p class=""title-text"">A</h3></p> </div> <div id=""x-box""> <p class=""title-text"">X<p> </div> <div id=""b-box""> <p class=""title-text"">B</p></div> <br> <div style='float: left;padding-left:30px;'><p>Press '1' for A</p></div><div style='float: right;padding-right:30px;'><p>Press '0' for B</p> </div> </div></div>","null","","","","","","","","","","","","","","","",""
"3389","","test","audio-keyboard-response","137","707916","0.0-8.0-1.47","5ca25e9a722da90017a27cf3","condA","","resources/audio/wordStim/S3_AU_20_axb_Step-2.wav","49","","","","","","resources/audio/wordStim/S3_AU_20_axb_Step-2.wav","S3","20","axb","2","MI","MI","S3-MI","0","1","false"
"null","","fixation","html-keyboard-response","138","708936","0.0-8.0-0.48","5ca25e9a722da90017a27cf3","condA","","<div class=""vertical-center"" style='width:60%;'><img src=""resources/images/US_flag_100x52.jpg"" style=""width:100px;height:52px;opacity:0.35;""> <br> <br> <p style='font-weight:bold;'>Does the middle word sound more like the first word (A) or the last word (B)?</p> <br> <div class=""container""> <div id=""a-box""> <p class=""title-text"">A</h3></p> </div> <div id=""x-box""> <p class=""title-text"">X<p> </div> <div id=""b-box""> <p class=""title-text"">B</p></div> <br> <div style='float: left;padding-left:30px;'><p>Press '1' for A</p></div><div style='float: right;padding-right:30px;'><p>Press '0' for B</p> </div> </div></div>","null","","","","","","","","","","","","","","","",""
"3331","","test","audio-keyboard-response","139","712269","0.0-8.0-1.48","5ca25e9a722da90017a27cf3","condA","","resources/audio/wordStim/S3_AI_21_bxa_Step-5.wav","48","","","","","","resources/audio/wordStim/S3_AI_21_bxa_Step-5.wav","S3","21","bxa","5","MI","MI","S3-MI","1","0","false"
"null","","fixation","html-keyboard-response","140","713286","0.0-8.0-0.49","5ca25e9a722da90017a27cf3","condA","","<div class=""vertical-center"" style='width:60%;'><img src=""resources/images/US_flag_100x52.jpg"" style=""width:100px;height:52px;opacity:0.35;""> <br> <br> <p style='font-weight:bold;'>Does the middle word sound more like the first word (A) or the last word (B)?</p> <br> <div class=""container""> <div id=""a-box""> <p class=""title-text"">A</h3></p> </div> <div id=""x-box""> <p class=""title-text"">X<p> </div> <div id=""b-box""> <p class=""title-text"">B</p></div> <br> <div style='float: left;padding-left:30px;'><p>Press '1' for A</p></div><div style='float: right;padding-right:30px;'><p>Press '0' for B</p> </div> </div></div>","null","","","","","","","","","","","","","","","",""
"3472","","test","audio-keyboard-response","141","716762","0.0-8.0-1.49","5ca25e9a722da90017a27cf3","condA","","resources/audio/wordStim/S3_AU_18_bxa_Step-2.wav","48","","","","","","resources/audio/wordStim/S3_AU_18_bxa_Step-2.wav","S3","18","bxa","2","MI","MI","S3-MI","1","0","false"
"null","","fixation","html-keyboard-response","142","717775","0.0-8.0-0.50","5ca25e9a722da90017a27cf3","condA","","<div class=""vertical-center"" style='width:60%;'><img src=""resources/images/US_flag_100x52.jpg"" style=""width:100px;height:52px;opacity:0.35;""> <br> <br> <p style='font-weight:bold;'>Does the middle word sound more like the first word (A) or the last word (B)?</p> <br> <div class=""container""> <div id=""a-box""> <p class=""title-text"">A</h3></p> </div> <div id=""x-box""> <p class=""title-text"">X<p> </div> <div id=""b-box""> <p class=""title-text"">B</p></div> <br> <div style='float: left;padding-left:30px;'><p>Press '1' for A</p></div><div style='float: right;padding-right:30px;'><p>Press '0' for B</p> </div> </div></div>","null","","","","","","","","","","","","","","","",""
"4200","","test","audio-keyboard-response","143","721979","0.0-8.0-1.50","5ca25e9a722da90017a27cf3","condA","","resources/audio/wordStim/S3_AU_18_bxa_Step-5.wav","48","","","","","","resources/audio/wordStim/S3_AU_18_bxa_Step-5.wav","S3","18","bxa","5","MI","MI","S3-MI","1","0","false"
"null","","fixation","html-keyboard-response","144","722996","0.0-8.0-0.51","5ca25e9a722da90017a27cf3","condA","","<div class=""vertical-center"" style='width:60%;'><img src=""resources/images/US_flag_100x52.jpg"" style=""width:100px;height:52px;opacity:0.35;""> <br> <br> <p style='font-weight:bold;'>Does the middle word sound more like the first word (A) or the last word (B)?</p> <br> <div class=""container""> <div id=""a-box""> <p class=""title-text"">A</h3></p> </div> <div id=""x-box""> <p class=""title-text"">X<p> </div> <div id=""b-box""> <p class=""title-text"">B</p></div> <br> <div style='float: left;padding-left:30px;'><p>Press '1' for A</p></div><div style='float: right;padding-right:30px;'><p>Press '0' for B</p> </div> </div></div>","null","","","","","","","","","","","","","","","",""
"3229","","test","audio-keyboard-response","145","726233","0.0-8.0-1.51","5ca25e9a722da90017a27cf3","condA","","resources/audio/wordStim/S3_AI_21_bxa_Step-6.wav","49","","","","","","resources/audio/wordStim/S3_AI_21_bxa_Step-6.wav","S3","21","bxa","6","MI","MI","S3-MI","1","1","true"
"null","","fixation","html-keyboard-response","146","727246","0.0-8.0-0.52","5ca25e9a722da90017a27cf3","condA","","<div class=""vertical-center"" style='width:60%;'><img src=""resources/images/US_flag_100x52.jpg"" style=""width:100px;height:52px;opacity:0.35;""> <br> <br> <p style='font-weight:bold;'>Does the middle word sound more like the first word (A) or the last word (B)?</p> <br> <div class=""container""> <div id=""a-box""> <p class=""title-text"">A</h3></p> </div> <div id=""x-box""> <p class=""title-text"">X<p> </div> <div id=""b-box""> <p class=""title-text"">B</p></div> <br> <div style='float: left;padding-left:30px;'><p>Press '1' for A</p></div><div style='float: right;padding-right:30px;'><p>Press '0' for B</p> </div> </div></div>","null","","","","","","","","","","","","","","","",""
"3411","","test","audio-keyboard-response","147","730662","0.0-8.0-1.52","5ca25e9a722da90017a27cf3","condA","","resources/audio/wordStim/S3_AI_30_axb_Step-5.wav","49","","","","","","resources/audio/wordStim/S3_AI_30_axb_Step-5.wav","S3","30","axb","5","MI","MI","S3-MI","0","1","false"
"null","","fixation","html-keyboard-response","148","731675","0.0-8.0-0.53","5ca25e9a722da90017a27cf3","condA","","<div class=""vertical-center"" style='width:60%;'><img src=""resources/images/US_flag_100x52.jpg"" style=""width:100px;height:52px;opacity:0.35;""> <br> <br> <p style='font-weight:bold;'>Does the middle word sound more like the first word (A) or the last word (B)?</p> <br> <div class=""container""> <div id=""a-box""> <p class=""title-text"">A</h3></p> </div> <div id=""x-box""> <p class=""title-text"">X<p> </div> <div id=""b-box""> <p class=""title-text"">B</p></div> <br> <div style='float: left;padding-left:30px;'><p>Press '1' for A</p></div><div style='float: right;padding-right:30px;'><p>Press '0' for B</p> </div> </div></div>","null","","","","","","","","","","","","","","","",""
"2619","","test","audio-keyboard-response","149","734303","0.0-8.0-1.53","5ca25e9a722da90017a27cf3","condA","","resources/audio/wordStim/S3_AI_21_bxa_Step-3.wav","48","","","","","","resources/audio/wordStim/S3_AI_21_bxa_Step-3.wav","S3","21","bxa","3","MI","MI","S3-MI","1","0","false"
"null","","fixation","html-keyboard-response","150","735315","0.0-8.0-0.54","5ca25e9a722da90017a27cf3","condA","","<div class=""vertical-center"" style='width:60%;'><img src=""resources/images/US_flag_100x52.jpg"" style=""width:100px;height:52px;opacity:0.35;""> <br> <br> <p style='font-weight:bold;'>Does the middle word sound more like the first word (A) or the last word (B)?</p> <br> <div class=""container""> <div id=""a-box""> <p class=""title-text"">A</h3></p> </div> <div id=""x-box""> <p class=""title-text"">X<p> </div> <div id=""b-box""> <p class=""title-text"">B</p></div> <br> <div style='float: left;padding-left:30px;'><p>Press '1' for A</p></div><div style='float: right;padding-right:30px;'><p>Press '0' for B</p> </div> </div></div>","null","","","","","","","","","","","","","","","",""
"3099","","test","audio-keyboard-response","151","738426","0.0-8.0-1.54","5ca25e9a722da90017a27cf3","condA","","resources/audio/wordStim/S3_AU_19_axb_Step-3.wav","49","","","","","","resources/audio/wordStim/S3_AU_19_axb_Step-3.wav","S3","19","axb","3","MI","MI","S3-MI","0","1","false"
"null","","fixation","html-keyboard-response","152","739445","0.0-8.0-0.55","5ca25e9a722da90017a27cf3","condA","","<div class=""vertical-center"" style='width:60%;'><img src=""resources/images/US_flag_100x52.jpg"" style=""width:100px;height:52px;opacity:0.35;""> <br> <br> <p style='font-weight:bold;'>Does the middle word sound more like the first word (A) or the last word (B)?</p> <br> <div class=""container""> <div id=""a-box""> <p class=""title-text"">A</h3></p> </div> <div id=""x-box""> <p class=""title-text"">X<p> </div> <div id=""b-box""> <p class=""title-text"">B</p></div> <br> <div style='float: left;padding-left:30px;'><p>Press '1' for A</p></div><div style='float: right;padding-right:30px;'><p>Press '0' for B</p> </div> </div></div>","null","","","","","","","","","","","","","","","",""
"3181","","test","audio-keyboard-response","153","742632","0.0-8.0-1.55","5ca25e9a722da90017a27cf3","condA","","resources/audio/wordStim/S3_AI_22_axb_Step-3.wav","48","","","","","","resources/audio/wordStim/S3_AI_22_axb_Step-3.wav","S3","22","axb","3","MI","MI","S3-MI","0","0","true"
"null","","fixation","html-keyboard-response","154","743656","0.0-8.0-0.56","5ca25e9a722da90017a27cf3","condA","","<div class=""vertical-center"" style='width:60%;'><img src=""resources/images/US_flag_100x52.jpg"" style=""width:100px;height:52px;opacity:0.35;""> <br> <br> <p style='font-weight:bold;'>Does the middle word sound more like the first word (A) or the last word (B)?</p> <br> <div class=""container""> <div id=""a-box""> <p class=""title-text"">A</h3></p> </div> <div id=""x-box""> <p class=""title-text"">X<p> </div> <div id=""b-box""> <p class=""title-text"">B</p></div> <br> <div style='float: left;padding-left:30px;'><p>Press '1' for A</p></div><div style='float: right;padding-right:30px;'><p>Press '0' for B</p> </div> </div></div>","null","","","","","","","","","","","","","","","",""
"3480","","test","audio-keyboard-response","155","747138","0.0-8.0-1.56","5ca25e9a722da90017a27cf3","condA","","resources/audio/wordStim/S3_AI_22_bxa_Step-4.wav","49","","","","","","resources/audio/wordStim/S3_AI_22_bxa_Step-4.wav","S3","22","bxa","4","MI","MI","S3-MI","1","1","true"
"null","","fixation","html-keyboard-response","156","748156","0.0-8.0-0.57","5ca25e9a722da90017a27cf3","condA","","<div class=""vertical-center"" style='width:60%;'><img src=""resources/images/US_flag_100x52.jpg"" style=""width:100px;height:52px;opacity:0.35;""> <br> <br> <p style='font-weight:bold;'>Does the middle word sound more like the first word (A) or the last word (B)?</p> <br> <div class=""container""> <div id=""a-box""> <p class=""title-text"">A</h3></p> </div> <div id=""x-box""> <p class=""title-text"">X<p> </div> <div id=""b-box""> <p class=""title-text"">B</p></div> <br> <div style='float: left;padding-left:30px;'><p>Press '1' for A</p></div><div style='float: right;padding-right:30px;'><p>Press '0' for B</p> </div> </div></div>","null","","","","","","","","","","","","","","","",""
"3648","","test","audio-keyboard-response","157","751809","0.0-8.0-1.57","5ca25e9a722da90017a27cf3","condA","","resources/audio/wordStim/S3_AU_18_bxa_Step-6.wav","49","","","","","","resources/audio/wordStim/S3_AU_18_bxa_Step-6.wav","S3","18","bxa","6","MI","MI","S3-MI","1","1","true"
"null","","fixation","html-keyboard-response","158","752825","0.0-8.0-0.58","5ca25e9a722da90017a27cf3","condA","","<div class=""vertical-center"" style='width:60%;'><img src=""resources/images/US_flag_100x52.jpg"" style=""width:100px;height:52px;opacity:0.35;""> <br> <br> <p style='font-weight:bold;'>Does the middle word sound more like the first word (A) or the last word (B)?</p> <br> <div class=""container""> <div id=""a-box""> <p class=""title-text"">A</h3></p> </div> <div id=""x-box""> <p class=""title-text"">X<p> </div> <div id=""b-box""> <p class=""title-text"">B</p></div> <br> <div style='float: left;padding-left:30px;'><p>Press '1' for A</p></div><div style='float: right;padding-right:30px;'><p>Press '0' for B</p> </div> </div></div>","null","","","","","","","","","","","","","","","",""
"3979","","test","audio-keyboard-response","159","756816","0.0-8.0-1.58","5ca25e9a722da90017a27cf3","condA","","resources/audio/wordStim/S3_AU_19_axb_Step-5.wav","49","","","","","","resources/audio/wordStim/S3_AU_19_axb_Step-5.wav","S3","19","axb","5","MI","MI","S3-MI","0","1","false"
"null","","fixation","html-keyboard-response","160","757830","0.0-8.0-0.59","5ca25e9a722da90017a27cf3","condA","","<div class=""vertical-center"" style='width:60%;'><img src=""resources/images/US_flag_100x52.jpg"" style=""width:100px;height:52px;opacity:0.35;""> <br> <br> <p style='font-weight:bold;'>Does the middle word sound more like the first word (A) or the last word (B)?</p> <br> <div class=""container""> <div id=""a-box""> <p class=""title-text"">A</h3></p> </div> <div id=""x-box""> <p class=""title-text"">X<p> </div> <div id=""b-box""> <p class=""title-text"">B</p></div> <br> <div style='float: left;padding-left:30px;'><p>Press '1' for A</p></div><div style='float: right;padding-right:30px;'><p>Press '0' for B</p> </div> </div></div>","null","","","","","","","","","","","","","","","",""
"3211","","test","audio-keyboard-response","161","761044","0.0-8.0-1.59","5ca25e9a722da90017a27cf3","condA","","resources/audio/wordStim/S3_AI_22_bxa_Step-6.wav","49","","","","","","resources/audio/wordStim/S3_AI_22_bxa_Step-6.wav","S3","22","bxa","6","MI","MI","S3-MI","1","1","true"
"null","","fixation","html-keyboard-response","162","762055","0.0-8.0-0.60","5ca25e9a722da90017a27cf3","condA","","<div class=""vertical-center"" style='width:60%;'><img src=""resources/images/US_flag_100x52.jpg"" style=""width:100px;height:52px;opacity:0.35;""> <br> <br> <p style='font-weight:bold;'>Does the middle word sound more like the first word (A) or the last word (B)?</p> <br> <div class=""container""> <div id=""a-box""> <p class=""title-text"">A</h3></p> </div> <div id=""x-box""> <p class=""title-text"">X<p> </div> <div id=""b-box""> <p class=""title-text"">B</p></div> <br> <div style='float: left;padding-left:30px;'><p>Press '1' for A</p></div><div style='float: right;padding-right:30px;'><p>Press '0' for B</p> </div> </div></div>","null","","","","","","","","","","","","","","","",""
"2880","","test","audio-keyboard-response","163","764943","0.0-8.0-1.60","5ca25e9a722da90017a27cf3","condA","","resources/audio/wordStim/S3_AI_21_bxa_Step-8.wav","48","","","","","","resources/audio/wordStim/S3_AI_21_bxa_Step-8.wav","S3","21","bxa","8","MI","MI","S3-MI","1","0","false"
"null","","fixation","html-keyboard-response","164","765957","0.0-8.0-0.61","5ca25e9a722da90017a27cf3","condA","","<div class=""vertical-center"" style='width:60%;'><img src=""resources/images/US_flag_100x52.jpg"" style=""width:100px;height:52px;opacity:0.35;""> <br> <br> <p style='font-weight:bold;'>Does the middle word sound more like the first word (A) or the last word (B)?</p> <br> <div class=""container""> <div id=""a-box""> <p class=""title-text"">A</h3></p> </div> <div id=""x-box""> <p class=""title-text"">X<p> </div> <div id=""b-box""> <p class=""title-text"">B</p></div> <br> <div style='float: left;padding-left:30px;'><p>Press '1' for A</p></div><div style='float: right;padding-right:30px;'><p>Press '0' for B</p> </div> </div></div>","null","","","","","","","","","","","","","","","",""
"2549","","test","audio-keyboard-response","165","768515","0.0-8.0-1.61","5ca25e9a722da90017a27cf3","condA","","resources/audio/wordStim/S3_AI_21_axb_Step-7.wav","48","","","","","","resources/audio/wordStim/S3_AI_21_axb_Step-7.wav","S3","21","axb","7","MI","MI","S3-MI","0","0","true"
"null","","fixation","html-keyboard-response","166","769528","0.0-8.0-0.62","5ca25e9a722da90017a27cf3","condA","","<div class=""vertical-center"" style='width:60%;'><img src=""resources/images/US_flag_100x52.jpg"" style=""width:100px;height:52px;opacity:0.35;""> <br> <br> <p style='font-weight:bold;'>Does the middle word sound more like the first word (A) or the last word (B)?</p> <br> <div class=""container""> <div id=""a-box""> <p class=""title-text"">A</h3></p> </div> <div id=""x-box""> <p class=""title-text"">X<p> </div> <div id=""b-box""> <p class=""title-text"">B</p></div> <br> <div style='float: left;padding-left:30px;'><p>Press '1' for A</p></div><div style='float: right;padding-right:30px;'><p>Press '0' for B</p> </div> </div></div>","null","","","","","","","","","","","","","","","",""
"3832","","test","audio-keyboard-response","167","773361","0.0-8.0-1.62","5ca25e9a722da90017a27cf3","condA","","resources/audio/wordStim/S3_AU_18_axb_Step-3.wav","49","","","","","","resources/audio/wordStim/S3_AU_18_axb_Step-3.wav","S3","18","axb","3","MI","MI","S3-MI","0","1","false"
"37176.17000010796","","break","html-keyboard-response","168","811045","0.0-8.0-2.62-0.62","5ca25e9a722da90017a27cf3","condA","","<div class=""vertical-center""><p>Feel free to take a break!</p><i>When you're ready to continue, press SPACE to begin the next trial.</i></p></div>","32","","","","","","","","","","","","","","","",""
"null","","fixation","html-keyboard-response","169","811553","0.0-8.0-0.63","5ca25e9a722da90017a27cf3","condA","","<div class=""vertical-center"" style='width:60%;'><img src=""resources/images/US_flag_100x52.jpg"" style=""width:100px;height:52px;opacity:0.35;""> <br> <br> <p style='font-weight:bold;'>Does the middle word sound more like the first word (A) or the last word (B)?</p> <br> <div class=""container""> <div id=""a-box""> <p class=""title-text"">A</h3></p> </div> <div id=""x-box""> <p class=""title-text"">X<p> </div> <div id=""b-box""> <p class=""title-text"">B</p></div> <br> <div style='float: left;padding-left:30px;'><p>Press '1' for A</p></div><div style='float: right;padding-right:30px;'><p>Press '0' for B</p> </div> </div></div>","null","","","","","","","","","","","","","","","",""
"5400","","test","audio-keyboard-response","170","817054","0.0-8.0-1.63","5ca25e9a722da90017a27cf3","condA","","resources/audio/wordStim/S3_AU_18_axb_Step-5.wav","49","","","","","","resources/audio/wordStim/S3_AU_18_axb_Step-5.wav","S3","18","axb","5","MI","MI","S3-MI","0","1","false"
"null","","fixation","html-keyboard-response","171","818066","0.0-8.0-0.64","5ca25e9a722da90017a27cf3","condA","","<div class=""vertical-center"" style='width:60%;'><img src=""resources/images/US_flag_100x52.jpg"" style=""width:100px;height:52px;opacity:0.35;""> <br> <br> <p style='font-weight:bold;'>Does the middle word sound more like the first word (A) or the last word (B)?</p> <br> <div class=""container""> <div id=""a-box""> <p class=""title-text"">A</h3></p> </div> <div id=""x-box""> <p class=""title-text"">X<p> </div> <div id=""b-box""> <p class=""title-text"">B</p></div> <br> <div style='float: left;padding-left:30px;'><p>Press '1' for A</p></div><div style='float: right;padding-right:30px;'><p>Press '0' for B</p> </div> </div></div>","null","","","","","","","","","","","","","","","",""
"3891","","test","audio-keyboard-response","172","821964","0.0-8.0-1.64","5ca25e9a722da90017a27cf3","condA","","resources/audio/wordStim/S3_AI_30_bxa_Step-3.wav","49","","","","","","resources/audio/wordStim/S3_AI_30_bxa_Step-3.wav","S3","30","bxa","3","MI","MI","S3-MI","1","1","true"
"null","","fixation","html-keyboard-response","173","822976","0.0-8.0-0.65","5ca25e9a722da90017a27cf3","condA","","<div class=""vertical-center"" style='width:60%;'><img src=""resources/images/US_flag_100x52.jpg"" style=""width:100px;height:52px;opacity:0.35;""> <br> <br> <p style='font-weight:bold;'>Does the middle word sound more like the first word (A) or the last word (B)?</p> <br> <div class=""container""> <div id=""a-box""> <p class=""title-text"">A</h3></p> </div> <div id=""x-box""> <p class=""title-text"">X<p> </div> <div id=""b-box""> <p class=""title-text"">B</p></div> <br> <div style='float: left;padding-left:30px;'><p>Press '1' for A</p></div><div style='float: right;padding-right:30px;'><p>Press '0' for B</p> </div> </div></div>","null","","","","","","","","","","","","","","","",""
"2760","","test","audio-keyboard-response","174","825738","0.0-8.0-1.65","5ca25e9a722da90017a27cf3","condA","","resources/audio/wordStim/S3_AU_19_axb_Step-8.wav","48","","","","","","resources/audio/wordStim/S3_AU_19_axb_Step-8.wav","S3","19","axb","8","MI","MI","S3-MI","0","0","true"
"null","","fixation","html-keyboard-response","175","826755","0.0-8.0-0.66","5ca25e9a722da90017a27cf3","condA","","<div class=""vertical-center"" style='width:60%;'><img src=""resources/images/US_flag_100x52.jpg"" style=""width:100px;height:52px;opacity:0.35;""> <br> <br> <p style='font-weight:bold;'>Does the middle word sound more like the first word (A) or the last word (B)?</p> <br> <div class=""container""> <div id=""a-box""> <p class=""title-text"">A</h3></p> </div> <div id=""x-box""> <p class=""title-text"">X<p> </div> <div id=""b-box""> <p class=""title-text"">B</p></div> <br> <div style='float: left;padding-left:30px;'><p>Press '1' for A</p></div><div style='float: right;padding-right:30px;'><p>Press '0' for B</p> </div> </div></div>","null","","","","","","","","","","","","","","","",""
"3149","","test","audio-keyboard-response","176","829908","0.0-8.0-1.66","5ca25e9a722da90017a27cf3","condA","","resources/audio/wordStim/S3_AU_20_bxa_Step-7.wav","49","","","","","","resources/audio/wordStim/S3_AU_20_bxa_Step-7.wav","S3","20","bxa","7","MI","MI","S3-MI","1","1","true"
"null","","fixation","html-keyboard-response","177","830926","0.0-8.0-0.67","5ca25e9a722da90017a27cf3","condA","","<div class=""vertical-center"" style='width:60%;'><img src=""resources/images/US_flag_100x52.jpg"" style=""width:100px;height:52px;opacity:0.35;""> <br> <br> <p style='font-weight:bold;'>Does the middle word sound more like the first word (A) or the last word (B)?</p> <br> <div class=""container""> <div id=""a-box""> <p class=""title-text"">A</h3></p> </div> <div id=""x-box""> <p class=""title-text"">X<p> </div> <div id=""b-box""> <p class=""title-text"">B</p></div> <br> <div style='float: left;padding-left:30px;'><p>Press '1' for A</p></div><div style='float: right;padding-right:30px;'><p>Press '0' for B</p> </div> </div></div>","null","","","","","","","","","","","","","","","",""
"3349","","test","audio-keyboard-response","178","834282","0.0-8.0-1.67","5ca25e9a722da90017a27cf3","condA","","resources/audio/wordStim/S3_AI_30_axb_Step-4.wav","49","","","","","","resources/audio/wordStim/S3_AI_30_axb_Step-4.wav","S3","30","axb","4","MI","MI","S3-MI","0","1","false"
"null","","fixation","html-keyboard-response","179","835295","0.0-8.0-0.68","5ca25e9a722da90017a27cf3","condA","","<div class=""vertical-center"" style='width:60%;'><img src=""resources/images/US_flag_100x52.jpg"" style=""width:100px;height:52px;opacity:0.35;""> <br> <br> <p style='font-weight:bold;'>Does the middle word sound more like the first word (A) or the last word (B)?</p> <br> <div class=""container""> <div id=""a-box""> <p class=""title-text"">A</h3></p> </div> <div id=""x-box""> <p class=""title-text"">X<p> </div> <div id=""b-box""> <p class=""title-text"">B</p></div> <br> <div style='float: left;padding-left:30px;'><p>Press '1' for A</p></div><div style='float: right;padding-right:30px;'><p>Press '0' for B</p> </div> </div></div>","null","","","","","","","","","","","","","","","",""
"3149","","test","audio-keyboard-response","180","838449","0.0-8.0-1.68","5ca25e9a722da90017a27cf3","condA","","resources/audio/wordStim/S3_AI_22_bxa_Step-2.wav","48","","","","","","resources/audio/wordStim/S3_AI_22_bxa_Step-2.wav","S3","22","bxa","2","MI","MI","S3-MI","1","0","false"
"null","","fixation","html-keyboard-response","181","839466","0.0-8.0-0.69","5ca25e9a722da90017a27cf3","condA","","<div class=""vertical-center"" style='width:60%;'><img src=""resources/images/US_flag_100x52.jpg"" style=""width:100px;height:52px;opacity:0.35;""> <br> <br> <p style='font-weight:bold;'>Does the middle word sound more like the first word (A) or the last word (B)?</p> <br> <div class=""container""> <div id=""a-box""> <p class=""title-text"">A</h3></p> </div> <div id=""x-box""> <p class=""title-text"">X<p> </div> <div id=""b-box""> <p class=""title-text"">B</p></div> <br> <div style='float: left;padding-left:30px;'><p>Press '1' for A</p></div><div style='float: right;padding-right:30px;'><p>Press '0' for B</p> </div> </div></div>","null","","","","","","","","","","","","","","","",""
"3200","","test","audio-keyboard-response","182","842670","0.0-8.0-1.69","5ca25e9a722da90017a27cf3","condA","","resources/audio/wordStim/S3_AI_30_bxa_Step-4.wav","49","","","","","","resources/audio/wordStim/S3_AI_30_bxa_Step-4.wav","S3","30","bxa","4","MI","MI","S3-MI","1","1","true"
"null","","fixation","html-keyboard-response","183","843685","0.0-8.0-0.70","5ca25e9a722da90017a27cf3","condA","","<div class=""vertical-center"" style='width:60%;'><img src=""resources/images/US_flag_100x52.jpg"" style=""width:100px;height:52px;opacity:0.35;""> <br> <br> <p style='font-weight:bold;'>Does the middle word sound more like the first word (A) or the last word (B)?</p> <br> <div class=""container""> <div id=""a-box""> <p class=""title-text"">A</h3></p> </div> <div id=""x-box""> <p class=""title-text"">X<p> </div> <div id=""b-box""> <p class=""title-text"">B</p></div> <br> <div style='float: left;padding-left:30px;'><p>Press '1' for A</p></div><div style='float: right;padding-right:30px;'><p>Press '0' for B</p> </div> </div></div>","null","","","","","","","","","","","","","","","",""
"3629","","test","audio-keyboard-response","184","847319","0.0-8.0-1.70","5ca25e9a722da90017a27cf3","condA","","resources/audio/wordStim/S3_AI_30_axb_Step-2.wav","49","","","","","","resources/audio/wordStim/S3_AI_30_axb_Step-2.wav","S3","30","axb","2","MI","MI","S3-MI","0","1","false"
"null","","fixation","html-keyboard-response","185","848335","0.0-8.0-0.71","5ca25e9a722da90017a27cf3","condA","","<div class=""vertical-center"" style='width:60%;'><img src=""resources/images/US_flag_100x52.jpg"" style=""width:100px;height:52px;opacity:0.35;""> <br> <br> <p style='font-weight:bold;'>Does the middle word sound more like the first word (A) or the last word (B)?</p> <br> <div class=""container""> <div id=""a-box""> <p class=""title-text"">A</h3></p> </div> <div id=""x-box""> <p class=""title-text"">X<p> </div> <div id=""b-box""> <p class=""title-text"">B</p></div> <br> <div style='float: left;padding-left:30px;'><p>Press '1' for A</p></div><div style='float: right;padding-right:30px;'><p>Press '0' for B</p> </div> </div></div>","null","","","","","","","","","","","","","","","",""
"3080","","test","audio-keyboard-response","186","851421","0.0-8.0-1.71","5ca25e9a722da90017a27cf3","condA","","resources/audio/wordStim/S3_AU_20_bxa_Step-8.wav","49","","","","","","resources/audio/wordStim/S3_AU_20_bxa_Step-8.wav","S3","20","bxa","8","MI","MI","S3-MI","1","1","true"
"null","","fixation","html-keyboard-response","187","852436","0.0-8.0-0.72","5ca25e9a722da90017a27cf3","condA","","<div class=""vertical-center"" style='width:60%;'><img src=""resources/images/US_flag_100x52.jpg"" style=""width:100px;height:52px;opacity:0.35;""> <br> <br> <p style='font-weight:bold;'>Does the middle word sound more like the first word (A) or the last word (B)?</p> <br> <div class=""container""> <div id=""a-box""> <p class=""title-text"">A</h3></p> </div> <div id=""x-box""> <p class=""title-text"">X<p> </div> <div id=""b-box""> <p class=""title-text"">B</p></div> <br> <div style='float: left;padding-left:30px;'><p>Press '1' for A</p></div><div style='float: right;padding-right:30px;'><p>Press '0' for B</p> </div> </div></div>","null","","","","","","","","","","","","","","","",""
"3371","","test","audio-keyboard-response","188","855813","0.0-8.0-1.72","5ca25e9a722da90017a27cf3","condA","","resources/audio/wordStim/S3_AI_22_bxa_Step-5.wav","49","","","","","","resources/audio/wordStim/S3_AI_22_bxa_Step-5.wav","S3","22","bxa","5","MI","MI","S3-MI","1","1","true"
"null","","fixation","html-keyboard-response","189","856826","0.0-8.0-0.73","5ca25e9a722da90017a27cf3","condA","","<div class=""vertical-center"" style='width:60%;'><img src=""resources/images/US_flag_100x52.jpg"" style=""width:100px;height:52px;opacity:0.35;""> <br> <br> <p style='font-weight:bold;'>Does the middle word sound more like the first word (A) or the last word (B)?</p> <br> <div class=""container""> <div id=""a-box""> <p class=""title-text"">A</h3></p> </div> <div id=""x-box""> <p class=""title-text"">X<p> </div> <div id=""b-box""> <p class=""title-text"">B</p></div> <br> <div style='float: left;padding-left:30px;'><p>Press '1' for A</p></div><div style='float: right;padding-right:30px;'><p>Press '0' for B</p> </div> </div></div>","null","","","","","","","","","","","","","","","",""
"3592","","test","audio-keyboard-response","190","860423","0.0-8.0-1.73","5ca25e9a722da90017a27cf3","condA","","resources/audio/wordStim/S3_AU_20_axb_Step-8.wav","48","","","","","","resources/audio/wordStim/S3_AU_20_axb_Step-8.wav","S3","20","axb","8","MI","MI","S3-MI","0","0","true"
"null","","fixation","html-keyboard-response","191","861435","0.0-8.0-0.74","5ca25e9a722da90017a27cf3","condA","","<div class=""vertical-center"" style='width:60%;'><img src=""resources/images/US_flag_100x52.jpg"" style=""width:100px;height:52px;opacity:0.35;""> <br> <br> <p style='font-weight:bold;'>Does the middle word sound more like the first word (A) or the last word (B)?</p> <br> <div class=""container""> <div id=""a-box""> <p class=""title-text"">A</h3></p> </div> <div id=""x-box""> <p class=""title-text"">X<p> </div> <div id=""b-box""> <p class=""title-text"">B</p></div> <br> <div style='float: left;padding-left:30px;'><p>Press '1' for A</p></div><div style='float: right;padding-right:30px;'><p>Press '0' for B</p> </div> </div></div>","null","","","","","","","","","","","","","","","",""
"2829","","test","audio-keyboard-response","192","864267","0.0-8.0-1.74","5ca25e9a722da90017a27cf3","condA","","resources/audio/wordStim/S3_AI_21_axb_Step-8.wav","48","","","","","","resources/audio/wordStim/S3_AI_21_axb_Step-8.wav","S3","21","axb","8","MI","MI","S3-MI","0","0","true"
"null","","fixation","html-keyboard-response","193","865285","0.0-8.0-0.75","5ca25e9a722da90017a27cf3","condA","","<div class=""vertical-center"" style='width:60%;'><img src=""resources/images/US_flag_100x52.jpg"" style=""width:100px;height:52px;opacity:0.35;""> <br> <br> <p style='font-weight:bold;'>Does the middle word sound more like the first word (A) or the last word (B)?</p> <br> <div class=""container""> <div id=""a-box""> <p class=""title-text"">A</h3></p> </div> <div id=""x-box""> <p class=""title-text"">X<p> </div> <div id=""b-box""> <p class=""title-text"">B</p></div> <br> <div style='float: left;padding-left:30px;'><p>Press '1' for A</p></div><div style='float: right;padding-right:30px;'><p>Press '0' for B</p> </div> </div></div>","null","","","","","","","","","","","","","","","",""
"2339","","test","audio-keyboard-response","194","867628","0.0-8.0-1.75","5ca25e9a722da90017a27cf3","condA","","resources/audio/wordStim/S3_AU_18_axb_Step-4.wav","48","","","","","","resources/audio/wordStim/S3_AU_18_axb_Step-4.wav","S3","18","axb","4","MI","MI","S3-MI","0","0","true"
"null","","fixation","html-keyboard-response","195","868645","0.0-8.0-0.76","5ca25e9a722da90017a27cf3","condA","","<div class=""vertical-center"" style='width:60%;'><img src=""resources/images/US_flag_100x52.jpg"" style=""width:100px;height:52px;opacity:0.35;""> <br> <br> <p style='font-weight:bold;'>Does the middle word sound more like the first word (A) or the last word (B)?</p> <br> <div class=""container""> <div id=""a-box""> <p class=""title-text"">A</h3></p> </div> <div id=""x-box""> <p class=""title-text"">X<p> </div> <div id=""b-box""> <p class=""title-text"">B</p></div> <br> <div style='float: left;padding-left:30px;'><p>Press '1' for A</p></div><div style='float: right;padding-right:30px;'><p>Press '0' for B</p> </div> </div></div>","null","","","","","","","","","","","","","","","",""
"3811","","test","audio-keyboard-response","196","872461","0.0-8.0-1.76","5ca25e9a722da90017a27cf3","condA","","resources/audio/wordStim/S3_AU_18_axb_Step-2.wav","49","","","","","","resources/audio/wordStim/S3_AU_18_axb_Step-2.wav","S3","18","axb","2","MI","MI","S3-MI","0","1","false"
"null","","fixation","html-keyboard-response","197","873476","0.0-8.0-0.77","5ca25e9a722da90017a27cf3","condA","","<div class=""vertical-center"" style='width:60%;'><img src=""resources/images/US_flag_100x52.jpg"" style=""width:100px;height:52px;opacity:0.35;""> <br> <br> <p style='font-weight:bold;'>Does the middle word sound more like the first word (A) or the last word (B)?</p> <br> <div class=""container""> <div id=""a-box""> <p class=""title-text"">A</h3></p> </div> <div id=""x-box""> <p class=""title-text"">X<p> </div> <div id=""b-box""> <p class=""title-text"">B</p></div> <br> <div style='float: left;padding-left:30px;'><p>Press '1' for A</p></div><div style='float: right;padding-right:30px;'><p>Press '0' for B</p> </div> </div></div>","null","","","","","","","","","","","","","","","",""
"3909","","test","audio-keyboard-response","198","877396","0.0-8.0-1.77","5ca25e9a722da90017a27cf3","condA","","resources/audio/wordStim/S3_AI_22_axb_Step-2.wav","49","","","","","","resources/audio/wordStim/S3_AI_22_axb_Step-2.wav","S3","22","axb","2","MI","MI","S3-MI","0","1","false"
"null","","fixation","html-keyboard-response","199","878416","0.0-8.0-0.78","5ca25e9a722da90017a27cf3","condA","","<div class=""vertical-center"" style='width:60%;'><img src=""resources/images/US_flag_100x52.jpg"" style=""width:100px;height:52px;opacity:0.35;""> <br> <br> <p style='font-weight:bold;'>Does the middle word sound more like the first word (A) or the last word (B)?</p> <br> <div class=""container""> <div id=""a-box""> <p class=""title-text"">A</h3></p> </div> <div id=""x-box""> <p class=""title-text"">X<p> </div> <div id=""b-box""> <p class=""title-text"">B</p></div> <br> <div style='float: left;padding-left:30px;'><p>Press '1' for A</p></div><div style='float: right;padding-right:30px;'><p>Press '0' for B</p> </div> </div></div>","null","","","","","","","","","","","","","","","",""
"4360","","test","audio-keyboard-response","200","882779","0.0-8.0-1.78","5ca25e9a722da90017a27cf3","condA","","resources/audio/wordStim/S3_AU_18_axb_Step-8.wav","49","","","","","","resources/audio/wordStim/S3_AU_18_axb_Step-8.wav","S3","18","axb","8","MI","MI","S3-MI","0","1","false"
