"rt","url","trial_role","trial_type","trial_index","time_elapsed","internal_node_id","participantId","conditionId","view_history","stimulus","key_press","button_pressed","correct_answer","correct_response","success","vowel","wordStim","speaker","sentNum","order","step","speakerIdentity","speakerGuise","guiseName","raised_answer","key_response","raised_response"
"7487.3549999902025","micr.axb.consent.html","consent","external-html","0","7788","0.0-0.0","5df4096aa98a7a2dce5bfb69","condF","","","","","","","","","","","","","","","","","","",""
"32165.230000042357","","instructions","instructions","1","39958","0.0-1.0","5df4096aa98a7a2dce5bfb69","condF","[{""page_index"":0,""viewing_time"":13296.04000004474},{""page_index"":1,""viewing_time"":10624.72500000149},{""page_index"":2,""viewing_time"":8243.049999990035}]","","","","","","","","","","","","","","","","","",""
"null","","fixation","html-keyboard-response","2","40462","0.0-2.0-0.0","5df4096aa98a7a2dce5bfb69","condF","","<div class=""vertical-center"" style=""font-size:60px;"">+</div>","null","","","","","","","","","","","","","","","",""
"4645.905000041239","","tonetest","audio-button-response","3","45112","0.0-2.0-1.0","5df4096aa98a7a2dce5bfb69","condF","","../../src/audio/toneTest_2.wav","","2","1","false","","","","","","","","","","","","",""
"null","","fixation","html-keyboard-response","4","45617","0.0-2.0-0.1","5df4096aa98a7a2dce5bfb69","condF","","<div class=""vertical-center"" style=""font-size:60px;"">+</div>","null","","","","","","","","","","","","","","","",""
"4432.700000004843","","tonetest","audio-button-response","5","50054","0.0-2.0-1.1","5df4096aa98a7a2dce5bfb69","condF","","../../src/audio/toneTest_1.wav","","1","2","false","","","","","","","","","","","","",""
"null","","fixation","html-keyboard-response","6","50561","0.0-2.0-0.2","5df4096aa98a7a2dce5bfb69","condF","","<div class=""vertical-center"" style=""font-size:60px;"">+</div>","null","","","","","","","","","","","","","","","",""
"4625.325000029989","","tonetest","audio-button-response","7","55189","0.0-2.0-1.2","5df4096aa98a7a2dce5bfb69","condF","","../../src/audio/toneTest_2.wav","","2","1","false","","","","","","","","","","","","",""
"null","","fixation","html-keyboard-response","8","55693","0.0-2.0-0.3","5df4096aa98a7a2dce5bfb69","condF","","<div class=""vertical-center"" style=""font-size:60px;"">+</div>","null","","","","","","","","","","","","","","","",""
"5804.594999994151","","tonetest","audio-button-response","9","61507","0.0-2.0-1.3","5df4096aa98a7a2dce5bfb69","condF","","../../src/audio/toneTest_3.wav","","0","2","false","","","","","","","","","","","","",""
"null","","fixation","html-keyboard-response","10","62065","0.0-2.0-0.4","5df4096aa98a7a2dce5bfb69","condF","","<div class=""vertical-center"" style=""font-size:60px;"">+</div>","null","","","","","","","","","","","","","","","",""
"4383.899999957066","","tonetest","audio-button-response","11","66457","0.0-2.0-1.4","5df4096aa98a7a2dce5bfb69","condF","","../../src/audio/toneTest_1.wav","","1","2","false","","","","","","","","","","","","",""
"null","","fixation","html-keyboard-response","12","66959","0.0-2.0-0.5","5df4096aa98a7a2dce5bfb69","condF","","<div class=""vertical-center"" style=""font-size:60px;"">+</div>","null","","","","","","","","","","","","","","","",""
"4409.785000025295","","tonetest","audio-button-response","13","71372","0.0-2.0-1.5","5df4096aa98a7a2dce5bfb69","condF","","../../src/audio/toneTest_2.wav","","2","1","false","","","","","","","","","","","","",""
"28181.22999998741","","instructions","html-keyboard-response","14","99559","0.0-3.0","5df4096aa98a7a2dce5bfb69","condF","","<div class=""vertical-center""><p><b>Your score was 0/6.</b></p><p>If you scored below 6, please ensure that you are wearing properly functioning headphones and in a quiet location free of distractions.</p><p><i>To continue to the main experiment, press SPACE.</i></p></div>","32","","","","","","","","","","","","","","","",""
"","","","fullscreen","15","102820","0.0-4.0","5df4096aa98a7a2dce5bfb69","condF","","","","","","","true","","","","","","","","","","","",""
"24053.30500000855","","instructions","instructions","16","126875","0.0-5.0","5df4096aa98a7a2dce5bfb69","condF","[{""page_index"":0,""viewing_time"":24052.474999974947}]","","","","","","","","","","","","","","","","","",""
"null","","fixation","html-keyboard-response","17","127422","0.0-6.0-0.0","5df4096aa98a7a2dce5bfb69","condF","","<div class=""vertical-center"" style='width:60%;'><p style='font-weight:bold;'>Does the middle word sound more like the first word (A) or the last word (B)?</p> <br> <div class=""container""> <div id=""a-box""> <p class=""title-text"">A</h3></p> </div> <div id=""x-box""> <p class=""title-text"">X<p> </div> <div id=""b-box""> <p class=""title-text"">B</p></div> <br> <div style='float: left;padding-left:30px;'><p>Press '1' for A</p></div><div style='float: right;padding-right:30px;'><p>Press '0' for B</p> </div> </div></div>","null","","","","","","","","","","","","","","","",""
"6531","","practice","audio-keyboard-response","18","134034","0.0-6.0-1.0","5df4096aa98a7a2dce5bfb69","condF","","resources/audio/practiceStim/S1_AI_21_axb_Step-6.wav","49","","","","","","","","","","","","","","","",""
"null","","fixation","html-keyboard-response","19","135038","0.0-6.0-0.1","5df4096aa98a7a2dce5bfb69","condF","","<div class=""vertical-center"" style='width:60%;'><p style='font-weight:bold;'>Does the middle word sound more like the first word (A) or the last word (B)?</p> <br> <div class=""container""> <div id=""a-box""> <p class=""title-text"">A</h3></p> </div> <div id=""x-box""> <p class=""title-text"">X<p> </div> <div id=""b-box""> <p class=""title-text"">B</p></div> <br> <div style='float: left;padding-left:30px;'><p>Press '1' for A</p></div><div style='float: right;padding-right:30px;'><p>Press '0' for B</p> </div> </div></div>","null","","","","","","","","","","","","","","","",""
"3680","","practice","audio-keyboard-response","20","138718","0.0-6.0-1.1","5df4096aa98a7a2dce5bfb69","condF","","resources/audio/practiceStim/S1_AU_14_bxa_Step-6.wav","48","","","","","","","","","","","","","","","",""
"null","","fixation","html-keyboard-response","21","139742","0.0-6.0-0.2","5df4096aa98a7a2dce5bfb69","condF","","<div class=""vertical-center"" style='width:60%;'><p style='font-weight:bold;'>Does the middle word sound more like the first word (A) or the last word (B)?</p> <br> <div class=""container""> <div id=""a-box""> <p class=""title-text"">A</h3></p> </div> <div id=""x-box""> <p class=""title-text"">X<p> </div> <div id=""b-box""> <p class=""title-text"">B</p></div> <br> <div style='float: left;padding-left:30px;'><p>Press '1' for A</p></div><div style='float: right;padding-right:30px;'><p>Press '0' for B</p> </div> </div></div>","null","","","","","","","","","","","","","","","",""
"2581","","practice","audio-keyboard-response","22","142317","0.0-6.0-1.2","5df4096aa98a7a2dce5bfb69","condF","","resources/audio/practiceStim/S1_AU_14_axb_Step-6.wav","49","","","","","","","","","","","","","","","",""
"null","","fixation","html-keyboard-response","23","143358","0.0-6.0-0.3","5df4096aa98a7a2dce5bfb69","condF","","<div class=""vertical-center"" style='width:60%;'><p style='font-weight:bold;'>Does the middle word sound more like the first word (A) or the last word (B)?</p> <br> <div class=""container""> <div id=""a-box""> <p class=""title-text"">A</h3></p> </div> <div id=""x-box""> <p class=""title-text"">X<p> </div> <div id=""b-box""> <p class=""title-text"">B</p></div> <br> <div style='float: left;padding-left:30px;'><p>Press '1' for A</p></div><div style='float: right;padding-right:30px;'><p>Press '0' for B</p> </div> </div></div>","null","","","","","","","","","","","","","","","",""
"3349","","practice","audio-keyboard-response","24","146712","0.0-6.0-1.3","5df4096aa98a7a2dce5bfb69","condF","","resources/audio/practiceStim/S1_AI_21_bxa_Step-6.wav","49","","","","","","","","","","","","","","","",""
"1240.7050000037998","","instructions","instructions","25","148455","0.0-7.0","5df4096aa98a7a2dce5bfb69","condF","[{""page_index"":0,""viewing_time"":1239.9650000152178}]","","","","","","","","","","","","","","","","","",""
"3930.159999988973","","","html-keyboard-response","26","152388","0.0-8.0","5df4096aa98a7a2dce5bfb69","condF","","<div class=""vertical-center""><img src=""resources/images/BL_face_b.png"" style=""width:450px;height:300px;""><p>This is the speaker you're about to hear.</p><p> <br> <i>Press SPACE to continue.</i></p></div>","32","","","","","","","","","","","","","","","",""
"null","","fixation","html-keyboard-response","27","152891","0.0-9.0-0.0","5df4096aa98a7a2dce5bfb69","condF","","<div class=""vertical-center"" style='width:60%;'><p style='font-weight:bold;'>Does the middle word sound more like the first word (A) or the last word (B)?</p> <br> <div class=""container""> <div id=""a-box""> <p class=""title-text"">A</h3></p> </div> <div id=""x-box""> <p class=""title-text"">X<p> </div> <div id=""b-box""> <p class=""title-text"">B</p></div> <br> <div style='float: left;padding-left:30px;'><p>Press '1' for A</p></div><div style='float: right;padding-right:30px;'><p>Press '0' for B</p> </div> </div></div>","null","","","","","","","","","","","","","","","",""
"3701","","test","audio-keyboard-response","28","156596","0.0-9.0-1.0","5df4096aa98a7a2dce5bfb69","condF","","resources/audio/wordStim/S9_AU_18_axb_Step-2.wav","49","","","","","","resources/audio/wordStim/S9_AU_18_axb_Step-2.wav","S9","18","axb","2","CN","BL","S9-BL","0","1","false"
"null","","fixation","html-keyboard-response","29","157602","0.0-9.0-0.1","5df4096aa98a7a2dce5bfb69","condF","","<div class=""vertical-center"" style='width:60%;'><p style='font-weight:bold;'>Does the middle word sound more like the first word (A) or the last word (B)?</p> <br> <div class=""container""> <div id=""a-box""> <p class=""title-text"">A</h3></p> </div> <div id=""x-box""> <p class=""title-text"">X<p> </div> <div id=""b-box""> <p class=""title-text"">B</p></div> <br> <div style='float: left;padding-left:30px;'><p>Press '1' for A</p></div><div style='float: right;padding-right:30px;'><p>Press '0' for B</p> </div> </div></div>","null","","","","","","","","","","","","","","","",""
"5179","","test","audio-keyboard-response","30","162777","0.0-9.0-1.1","5df4096aa98a7a2dce5bfb69","condF","","resources/audio/wordStim/S9_AI_25_axb_Step-6.wav","49","","","","","","resources/audio/wordStim/S9_AI_25_axb_Step-6.wav","S9","25","axb","6","CN","BL","S9-BL","0","1","false"
"null","","fixation","html-keyboard-response","31","163807","0.0-9.0-0.2","5df4096aa98a7a2dce5bfb69","condF","","<div class=""vertical-center"" style='width:60%;'><p style='font-weight:bold;'>Does the middle word sound more like the first word (A) or the last word (B)?</p> <br> <div class=""container""> <div id=""a-box""> <p class=""title-text"">A</h3></p> </div> <div id=""x-box""> <p class=""title-text"">X<p> </div> <div id=""b-box""> <p class=""title-text"">B</p></div> <br> <div style='float: left;padding-left:30px;'><p>Press '1' for A</p></div><div style='float: right;padding-right:30px;'><p>Press '0' for B</p> </div> </div></div>","null","","","","","","","","","","","","","","","",""
"6251","","test","audio-keyboard-response","32","170070","0.0-9.0-1.2","5df4096aa98a7a2dce5bfb69","condF","","resources/audio/wordStim/S9_AU_11_bxa_Step-3.wav","49","","","","","","resources/audio/wordStim/S9_AU_11_bxa_Step-3.wav","S9","11","bxa","3","CN","BL","S9-BL","1","1","true"
"null","","fixation","html-keyboard-response","33","171076","0.0-9.0-0.3","5df4096aa98a7a2dce5bfb69","condF","","<div class=""vertical-center"" style='width:60%;'><p style='font-weight:bold;'>Does the middle word sound more like the first word (A) or the last word (B)?</p> <br> <div class=""container""> <div id=""a-box""> <p class=""title-text"">A</h3></p> </div> <div id=""x-box""> <p class=""title-text"">X<p> </div> <div id=""b-box""> <p class=""title-text"">B</p></div> <br> <div style='float: left;padding-left:30px;'><p>Press '1' for A</p></div><div style='float: right;padding-right:30px;'><p>Press '0' for B</p> </div> </div></div>","null","","","","","","","","","","","","","","","",""
"5888","","test","audio-keyboard-response","34","176969","0.0-9.0-1.3","5df4096aa98a7a2dce5bfb69","condF","","resources/audio/wordStim/S9_AI_29_bxa_Step-3.wav","49","","","","","","resources/audio/wordStim/S9_AI_29_bxa_Step-3.wav","S9","29","bxa","3","CN","BL","S9-BL","1","1","true"
"null","","fixation","html-keyboard-response","35","177976","0.0-9.0-0.4","5df4096aa98a7a2dce5bfb69","condF","","<div class=""vertical-center"" style='width:60%;'><p style='font-weight:bold;'>Does the middle word sound more like the first word (A) or the last word (B)?</p> <br> <div class=""container""> <div id=""a-box""> <p class=""title-text"">A</h3></p> </div> <div id=""x-box""> <p class=""title-text"">X<p> </div> <div id=""b-box""> <p class=""title-text"">B</p></div> <br> <div style='float: left;padding-left:30px;'><p>Press '1' for A</p></div><div style='float: right;padding-right:30px;'><p>Press '0' for B</p> </div> </div></div>","null","","","","","","","","","","","","","","","",""
"5421","","test","audio-keyboard-response","36","183398","0.0-9.0-1.4","5df4096aa98a7a2dce5bfb69","condF","","resources/audio/wordStim/S9_AU_18_bxa_Step-3.wav","49","","","","","","resources/audio/wordStim/S9_AU_18_bxa_Step-3.wav","S9","18","bxa","3","CN","BL","S9-BL","1","1","true"
"null","","fixation","html-keyboard-response","37","184403","0.0-9.0-0.5","5df4096aa98a7a2dce5bfb69","condF","","<div class=""vertical-center"" style='width:60%;'><p style='font-weight:bold;'>Does the middle word sound more like the first word (A) or the last word (B)?</p> <br> <div class=""container""> <div id=""a-box""> <p class=""title-text"">A</h3></p> </div> <div id=""x-box""> <p class=""title-text"">X<p> </div> <div id=""b-box""> <p class=""title-text"">B</p></div> <br> <div style='float: left;padding-left:30px;'><p>Press '1' for A</p></div><div style='float: right;padding-right:30px;'><p>Press '0' for B</p> </div> </div></div>","null","","","","","","","","","","","","","","","",""
"5240","","test","audio-keyboard-response","38","189647","0.0-9.0-1.5","5df4096aa98a7a2dce5bfb69","condF","","resources/audio/wordStim/S9_AI_23_bxa_Step-3.wav","49","","","","","","resources/audio/wordStim/S9_AI_23_bxa_Step-3.wav","S9","23","bxa","3","CN","BL","S9-BL","1","1","true"
"null","","fixation","html-keyboard-response","39","190713","0.0-9.0-0.6","5df4096aa98a7a2dce5bfb69","condF","","<div class=""vertical-center"" style='width:60%;'><p style='font-weight:bold;'>Does the middle word sound more like the first word (A) or the last word (B)?</p> <br> <div class=""container""> <div id=""a-box""> <p class=""title-text"">A</h3></p> </div> <div id=""x-box""> <p class=""title-text"">X<p> </div> <div id=""b-box""> <p class=""title-text"">B</p></div> <br> <div style='float: left;padding-left:30px;'><p>Press '1' for A</p></div><div style='float: right;padding-right:30px;'><p>Press '0' for B</p> </div> </div></div>","null","","","","","","","","","","","","","","","",""
"3320","","test","audio-keyboard-response","40","194027","0.0-9.0-1.6","5df4096aa98a7a2dce5bfb69","condF","","resources/audio/wordStim/S9_AI_23_axb_Step-5.wav","48","","","","","","resources/audio/wordStim/S9_AI_23_axb_Step-5.wav","S9","23","axb","5","CN","BL","S9-BL","0","0","true"
"null","","fixation","html-keyboard-response","41","195033","0.0-9.0-0.7","5df4096aa98a7a2dce5bfb69","condF","","<div class=""vertical-center"" style='width:60%;'><p style='font-weight:bold;'>Does the middle word sound more like the first word (A) or the last word (B)?</p> <br> <div class=""container""> <div id=""a-box""> <p class=""title-text"">A</h3></p> </div> <div id=""x-box""> <p class=""title-text"">X<p> </div> <div id=""b-box""> <p class=""title-text"">B</p></div> <br> <div style='float: left;padding-left:30px;'><p>Press '1' for A</p></div><div style='float: right;padding-right:30px;'><p>Press '0' for B</p> </div> </div></div>","null","","","","","","","","","","","","","","","",""
"4720","","test","audio-keyboard-response","42","199752","0.0-9.0-1.7","5df4096aa98a7a2dce5bfb69","condF","","resources/audio/wordStim/S9_AI_23_axb_Step-4.wav","48","","","","","","resources/audio/wordStim/S9_AI_23_axb_Step-4.wav","S9","23","axb","4","CN","BL","S9-BL","0","0","true"
"null","","fixation","html-keyboard-response","43","200779","0.0-9.0-0.8","5df4096aa98a7a2dce5bfb69","condF","","<div class=""vertical-center"" style='width:60%;'><p style='font-weight:bold;'>Does the middle word sound more like the first word (A) or the last word (B)?</p> <br> <div class=""container""> <div id=""a-box""> <p class=""title-text"">A</h3></p> </div> <div id=""x-box""> <p class=""title-text"">X<p> </div> <div id=""b-box""> <p class=""title-text"">B</p></div> <br> <div style='float: left;padding-left:30px;'><p>Press '1' for A</p></div><div style='float: right;padding-right:30px;'><p>Press '0' for B</p> </div> </div></div>","null","","","","","","","","","","","","","","","",""
"4461","","test","audio-keyboard-response","44","205247","0.0-9.0-1.8","5df4096aa98a7a2dce5bfb69","condF","","resources/audio/wordStim/S9_AI_25_axb_Step-3.wav","49","","","","","","resources/audio/wordStim/S9_AI_25_axb_Step-3.wav","S9","25","axb","3","CN","BL","S9-BL","0","1","false"
"null","","fixation","html-keyboard-response","45","206252","0.0-9.0-0.9","5df4096aa98a7a2dce5bfb69","condF","","<div class=""vertical-center"" style='width:60%;'><p style='font-weight:bold;'>Does the middle word sound more like the first word (A) or the last word (B)?</p> <br> <div class=""container""> <div id=""a-box""> <p class=""title-text"">A</h3></p> </div> <div id=""x-box""> <p class=""title-text"">X<p> </div> <div id=""b-box""> <p class=""title-text"">B</p></div> <br> <div style='float: left;padding-left:30px;'><p>Press '1' for A</p></div><div style='float: right;padding-right:30px;'><p>Press '0' for B</p> </div> </div></div>","null","","","","","","","","","","","","","","","",""
"5731","","test","audio-keyboard-response","46","211977","0.0-9.0-1.9","5df4096aa98a7a2dce5bfb69","condF","","resources/audio/wordStim/S9_AU_20_axb_Step-2.wav","49","","","","","","resources/audio/wordStim/S9_AU_20_axb_Step-2.wav","S9","20","axb","2","CN","BL","S9-BL","0","1","false"
"null","","fixation","html-keyboard-response","47","212981","0.0-9.0-0.10","5df4096aa98a7a2dce5bfb69","condF","","<div class=""vertical-center"" style='width:60%;'><p style='font-weight:bold;'>Does the middle word sound more like the first word (A) or the last word (B)?</p> <br> <div class=""container""> <div id=""a-box""> <p class=""title-text"">A</h3></p> </div> <div id=""x-box""> <p class=""title-text"">X<p> </div> <div id=""b-box""> <p class=""title-text"">B</p></div> <br> <div style='float: left;padding-left:30px;'><p>Press '1' for A</p></div><div style='float: right;padding-right:30px;'><p>Press '0' for B</p> </div> </div></div>","null","","","","","","","","","","","","","","","",""
"5131","","test","audio-keyboard-response","48","218110","0.0-9.0-1.10","5df4096aa98a7a2dce5bfb69","condF","","resources/audio/wordStim/S9_AI_25_bxa_Step-6.wav","49","","","","","","resources/audio/wordStim/S9_AI_25_bxa_Step-6.wav","S9","25","bxa","6","CN","BL","S9-BL","1","1","true"
"null","","fixation","html-keyboard-response","49","219133","0.0-9.0-0.11","5df4096aa98a7a2dce5bfb69","condF","","<div class=""vertical-center"" style='width:60%;'><p style='font-weight:bold;'>Does the middle word sound more like the first word (A) or the last word (B)?</p> <br> <div class=""container""> <div id=""a-box""> <p class=""title-text"">A</h3></p> </div> <div id=""x-box""> <p class=""title-text"">X<p> </div> <div id=""b-box""> <p class=""title-text"">B</p></div> <br> <div style='float: left;padding-left:30px;'><p>Press '1' for A</p></div><div style='float: right;padding-right:30px;'><p>Press '0' for B</p> </div> </div></div>","null","","","","","","","","","","","","","","","",""
"4421","","test","audio-keyboard-response","50","223552","0.0-9.0-1.11","5df4096aa98a7a2dce5bfb69","condF","","resources/audio/wordStim/S9_AU_11_bxa_Step-7.wav","48","","","","","","resources/audio/wordStim/S9_AU_11_bxa_Step-7.wav","S9","11","bxa","7","CN","BL","S9-BL","1","0","false"
"null","","fixation","html-keyboard-response","51","224566","0.0-9.0-0.12","5df4096aa98a7a2dce5bfb69","condF","","<div class=""vertical-center"" style='width:60%;'><p style='font-weight:bold;'>Does the middle word sound more like the first word (A) or the last word (B)?</p> <br> <div class=""container""> <div id=""a-box""> <p class=""title-text"">A</h3></p> </div> <div id=""x-box""> <p class=""title-text"">X<p> </div> <div id=""b-box""> <p class=""title-text"">B</p></div> <br> <div style='float: left;padding-left:30px;'><p>Press '1' for A</p></div><div style='float: right;padding-right:30px;'><p>Press '0' for B</p> </div> </div></div>","null","","","","","","","","","","","","","","","",""
"6941","","test","audio-keyboard-response","52","231512","0.0-9.0-1.12","5df4096aa98a7a2dce5bfb69","condF","","resources/audio/wordStim/S9_AI_29_axb_Step-6.wav","48","","","","","","resources/audio/wordStim/S9_AI_29_axb_Step-6.wav","S9","29","axb","6","CN","BL","S9-BL","0","0","true"
"null","","fixation","html-keyboard-response","53","232518","0.0-9.0-0.13","5df4096aa98a7a2dce5bfb69","condF","","<div class=""vertical-center"" style='width:60%;'><p style='font-weight:bold;'>Does the middle word sound more like the first word (A) or the last word (B)?</p> <br> <div class=""container""> <div id=""a-box""> <p class=""title-text"">A</h3></p> </div> <div id=""x-box""> <p class=""title-text"">X<p> </div> <div id=""b-box""> <p class=""title-text"">B</p></div> <br> <div style='float: left;padding-left:30px;'><p>Press '1' for A</p></div><div style='float: right;padding-right:30px;'><p>Press '0' for B</p> </div> </div></div>","null","","","","","","","","","","","","","","","",""
"9389","","test","audio-keyboard-response","54","241913","0.0-9.0-1.13","5df4096aa98a7a2dce5bfb69","condF","","resources/audio/wordStim/S9_AU_18_bxa_Step-8.wav","48","","","","","","resources/audio/wordStim/S9_AU_18_bxa_Step-8.wav","S9","18","bxa","8","CN","BL","S9-BL","1","0","false"
"null","","fixation","html-keyboard-response","55","242919","0.0-9.0-0.14","5df4096aa98a7a2dce5bfb69","condF","","<div class=""vertical-center"" style='width:60%;'><p style='font-weight:bold;'>Does the middle word sound more like the first word (A) or the last word (B)?</p> <br> <div class=""container""> <div id=""a-box""> <p class=""title-text"">A</h3></p> </div> <div id=""x-box""> <p class=""title-text"">X<p> </div> <div id=""b-box""> <p class=""title-text"">B</p></div> <br> <div style='float: left;padding-left:30px;'><p>Press '1' for A</p></div><div style='float: right;padding-right:30px;'><p>Press '0' for B</p> </div> </div></div>","null","","","","","","","","","","","","","","","",""
"4109","","test","audio-keyboard-response","56","247037","0.0-9.0-1.14","5df4096aa98a7a2dce5bfb69","condF","","resources/audio/wordStim/S9_AI_29_bxa_Step-5.wav","49","","","","","","resources/audio/wordStim/S9_AI_29_bxa_Step-5.wav","S9","29","bxa","5","CN","BL","S9-BL","1","1","true"
"null","","fixation","html-keyboard-response","57","248043","0.0-9.0-0.15","5df4096aa98a7a2dce5bfb69","condF","","<div class=""vertical-center"" style='width:60%;'><p style='font-weight:bold;'>Does the middle word sound more like the first word (A) or the last word (B)?</p> <br> <div class=""container""> <div id=""a-box""> <p class=""title-text"">A</h3></p> </div> <div id=""x-box""> <p class=""title-text"">X<p> </div> <div id=""b-box""> <p class=""title-text"">B</p></div> <br> <div style='float: left;padding-left:30px;'><p>Press '1' for A</p></div><div style='float: right;padding-right:30px;'><p>Press '0' for B</p> </div> </div></div>","null","","","","","","","","","","","","","","","",""
"9120","","test","audio-keyboard-response","58","257164","0.0-9.0-1.15","5df4096aa98a7a2dce5bfb69","condF","","resources/audio/wordStim/S9_AU_18_axb_Step-6.wav","48","","","","","","resources/audio/wordStim/S9_AU_18_axb_Step-6.wav","S9","18","axb","6","CN","BL","S9-BL","0","0","true"
"null","","fixation","html-keyboard-response","59","258171","0.0-9.0-0.16","5df4096aa98a7a2dce5bfb69","condF","","<div class=""vertical-center"" style='width:60%;'><p style='font-weight:bold;'>Does the middle word sound more like the first word (A) or the last word (B)?</p> <br> <div class=""container""> <div id=""a-box""> <p class=""title-text"">A</h3></p> </div> <div id=""x-box""> <p class=""title-text"">X<p> </div> <div id=""b-box""> <p class=""title-text"">B</p></div> <br> <div style='float: left;padding-left:30px;'><p>Press '1' for A</p></div><div style='float: right;padding-right:30px;'><p>Press '0' for B</p> </div> </div></div>","null","","","","","","","","","","","","","","","",""
"4552","","test","audio-keyboard-response","60","262718","0.0-9.0-1.16","5df4096aa98a7a2dce5bfb69","condF","","resources/audio/wordStim/S9_AI_23_bxa_Step-6.wav","49","","","","","","resources/audio/wordStim/S9_AI_23_bxa_Step-6.wav","S9","23","bxa","6","CN","BL","S9-BL","1","1","true"
"null","","fixation","html-keyboard-response","61","263722","0.0-9.0-0.17","5df4096aa98a7a2dce5bfb69","condF","","<div class=""vertical-center"" style='width:60%;'><p style='font-weight:bold;'>Does the middle word sound more like the first word (A) or the last word (B)?</p> <br> <div class=""container""> <div id=""a-box""> <p class=""title-text"">A</h3></p> </div> <div id=""x-box""> <p class=""title-text"">X<p> </div> <div id=""b-box""> <p class=""title-text"">B</p></div> <br> <div style='float: left;padding-left:30px;'><p>Press '1' for A</p></div><div style='float: right;padding-right:30px;'><p>Press '0' for B</p> </div> </div></div>","null","","","","","","","","","","","","","","","",""
"5149","","test","audio-keyboard-response","62","268870","0.0-9.0-1.17","5df4096aa98a7a2dce5bfb69","condF","","resources/audio/wordStim/S9_AU_11_axb_Step-7.wav","49","","","","","","resources/audio/wordStim/S9_AU_11_axb_Step-7.wav","S9","11","axb","7","CN","BL","S9-BL","0","1","false"
"null","","fixation","html-keyboard-response","63","269952","0.0-9.0-0.18","5df4096aa98a7a2dce5bfb69","condF","","<div class=""vertical-center"" style='width:60%;'><p style='font-weight:bold;'>Does the middle word sound more like the first word (A) or the last word (B)?</p> <br> <div class=""container""> <div id=""a-box""> <p class=""title-text"">A</h3></p> </div> <div id=""x-box""> <p class=""title-text"">X<p> </div> <div id=""b-box""> <p class=""title-text"">B</p></div> <br> <div style='float: left;padding-left:30px;'><p>Press '1' for A</p></div><div style='float: right;padding-right:30px;'><p>Press '0' for B</p> </div> </div></div>","null","","","","","","","","","","","","","","","",""
"4640","","test","audio-keyboard-response","64","274588","0.0-9.0-1.18","5df4096aa98a7a2dce5bfb69","condF","","resources/audio/wordStim/S9_AI_23_bxa_Step-8.wav","48","","","","","","resources/audio/wordStim/S9_AI_23_bxa_Step-8.wav","S9","23","bxa","8","CN","BL","S9-BL","1","0","false"
"null","","fixation","html-keyboard-response","65","275591","0.0-9.0-0.19","5df4096aa98a7a2dce5bfb69","condF","","<div class=""vertical-center"" style='width:60%;'><p style='font-weight:bold;'>Does the middle word sound more like the first word (A) or the last word (B)?</p> <br> <div class=""container""> <div id=""a-box""> <p class=""title-text"">A</h3></p> </div> <div id=""x-box""> <p class=""title-text"">X<p> </div> <div id=""b-box""> <p class=""title-text"">B</p></div> <br> <div style='float: left;padding-left:30px;'><p>Press '1' for A</p></div><div style='float: right;padding-right:30px;'><p>Press '0' for B</p> </div> </div></div>","null","","","","","","","","","","","","","","","",""
"4939","","test","audio-keyboard-response","66","280527","0.0-9.0-1.19","5df4096aa98a7a2dce5bfb69","condF","","resources/audio/wordStim/S9_AI_25_bxa_Step-4.wav","48","","","","","","resources/audio/wordStim/S9_AI_25_bxa_Step-4.wav","S9","25","bxa","4","CN","BL","S9-BL","1","0","false"
"null","","fixation","html-keyboard-response","67","281532","0.0-9.0-0.20","5df4096aa98a7a2dce5bfb69","condF","","<div class=""vertical-center"" style='width:60%;'><p style='font-weight:bold;'>Does the middle word sound more like the first word (A) or the last word (B)?</p> <br> <div class=""container""> <div id=""a-box""> <p class=""title-text"">A</h3></p> </div> <div id=""x-box""> <p class=""title-text"">X<p> </div> <div id=""b-box""> <p class=""title-text"">B</p></div> <br> <div style='float: left;padding-left:30px;'><p>Press '1' for A</p></div><div style='float: right;padding-right:30px;'><p>Press '0' for B</p> </div> </div></div>","null","","","","","","","","","","","","","","","",""
"4541","","test","audio-keyboard-response","68","286069","0.0-9.0-1.20","5df4096aa98a7a2dce5bfb69","condF","","resources/audio/wordStim/S9_AI_29_axb_Step-7.wav","48","","","","","","resources/audio/wordStim/S9_AI_29_axb_Step-7.wav","S9","29","axb","7","CN","BL","S9-BL","0","0","true"
"14592.774999968242","","break","html-keyboard-response","69","301165","0.0-9.0-2.20-0.20","5df4096aa98a7a2dce5bfb69","condF","","<div class=""vertical-center""><p>Feel free to take a break!</p><i>When you're ready to continue, press SPACE to begin the next trial.</i></p></div>","32","","","","","","","","","","","","","","","",""
"null","","fixation","html-keyboard-response","70","301668","0.0-9.0-0.21","5df4096aa98a7a2dce5bfb69","condF","","<div class=""vertical-center"" style='width:60%;'><p style='font-weight:bold;'>Does the middle word sound more like the first word (A) or the last word (B)?</p> <br> <div class=""container""> <div id=""a-box""> <p class=""title-text"">A</h3></p> </div> <div id=""x-box""> <p class=""title-text"">X<p> </div> <div id=""b-box""> <p class=""title-text"">B</p></div> <br> <div style='float: left;padding-left:30px;'><p>Press '1' for A</p></div><div style='float: right;padding-right:30px;'><p>Press '0' for B</p> </div> </div></div>","null","","","","","","","","","","","","","","","",""
"3531","","test","audio-keyboard-response","71","305204","0.0-9.0-1.21","5df4096aa98a7a2dce5bfb69","condF","","resources/audio/wordStim/S9_AU_20_axb_Step-7.wav","49","","","","","","resources/audio/wordStim/S9_AU_20_axb_Step-7.wav","S9","20","axb","7","CN","BL","S9-BL","0","1","false"
"null","","fixation","html-keyboard-response","72","306209","0.0-9.0-0.22","5df4096aa98a7a2dce5bfb69","condF","","<div class=""vertical-center"" style='width:60%;'><p style='font-weight:bold;'>Does the middle word sound more like the first word (A) or the last word (B)?</p> <br> <div class=""container""> <div id=""a-box""> <p class=""title-text"">A</h3></p> </div> <div id=""x-box""> <p class=""title-text"">X<p> </div> <div id=""b-box""> <p class=""title-text"">B</p></div> <br> <div style='float: left;padding-left:30px;'><p>Press '1' for A</p></div><div style='float: right;padding-right:30px;'><p>Press '0' for B</p> </div> </div></div>","null","","","","","","","","","","","","","","","",""
"3451","","test","audio-keyboard-response","73","309666","0.0-9.0-1.22","5df4096aa98a7a2dce5bfb69","condF","","resources/audio/wordStim/S9_AI_23_axb_Step-8.wav","48","","","","","","resources/audio/wordStim/S9_AI_23_axb_Step-8.wav","S9","23","axb","8","CN","BL","S9-BL","0","0","true"
"null","","fixation","html-keyboard-response","74","310736","0.0-9.0-0.23","5df4096aa98a7a2dce5bfb69","condF","","<div class=""vertical-center"" style='width:60%;'><p style='font-weight:bold;'>Does the middle word sound more like the first word (A) or the last word (B)?</p> <br> <div class=""container""> <div id=""a-box""> <p class=""title-text"">A</h3></p> </div> <div id=""x-box""> <p class=""title-text"">X<p> </div> <div id=""b-box""> <p class=""title-text"">B</p></div> <br> <div style='float: left;padding-left:30px;'><p>Press '1' for A</p></div><div style='float: right;padding-right:30px;'><p>Press '0' for B</p> </div> </div></div>","null","","","","","","","","","","","","","","","",""
"3541","","test","audio-keyboard-response","75","314277","0.0-9.0-1.23","5df4096aa98a7a2dce5bfb69","condF","","resources/audio/wordStim/S9_AI_25_bxa_Step-8.wav","49","","","","","","resources/audio/wordStim/S9_AI_25_bxa_Step-8.wav","S9","25","bxa","8","CN","BL","S9-BL","1","1","true"
"null","","fixation","html-keyboard-response","76","315282","0.0-9.0-0.24","5df4096aa98a7a2dce5bfb69","condF","","<div class=""vertical-center"" style='width:60%;'><p style='font-weight:bold;'>Does the middle word sound more like the first word (A) or the last word (B)?</p> <br> <div class=""container""> <div id=""a-box""> <p class=""title-text"">A</h3></p> </div> <div id=""x-box""> <p class=""title-text"">X<p> </div> <div id=""b-box""> <p class=""title-text"">B</p></div> <br> <div style='float: left;padding-left:30px;'><p>Press '1' for A</p></div><div style='float: right;padding-right:30px;'><p>Press '0' for B</p> </div> </div></div>","null","","","","","","","","","","","","","","","",""
"3040","","test","audio-keyboard-response","77","318322","0.0-9.0-1.24","5df4096aa98a7a2dce5bfb69","condF","","resources/audio/wordStim/S9_AI_29_axb_Step-3.wav","48","","","","","","resources/audio/wordStim/S9_AI_29_axb_Step-3.wav","S9","29","axb","3","CN","BL","S9-BL","0","0","true"
"null","","fixation","html-keyboard-response","78","319328","0.0-9.0-0.25","5df4096aa98a7a2dce5bfb69","condF","","<div class=""vertical-center"" style='width:60%;'><p style='font-weight:bold;'>Does the middle word sound more like the first word (A) or the last word (B)?</p> <br> <div class=""container""> <div id=""a-box""> <p class=""title-text"">A</h3></p> </div> <div id=""x-box""> <p class=""title-text"">X<p> </div> <div id=""b-box""> <p class=""title-text"">B</p></div> <br> <div style='float: left;padding-left:30px;'><p>Press '1' for A</p></div><div style='float: right;padding-right:30px;'><p>Press '0' for B</p> </div> </div></div>","null","","","","","","","","","","","","","","","",""
"3832","","test","audio-keyboard-response","79","323162","0.0-9.0-1.25","5df4096aa98a7a2dce5bfb69","condF","","resources/audio/wordStim/S9_AU_20_axb_Step-6.wav","49","","","","","","resources/audio/wordStim/S9_AU_20_axb_Step-6.wav","S9","20","axb","6","CN","BL","S9-BL","0","1","false"
"null","","fixation","html-keyboard-response","80","324177","0.0-9.0-0.26","5df4096aa98a7a2dce5bfb69","condF","","<div class=""vertical-center"" style='width:60%;'><p style='font-weight:bold;'>Does the middle word sound more like the first word (A) or the last word (B)?</p> <br> <div class=""container""> <div id=""a-box""> <p class=""title-text"">A</h3></p> </div> <div id=""x-box""> <p class=""title-text"">X<p> </div> <div id=""b-box""> <p class=""title-text"">B</p></div> <br> <div style='float: left;padding-left:30px;'><p>Press '1' for A</p></div><div style='float: right;padding-right:30px;'><p>Press '0' for B</p> </div> </div></div>","null","","","","","","","","","","","","","","","",""
"5080","","test","audio-keyboard-response","81","329259","0.0-9.0-1.26","5df4096aa98a7a2dce5bfb69","condF","","resources/audio/wordStim/S9_AU_18_bxa_Step-7.wav","49","","","","","","resources/audio/wordStim/S9_AU_18_bxa_Step-7.wav","S9","18","bxa","7","CN","BL","S9-BL","1","1","true"
"null","","fixation","html-keyboard-response","82","330270","0.0-9.0-0.27","5df4096aa98a7a2dce5bfb69","condF","","<div class=""vertical-center"" style='width:60%;'><p style='font-weight:bold;'>Does the middle word sound more like the first word (A) or the last word (B)?</p> <br> <div class=""container""> <div id=""a-box""> <p class=""title-text"">A</h3></p> </div> <div id=""x-box""> <p class=""title-text"">X<p> </div> <div id=""b-box""> <p class=""title-text"">B</p></div> <br> <div style='float: left;padding-left:30px;'><p>Press '1' for A</p></div><div style='float: right;padding-right:30px;'><p>Press '0' for B</p> </div> </div></div>","null","","","","","","","","","","","","","","","",""
"4240","","test","audio-keyboard-response","83","334508","0.0-9.0-1.27","5df4096aa98a7a2dce5bfb69","condF","","resources/audio/wordStim/S9_AI_25_axb_Step-5.wav","48","","","","","","resources/audio/wordStim/S9_AI_25_axb_Step-5.wav","S9","25","axb","5","CN","BL","S9-BL","0","0","true"
"null","","fixation","html-keyboard-response","84","335562","0.0-9.0-0.28","5df4096aa98a7a2dce5bfb69","condF","","<div class=""vertical-center"" style='width:60%;'><p style='font-weight:bold;'>Does the middle word sound more like the first word (A) or the last word (B)?</p> <br> <div class=""container""> <div id=""a-box""> <p class=""title-text"">A</h3></p> </div> <div id=""x-box""> <p class=""title-text"">X<p> </div> <div id=""b-box""> <p class=""title-text"">B</p></div> <br> <div style='float: left;padding-left:30px;'><p>Press '1' for A</p></div><div style='float: right;padding-right:30px;'><p>Press '0' for B</p> </div> </div></div>","null","","","","","","","","","","","","","","","",""
"4408","","test","audio-keyboard-response","85","339972","0.0-9.0-1.28","5df4096aa98a7a2dce5bfb69","condF","","resources/audio/wordStim/S9_AI_29_axb_Step-8.wav","48","","","","","","resources/audio/wordStim/S9_AI_29_axb_Step-8.wav","S9","29","axb","8","CN","BL","S9-BL","0","0","true"
"null","","fixation","html-keyboard-response","86","340978","0.0-9.0-0.29","5df4096aa98a7a2dce5bfb69","condF","","<div class=""vertical-center"" style='width:60%;'><p style='font-weight:bold;'>Does the middle word sound more like the first word (A) or the last word (B)?</p> <br> <div class=""container""> <div id=""a-box""> <p class=""title-text"">A</h3></p> </div> <div id=""x-box""> <p class=""title-text"">X<p> </div> <div id=""b-box""> <p class=""title-text"">B</p></div> <br> <div style='float: left;padding-left:30px;'><p>Press '1' for A</p></div><div style='float: right;padding-right:30px;'><p>Press '0' for B</p> </div> </div></div>","null","","","","","","","","","","","","","","","",""
"3701","","test","audio-keyboard-response","87","344684","0.0-9.0-1.29","5df4096aa98a7a2dce5bfb69","condF","","resources/audio/wordStim/S9_AU_11_bxa_Step-2.wav","48","","","","","","resources/audio/wordStim/S9_AU_11_bxa_Step-2.wav","S9","11","bxa","2","CN","BL","S9-BL","1","0","false"
"null","","fixation","html-keyboard-response","88","345688","0.0-9.0-0.30","5df4096aa98a7a2dce5bfb69","condF","","<div class=""vertical-center"" style='width:60%;'><p style='font-weight:bold;'>Does the middle word sound more like the first word (A) or the last word (B)?</p> <br> <div class=""container""> <div id=""a-box""> <p class=""title-text"">A</h3></p> </div> <div id=""x-box""> <p class=""title-text"">X<p> </div> <div id=""b-box""> <p class=""title-text"">B</p></div> <br> <div style='float: left;padding-left:30px;'><p>Press '1' for A</p></div><div style='float: right;padding-right:30px;'><p>Press '0' for B</p> </div> </div></div>","null","","","","","","","","","","","","","","","",""
"3640","","test","audio-keyboard-response","89","349328","0.0-9.0-1.30","5df4096aa98a7a2dce5bfb69","condF","","resources/audio/wordStim/S9_AI_25_axb_Step-7.wav","48","","","","","","resources/audio/wordStim/S9_AI_25_axb_Step-7.wav","S9","25","axb","7","CN","BL","S9-BL","0","0","true"
"null","","fixation","html-keyboard-response","90","350347","0.0-9.0-0.31","5df4096aa98a7a2dce5bfb69","condF","","<div class=""vertical-center"" style='width:60%;'><p style='font-weight:bold;'>Does the middle word sound more like the first word (A) or the last word (B)?</p> <br> <div class=""container""> <div id=""a-box""> <p class=""title-text"">A</h3></p> </div> <div id=""x-box""> <p class=""title-text"">X<p> </div> <div id=""b-box""> <p class=""title-text"">B</p></div> <br> <div style='float: left;padding-left:30px;'><p>Press '1' for A</p></div><div style='float: right;padding-right:30px;'><p>Press '0' for B</p> </div> </div></div>","null","","","","","","","","","","","","","","","",""
"3189","","test","audio-keyboard-response","91","353539","0.0-9.0-1.31","5df4096aa98a7a2dce5bfb69","condF","","resources/audio/wordStim/S9_AU_20_bxa_Step-6.wav","49","","","","","","resources/audio/wordStim/S9_AU_20_bxa_Step-6.wav","S9","20","bxa","6","CN","BL","S9-BL","1","1","true"
"null","","fixation","html-keyboard-response","92","354570","0.0-9.0-0.32","5df4096aa98a7a2dce5bfb69","condF","","<div class=""vertical-center"" style='width:60%;'><p style='font-weight:bold;'>Does the middle word sound more like the first word (A) or the last word (B)?</p> <br> <div class=""container""> <div id=""a-box""> <p class=""title-text"">A</h3></p> </div> <div id=""x-box""> <p class=""title-text"">X<p> </div> <div id=""b-box""> <p class=""title-text"">B</p></div> <br> <div style='float: left;padding-left:30px;'><p>Press '1' for A</p></div><div style='float: right;padding-right:30px;'><p>Press '0' for B</p> </div> </div></div>","null","","","","","","","","","","","","","","","",""
"3200","","test","audio-keyboard-response","93","357770","0.0-9.0-1.32","5df4096aa98a7a2dce5bfb69","condF","","resources/audio/wordStim/S9_AU_20_bxa_Step-5.wav","49","","","","","","resources/audio/wordStim/S9_AU_20_bxa_Step-5.wav","S9","20","bxa","5","CN","BL","S9-BL","1","1","true"
"null","","fixation","html-keyboard-response","94","358775","0.0-9.0-0.33","5df4096aa98a7a2dce5bfb69","condF","","<div class=""vertical-center"" style='width:60%;'><p style='font-weight:bold;'>Does the middle word sound more like the first word (A) or the last word (B)?</p> <br> <div class=""container""> <div id=""a-box""> <p class=""title-text"">A</h3></p> </div> <div id=""x-box""> <p class=""title-text"">X<p> </div> <div id=""b-box""> <p class=""title-text"">B</p></div> <br> <div style='float: left;padding-left:30px;'><p>Press '1' for A</p></div><div style='float: right;padding-right:30px;'><p>Press '0' for B</p> </div> </div></div>","null","","","","","","","","","","","","","","","",""
"3291","","test","audio-keyboard-response","95","362070","0.0-9.0-1.33","5df4096aa98a7a2dce5bfb69","condF","","resources/audio/wordStim/S9_AU_20_axb_Step-5.wav","49","","","","","","resources/audio/wordStim/S9_AU_20_axb_Step-5.wav","S9","20","axb","5","CN","BL","S9-BL","0","1","false"
"null","","fixation","html-keyboard-response","96","363075","0.0-9.0-0.34","5df4096aa98a7a2dce5bfb69","condF","","<div class=""vertical-center"" style='width:60%;'><p style='font-weight:bold;'>Does the middle word sound more like the first word (A) or the last word (B)?</p> <br> <div class=""container""> <div id=""a-box""> <p class=""title-text"">A</h3></p> </div> <div id=""x-box""> <p class=""title-text"">X<p> </div> <div id=""b-box""> <p class=""title-text"">B</p></div> <br> <div style='float: left;padding-left:30px;'><p>Press '1' for A</p></div><div style='float: right;padding-right:30px;'><p>Press '0' for B</p> </div> </div></div>","null","","","","","","","","","","","","","","","",""
"4859","","test","audio-keyboard-response","97","367944","0.0-9.0-1.34","5df4096aa98a7a2dce5bfb69","condF","","resources/audio/wordStim/S9_AU_18_axb_Step-4.wav","49","","","","","","resources/audio/wordStim/S9_AU_18_axb_Step-4.wav","S9","18","axb","4","CN","BL","S9-BL","0","1","false"
"null","","fixation","html-keyboard-response","98","368949","0.0-9.0-0.35","5df4096aa98a7a2dce5bfb69","condF","","<div class=""vertical-center"" style='width:60%;'><p style='font-weight:bold;'>Does the middle word sound more like the first word (A) or the last word (B)?</p> <br> <div class=""container""> <div id=""a-box""> <p class=""title-text"">A</h3></p> </div> <div id=""x-box""> <p class=""title-text"">X<p> </div> <div id=""b-box""> <p class=""title-text"">B</p></div> <br> <div style='float: left;padding-left:30px;'><p>Press '1' for A</p></div><div style='float: right;padding-right:30px;'><p>Press '0' for B</p> </div> </div></div>","null","","","","","","","","","","","","","","","",""
"4000","","test","audio-keyboard-response","99","372953","0.0-9.0-1.35","5df4096aa98a7a2dce5bfb69","condF","","resources/audio/wordStim/S9_AI_23_axb_Step-3.wav","49","","","","","","resources/audio/wordStim/S9_AI_23_axb_Step-3.wav","S9","23","axb","3","CN","BL","S9-BL","0","1","false"
"null","","fixation","html-keyboard-response","100","373998","0.0-9.0-0.36","5df4096aa98a7a2dce5bfb69","condF","","<div class=""vertical-center"" style='width:60%;'><p style='font-weight:bold;'>Does the middle word sound more like the first word (A) or the last word (B)?</p> <br> <div class=""container""> <div id=""a-box""> <p class=""title-text"">A</h3></p> </div> <div id=""x-box""> <p class=""title-text"">X<p> </div> <div id=""b-box""> <p class=""title-text"">B</p></div> <br> <div style='float: left;padding-left:30px;'><p>Press '1' for A</p></div><div style='float: right;padding-right:30px;'><p>Press '0' for B</p> </div> </div></div>","null","","","","","","","","","","","","","","","",""
"3248","","test","audio-keyboard-response","101","377249","0.0-9.0-1.36","5df4096aa98a7a2dce5bfb69","condF","","resources/audio/wordStim/S9_AU_20_bxa_Step-4.wav","49","","","","","","resources/audio/wordStim/S9_AU_20_bxa_Step-4.wav","S9","20","bxa","4","CN","BL","S9-BL","1","1","true"
"null","","fixation","html-keyboard-response","102","378289","0.0-9.0-0.37","5df4096aa98a7a2dce5bfb69","condF","","<div class=""vertical-center"" style='width:60%;'><p style='font-weight:bold;'>Does the middle word sound more like the first word (A) or the last word (B)?</p> <br> <div class=""container""> <div id=""a-box""> <p class=""title-text"">A</h3></p> </div> <div id=""x-box""> <p class=""title-text"">X<p> </div> <div id=""b-box""> <p class=""title-text"">B</p></div> <br> <div style='float: left;padding-left:30px;'><p>Press '1' for A</p></div><div style='float: right;padding-right:30px;'><p>Press '0' for B</p> </div> </div></div>","null","","","","","","","","","","","","","","","",""
"4651","","test","audio-keyboard-response","103","382941","0.0-9.0-1.37","5df4096aa98a7a2dce5bfb69","condF","","resources/audio/wordStim/S9_AU_18_bxa_Step-6.wav","49","","","","","","resources/audio/wordStim/S9_AU_18_bxa_Step-6.wav","S9","18","bxa","6","CN","BL","S9-BL","1","1","true"
"null","","fixation","html-keyboard-response","104","383958","0.0-9.0-0.38","5df4096aa98a7a2dce5bfb69","condF","","<div class=""vertical-center"" style='width:60%;'><p style='font-weight:bold;'>Does the middle word sound more like the first word (A) or the last word (B)?</p> <br> <div class=""container""> <div id=""a-box""> <p class=""title-text"">A</h3></p> </div> <div id=""x-box""> <p class=""title-text"">X<p> </div> <div id=""b-box""> <p class=""title-text"">B</p></div> <br> <div style='float: left;padding-left:30px;'><p>Press '1' for A</p></div><div style='float: right;padding-right:30px;'><p>Press '0' for B</p> </div> </div></div>","null","","","","","","","","","","","","","","","",""
"3379","","test","audio-keyboard-response","105","387342","0.0-9.0-1.38","5df4096aa98a7a2dce5bfb69","condF","","resources/audio/wordStim/S9_AI_29_axb_Step-4.wav","49","","","","","","resources/audio/wordStim/S9_AI_29_axb_Step-4.wav","S9","29","axb","4","CN","BL","S9-BL","0","1","false"
"null","","fixation","html-keyboard-response","106","388345","0.0-9.0-0.39","5df4096aa98a7a2dce5bfb69","condF","","<div class=""vertical-center"" style='width:60%;'><p style='font-weight:bold;'>Does the middle word sound more like the first word (A) or the last word (B)?</p> <br> <div class=""container""> <div id=""a-box""> <p class=""title-text"">A</h3></p> </div> <div id=""x-box""> <p class=""title-text"">X<p> </div> <div id=""b-box""> <p class=""title-text"">B</p></div> <br> <div style='float: left;padding-left:30px;'><p>Press '1' for A</p></div><div style='float: right;padding-right:30px;'><p>Press '0' for B</p> </div> </div></div>","null","","","","","","","","","","","","","","","",""
"3459","","test","audio-keyboard-response","107","391812","0.0-9.0-1.39","5df4096aa98a7a2dce5bfb69","condF","","resources/audio/wordStim/S9_AI_29_axb_Step-5.wav","48","","","","","","resources/audio/wordStim/S9_AI_29_axb_Step-5.wav","S9","29","axb","5","CN","BL","S9-BL","0","0","true"
"null","","fixation","html-keyboard-response","108","392820","0.0-9.0-0.40","5df4096aa98a7a2dce5bfb69","condF","","<div class=""vertical-center"" style='width:60%;'><p style='font-weight:bold;'>Does the middle word sound more like the first word (A) or the last word (B)?</p> <br> <div class=""container""> <div id=""a-box""> <p class=""title-text"">A</h3></p> </div> <div id=""x-box""> <p class=""title-text"">X<p> </div> <div id=""b-box""> <p class=""title-text"">B</p></div> <br> <div style='float: left;padding-left:30px;'><p>Press '1' for A</p></div><div style='float: right;padding-right:30px;'><p>Press '0' for B</p> </div> </div></div>","null","","","","","","","","","","","","","","","",""
"4040","","test","audio-keyboard-response","109","396864","0.0-9.0-1.40","5df4096aa98a7a2dce5bfb69","condF","","resources/audio/wordStim/S9_AU_18_bxa_Step-4.wav","48","","","","","","resources/audio/wordStim/S9_AU_18_bxa_Step-4.wav","S9","18","bxa","4","CN","BL","S9-BL","1","0","false"
"null","","fixation","html-keyboard-response","110","397897","0.0-9.0-0.41","5df4096aa98a7a2dce5bfb69","condF","","<div class=""vertical-center"" style='width:60%;'><p style='font-weight:bold;'>Does the middle word sound more like the first word (A) or the last word (B)?</p> <br> <div class=""container""> <div id=""a-box""> <p class=""title-text"">A</h3></p> </div> <div id=""x-box""> <p class=""title-text"">X<p> </div> <div id=""b-box""> <p class=""title-text"">B</p></div> <br> <div style='float: left;padding-left:30px;'><p>Press '1' for A</p></div><div style='float: right;padding-right:30px;'><p>Press '0' for B</p> </div> </div></div>","null","","","","","","","","","","","","","","","",""
"4491","","test","audio-keyboard-response","111","402387","0.0-9.0-1.41","5df4096aa98a7a2dce5bfb69","condF","","resources/audio/wordStim/S9_AI_29_bxa_Step-4.wav","48","","","","","","resources/audio/wordStim/S9_AI_29_bxa_Step-4.wav","S9","29","bxa","4","CN","BL","S9-BL","1","0","false"
"12089.150000014342","","break","html-keyboard-response","112","414980","0.0-9.0-2.41-0.41","5df4096aa98a7a2dce5bfb69","condF","","<div class=""vertical-center""><p>Feel free to take a break!</p><i>When you're ready to continue, press SPACE to begin the next trial.</i></p></div>","32","","","","","","","","","","","","","","","",""
"null","","fixation","html-keyboard-response","113","415483","0.0-9.0-0.42","5df4096aa98a7a2dce5bfb69","condF","","<div class=""vertical-center"" style='width:60%;'><p style='font-weight:bold;'>Does the middle word sound more like the first word (A) or the last word (B)?</p> <br> <div class=""container""> <div id=""a-box""> <p class=""title-text"">A</h3></p> </div> <div id=""x-box""> <p class=""title-text"">X<p> </div> <div id=""b-box""> <p class=""title-text"">B</p></div> <br> <div style='float: left;padding-left:30px;'><p>Press '1' for A</p></div><div style='float: right;padding-right:30px;'><p>Press '0' for B</p> </div> </div></div>","null","","","","","","","","","","","","","","","",""
"3528","","test","audio-keyboard-response","114","419016","0.0-9.0-1.42","5df4096aa98a7a2dce5bfb69","condF","","resources/audio/wordStim/S9_AU_11_axb_Step-3.wav","49","","","","","","resources/audio/wordStim/S9_AU_11_axb_Step-3.wav","S9","11","axb","3","CN","BL","S9-BL","0","1","false"
"null","","fixation","html-keyboard-response","115","420067","0.0-9.0-0.43","5df4096aa98a7a2dce5bfb69","condF","","<div class=""vertical-center"" style='width:60%;'><p style='font-weight:bold;'>Does the middle word sound more like the first word (A) or the last word (B)?</p> <br> <div class=""container""> <div id=""a-box""> <p class=""title-text"">A</h3></p> </div> <div id=""x-box""> <p class=""title-text"">X<p> </div> <div id=""b-box""> <p class=""title-text"">B</p></div> <br> <div style='float: left;padding-left:30px;'><p>Press '1' for A</p></div><div style='float: right;padding-right:30px;'><p>Press '0' for B</p> </div> </div></div>","null","","","","","","","","","","","","","","","",""
"3899","","test","audio-keyboard-response","116","423970","0.0-9.0-1.43","5df4096aa98a7a2dce5bfb69","condF","","resources/audio/wordStim/S9_AU_11_bxa_Step-5.wav","49","","","","","","resources/audio/wordStim/S9_AU_11_bxa_Step-5.wav","S9","11","bxa","5","CN","BL","S9-BL","1","1","true"
"null","","fixation","html-keyboard-response","117","424984","0.0-9.0-0.44","5df4096aa98a7a2dce5bfb69","condF","","<div class=""vertical-center"" style='width:60%;'><p style='font-weight:bold;'>Does the middle word sound more like the first word (A) or the last word (B)?</p> <br> <div class=""container""> <div id=""a-box""> <p class=""title-text"">A</h3></p> </div> <div id=""x-box""> <p class=""title-text"">X<p> </div> <div id=""b-box""> <p class=""title-text"">B</p></div> <br> <div style='float: left;padding-left:30px;'><p>Press '1' for A</p></div><div style='float: right;padding-right:30px;'><p>Press '0' for B</p> </div> </div></div>","null","","","","","","","","","","","","","","","",""
"4520","","test","audio-keyboard-response","118","429498","0.0-9.0-1.44","5df4096aa98a7a2dce5bfb69","condF","","resources/audio/wordStim/S9_AI_29_axb_Step-2.wav","48","","","","","","resources/audio/wordStim/S9_AI_29_axb_Step-2.wav","S9","29","axb","2","CN","BL","S9-BL","0","0","true"
"null","","fixation","html-keyboard-response","119","430502","0.0-9.0-0.45","5df4096aa98a7a2dce5bfb69","condF","","<div class=""vertical-center"" style='width:60%;'><p style='font-weight:bold;'>Does the middle word sound more like the first word (A) or the last word (B)?</p> <br> <div class=""container""> <div id=""a-box""> <p class=""title-text"">A</h3></p> </div> <div id=""x-box""> <p class=""title-text"">X<p> </div> <div id=""b-box""> <p class=""title-text"">B</p></div> <br> <div style='float: left;padding-left:30px;'><p>Press '1' for A</p></div><div style='float: right;padding-right:30px;'><p>Press '0' for B</p> </div> </div></div>","null","","","","","","","","","","","","","","","",""
"3571","","test","audio-keyboard-response","120","434071","0.0-9.0-1.45","5df4096aa98a7a2dce5bfb69","condF","","resources/audio/wordStim/S9_AU_20_bxa_Step-7.wav","48","","","","","","resources/audio/wordStim/S9_AU_20_bxa_Step-7.wav","S9","20","bxa","7","CN","BL","S9-BL","1","0","false"
"null","","fixation","html-keyboard-response","121","435081","0.0-9.0-0.46","5df4096aa98a7a2dce5bfb69","condF","","<div class=""vertical-center"" style='width:60%;'><p style='font-weight:bold;'>Does the middle word sound more like the first word (A) or the last word (B)?</p> <br> <div class=""container""> <div id=""a-box""> <p class=""title-text"">A</h3></p> </div> <div id=""x-box""> <p class=""title-text"">X<p> </div> <div id=""b-box""> <p class=""title-text"">B</p></div> <br> <div style='float: left;padding-left:30px;'><p>Press '1' for A</p></div><div style='float: right;padding-right:30px;'><p>Press '0' for B</p> </div> </div></div>","null","","","","","","","","","","","","","","","",""
"3219","","test","audio-keyboard-response","122","438301","0.0-9.0-1.46","5df4096aa98a7a2dce5bfb69","condF","","resources/audio/wordStim/S9_AU_20_axb_Step-4.wav","49","","","","","","resources/audio/wordStim/S9_AU_20_axb_Step-4.wav","S9","20","axb","4","CN","BL","S9-BL","0","1","false"
"null","","fixation","html-keyboard-response","123","439305","0.0-9.0-0.47","5df4096aa98a7a2dce5bfb69","condF","","<div class=""vertical-center"" style='width:60%;'><p style='font-weight:bold;'>Does the middle word sound more like the first word (A) or the last word (B)?</p> <br> <div class=""container""> <div id=""a-box""> <p class=""title-text"">A</h3></p> </div> <div id=""x-box""> <p class=""title-text"">X<p> </div> <div id=""b-box""> <p class=""title-text"">B</p></div> <br> <div style='float: left;padding-left:30px;'><p>Press '1' for A</p></div><div style='float: right;padding-right:30px;'><p>Press '0' for B</p> </div> </div></div>","null","","","","","","","","","","","","","","","",""
"3840","","test","audio-keyboard-response","124","443152","0.0-9.0-1.47","5df4096aa98a7a2dce5bfb69","condF","","resources/audio/wordStim/S9_AU_18_axb_Step-8.wav","48","","","","","","resources/audio/wordStim/S9_AU_18_axb_Step-8.wav","S9","18","axb","8","CN","BL","S9-BL","0","0","true"
"null","","fixation","html-keyboard-response","125","444157","0.0-9.0-0.48","5df4096aa98a7a2dce5bfb69","condF","","<div class=""vertical-center"" style='width:60%;'><p style='font-weight:bold;'>Does the middle word sound more like the first word (A) or the last word (B)?</p> <br> <div class=""container""> <div id=""a-box""> <p class=""title-text"">A</h3></p> </div> <div id=""x-box""> <p class=""title-text"">X<p> </div> <div id=""b-box""> <p class=""title-text"">B</p></div> <br> <div style='float: left;padding-left:30px;'><p>Press '1' for A</p></div><div style='float: right;padding-right:30px;'><p>Press '0' for B</p> </div> </div></div>","null","","","","","","","","","","","","","","","",""
"3749","","test","audio-keyboard-response","126","447917","0.0-9.0-1.48","5df4096aa98a7a2dce5bfb69","condF","","resources/audio/wordStim/S9_AU_11_axb_Step-4.wav","49","","","","","","resources/audio/wordStim/S9_AU_11_axb_Step-4.wav","S9","11","axb","4","CN","BL","S9-BL","0","1","false"
"null","","fixation","html-keyboard-response","127","448973","0.0-9.0-0.49","5df4096aa98a7a2dce5bfb69","condF","","<div class=""vertical-center"" style='width:60%;'><p style='font-weight:bold;'>Does the middle word sound more like the first word (A) or the last word (B)?</p> <br> <div class=""container""> <div id=""a-box""> <p class=""title-text"">A</h3></p> </div> <div id=""x-box""> <p class=""title-text"">X<p> </div> <div id=""b-box""> <p class=""title-text"">B</p></div> <br> <div style='float: left;padding-left:30px;'><p>Press '1' for A</p></div><div style='float: right;padding-right:30px;'><p>Press '0' for B</p> </div> </div></div>","null","","","","","","","","","","","","","","","",""
"3880","","test","audio-keyboard-response","128","452851","0.0-9.0-1.49","5df4096aa98a7a2dce5bfb69","condF","","resources/audio/wordStim/S9_AU_11_axb_Step-8.wav","48","","","","","","resources/audio/wordStim/S9_AU_11_axb_Step-8.wav","S9","11","axb","8","CN","BL","S9-BL","0","0","true"
"null","","fixation","html-keyboard-response","129","453857","0.0-9.0-0.50","5df4096aa98a7a2dce5bfb69","condF","","<div class=""vertical-center"" style='width:60%;'><p style='font-weight:bold;'>Does the middle word sound more like the first word (A) or the last word (B)?</p> <br> <div class=""container""> <div id=""a-box""> <p class=""title-text"">A</h3></p> </div> <div id=""x-box""> <p class=""title-text"">X<p> </div> <div id=""b-box""> <p class=""title-text"">B</p></div> <br> <div style='float: left;padding-left:30px;'><p>Press '1' for A</p></div><div style='float: right;padding-right:30px;'><p>Press '0' for B</p> </div> </div></div>","null","","","","","","","","","","","","","","","",""
"5651","","test","audio-keyboard-response","130","459508","0.0-9.0-1.50","5df4096aa98a7a2dce5bfb69","condF","","resources/audio/wordStim/S9_AI_23_bxa_Step-4.wav","49","","","","","","resources/audio/wordStim/S9_AI_23_bxa_Step-4.wav","S9","23","bxa","4","CN","BL","S9-BL","1","1","true"
"null","","fixation","html-keyboard-response","131","460523","0.0-9.0-0.51","5df4096aa98a7a2dce5bfb69","condF","","<div class=""vertical-center"" style='width:60%;'><p style='font-weight:bold;'>Does the middle word sound more like the first word (A) or the last word (B)?</p> <br> <div class=""container""> <div id=""a-box""> <p class=""title-text"">A</h3></p> </div> <div id=""x-box""> <p class=""title-text"">X<p> </div> <div id=""b-box""> <p class=""title-text"">B</p></div> <br> <div style='float: left;padding-left:30px;'><p>Press '1' for A</p></div><div style='float: right;padding-right:30px;'><p>Press '0' for B</p> </div> </div></div>","null","","","","","","","","","","","","","","","",""
"3939","","test","audio-keyboard-response","132","464457","0.0-9.0-1.51","5df4096aa98a7a2dce5bfb69","condF","","resources/audio/wordStim/S9_AI_25_bxa_Step-3.wav","49","","","","","","resources/audio/wordStim/S9_AI_25_bxa_Step-3.wav","S9","25","bxa","3","CN","BL","S9-BL","1","1","true"
"null","","fixation","html-keyboard-response","133","465460","0.0-9.0-0.52","5df4096aa98a7a2dce5bfb69","condF","","<div class=""vertical-center"" style='width:60%;'><p style='font-weight:bold;'>Does the middle word sound more like the first word (A) or the last word (B)?</p> <br> <div class=""container""> <div id=""a-box""> <p class=""title-text"">A</h3></p> </div> <div id=""x-box""> <p class=""title-text"">X<p> </div> <div id=""b-box""> <p class=""title-text"">B</p></div> <br> <div style='float: left;padding-left:30px;'><p>Press '1' for A</p></div><div style='float: right;padding-right:30px;'><p>Press '0' for B</p> </div> </div></div>","null","","","","","","","","","","","","","","","",""
"3480","","test","audio-keyboard-response","134","468938","0.0-9.0-1.52","5df4096aa98a7a2dce5bfb69","condF","","resources/audio/wordStim/S9_AI_25_axb_Step-4.wav","48","","","","","","resources/audio/wordStim/S9_AI_25_axb_Step-4.wav","S9","25","axb","4","CN","BL","S9-BL","0","0","true"
"null","","fixation","html-keyboard-response","135","469987","0.0-9.0-0.53","5df4096aa98a7a2dce5bfb69","condF","","<div class=""vertical-center"" style='width:60%;'><p style='font-weight:bold;'>Does the middle word sound more like the first word (A) or the last word (B)?</p> <br> <div class=""container""> <div id=""a-box""> <p class=""title-text"">A</h3></p> </div> <div id=""x-box""> <p class=""title-text"">X<p> </div> <div id=""b-box""> <p class=""title-text"">B</p></div> <br> <div style='float: left;padding-left:30px;'><p>Press '1' for A</p></div><div style='float: right;padding-right:30px;'><p>Press '0' for B</p> </div> </div></div>","null","","","","","","","","","","","","","","","",""
"3349","","test","audio-keyboard-response","136","473344","0.0-9.0-1.53","5df4096aa98a7a2dce5bfb69","condF","","resources/audio/wordStim/S9_AU_11_axb_Step-2.wav","49","","","","","","resources/audio/wordStim/S9_AU_11_axb_Step-2.wav","S9","11","axb","2","CN","BL","S9-BL","0","1","false"
"null","","fixation","html-keyboard-response","137","474348","0.0-9.0-0.54","5df4096aa98a7a2dce5bfb69","condF","","<div class=""vertical-center"" style='width:60%;'><p style='font-weight:bold;'>Does the middle word sound more like the first word (A) or the last word (B)?</p> <br> <div class=""container""> <div id=""a-box""> <p class=""title-text"">A</h3></p> </div> <div id=""x-box""> <p class=""title-text"">X<p> </div> <div id=""b-box""> <p class=""title-text"">B</p></div> <br> <div style='float: left;padding-left:30px;'><p>Press '1' for A</p></div><div style='float: right;padding-right:30px;'><p>Press '0' for B</p> </div> </div></div>","null","","","","","","","","","","","","","","","",""
"3149","","test","audio-keyboard-response","138","477501","0.0-9.0-1.54","5df4096aa98a7a2dce5bfb69","condF","","resources/audio/wordStim/S9_AI_23_axb_Step-2.wav","49","","","","","","resources/audio/wordStim/S9_AI_23_axb_Step-2.wav","S9","23","axb","2","CN","BL","S9-BL","0","1","false"
"null","","fixation","html-keyboard-response","139","478505","0.0-9.0-0.55","5df4096aa98a7a2dce5bfb69","condF","","<div class=""vertical-center"" style='width:60%;'><p style='font-weight:bold;'>Does the middle word sound more like the first word (A) or the last word (B)?</p> <br> <div class=""container""> <div id=""a-box""> <p class=""title-text"">A</h3></p> </div> <div id=""x-box""> <p class=""title-text"">X<p> </div> <div id=""b-box""> <p class=""title-text"">B</p></div> <br> <div style='float: left;padding-left:30px;'><p>Press '1' for A</p></div><div style='float: right;padding-right:30px;'><p>Press '0' for B</p> </div> </div></div>","null","","","","","","","","","","","","","","","",""
"3251","","test","audio-keyboard-response","140","481764","0.0-9.0-1.55","5df4096aa98a7a2dce5bfb69","condF","","resources/audio/wordStim/S9_AI_23_bxa_Step-2.wav","49","","","","","","resources/audio/wordStim/S9_AI_23_bxa_Step-2.wav","S9","23","bxa","2","CN","BL","S9-BL","1","1","true"
"null","","fixation","html-keyboard-response","141","482769","0.0-9.0-0.56","5df4096aa98a7a2dce5bfb69","condF","","<div class=""vertical-center"" style='width:60%;'><p style='font-weight:bold;'>Does the middle word sound more like the first word (A) or the last word (B)?</p> <br> <div class=""container""> <div id=""a-box""> <p class=""title-text"">A</h3></p> </div> <div id=""x-box""> <p class=""title-text"">X<p> </div> <div id=""b-box""> <p class=""title-text"">B</p></div> <br> <div style='float: left;padding-left:30px;'><p>Press '1' for A</p></div><div style='float: right;padding-right:30px;'><p>Press '0' for B</p> </div> </div></div>","null","","","","","","","","","","","","","","","",""
"3720","","test","audio-keyboard-response","142","486489","0.0-9.0-1.56","5df4096aa98a7a2dce5bfb69","condF","","resources/audio/wordStim/S9_AI_23_bxa_Step-5.wav","48","","","","","","resources/audio/wordStim/S9_AI_23_bxa_Step-5.wav","S9","23","bxa","5","CN","BL","S9-BL","1","0","false"
"null","","fixation","html-keyboard-response","143","487494","0.0-9.0-0.57","5df4096aa98a7a2dce5bfb69","condF","","<div class=""vertical-center"" style='width:60%;'><p style='font-weight:bold;'>Does the middle word sound more like the first word (A) or the last word (B)?</p> <br> <div class=""container""> <div id=""a-box""> <p class=""title-text"">A</h3></p> </div> <div id=""x-box""> <p class=""title-text"">X<p> </div> <div id=""b-box""> <p class=""title-text"">B</p></div> <br> <div style='float: left;padding-left:30px;'><p>Press '1' for A</p></div><div style='float: right;padding-right:30px;'><p>Press '0' for B</p> </div> </div></div>","null","","","","","","","","","","","","","","","",""
"3880","","test","audio-keyboard-response","144","491383","0.0-9.0-1.57","5df4096aa98a7a2dce5bfb69","condF","","resources/audio/wordStim/S9_AU_18_bxa_Step-2.wav","48","","","","","","resources/audio/wordStim/S9_AU_18_bxa_Step-2.wav","S9","18","bxa","2","CN","BL","S9-BL","1","0","false"
"null","","fixation","html-keyboard-response","145","492390","0.0-9.0-0.58","5df4096aa98a7a2dce5bfb69","condF","","<div class=""vertical-center"" style='width:60%;'><p style='font-weight:bold;'>Does the middle word sound more like the first word (A) or the last word (B)?</p> <br> <div class=""container""> <div id=""a-box""> <p class=""title-text"">A</h3></p> </div> <div id=""x-box""> <p class=""title-text"">X<p> </div> <div id=""b-box""> <p class=""title-text"">B</p></div> <br> <div style='float: left;padding-left:30px;'><p>Press '1' for A</p></div><div style='float: right;padding-right:30px;'><p>Press '0' for B</p> </div> </div></div>","null","","","","","","","","","","","","","","","",""
"3531","","test","audio-keyboard-response","146","495918","0.0-9.0-1.58","5df4096aa98a7a2dce5bfb69","condF","","resources/audio/wordStim/S9_AU_11_bxa_Step-4.wav","48","","","","","","resources/audio/wordStim/S9_AU_11_bxa_Step-4.wav","S9","11","bxa","4","CN","BL","S9-BL","1","0","false"
"null","","fixation","html-keyboard-response","147","496923","0.0-9.0-0.59","5df4096aa98a7a2dce5bfb69","condF","","<div class=""vertical-center"" style='width:60%;'><p style='font-weight:bold;'>Does the middle word sound more like the first word (A) or the last word (B)?</p> <br> <div class=""container""> <div id=""a-box""> <p class=""title-text"">A</h3></p> </div> <div id=""x-box""> <p class=""title-text"">X<p> </div> <div id=""b-box""> <p class=""title-text"">B</p></div> <br> <div style='float: left;padding-left:30px;'><p>Press '1' for A</p></div><div style='float: right;padding-right:30px;'><p>Press '0' for B</p> </div> </div></div>","null","","","","","","","","","","","","","","","",""
"3840","","test","audio-keyboard-response","148","500763","0.0-9.0-1.59","5df4096aa98a7a2dce5bfb69","condF","","resources/audio/wordStim/S9_AU_18_bxa_Step-5.wav","48","","","","","","resources/audio/wordStim/S9_AU_18_bxa_Step-5.wav","S9","18","bxa","5","CN","BL","S9-BL","1","0","false"
"null","","fixation","html-keyboard-response","149","501784","0.0-9.0-0.60","5df4096aa98a7a2dce5bfb69","condF","","<div class=""vertical-center"" style='width:60%;'><p style='font-weight:bold;'>Does the middle word sound more like the first word (A) or the last word (B)?</p> <br> <div class=""container""> <div id=""a-box""> <p class=""title-text"">A</h3></p> </div> <div id=""x-box""> <p class=""title-text"">X<p> </div> <div id=""b-box""> <p class=""title-text"">B</p></div> <br> <div style='float: left;padding-left:30px;'><p>Press '1' for A</p></div><div style='float: right;padding-right:30px;'><p>Press '0' for B</p> </div> </div></div>","null","","","","","","","","","","","","","","","",""
"3029","","test","audio-keyboard-response","150","504814","0.0-9.0-1.60","5df4096aa98a7a2dce5bfb69","condF","","resources/audio/wordStim/S9_AI_25_axb_Step-2.wav","49","","","","","","resources/audio/wordStim/S9_AI_25_axb_Step-2.wav","S9","25","axb","2","CN","BL","S9-BL","0","1","false"
"null","","fixation","html-keyboard-response","151","505862","0.0-9.0-0.61","5df4096aa98a7a2dce5bfb69","condF","","<div class=""vertical-center"" style='width:60%;'><p style='font-weight:bold;'>Does the middle word sound more like the first word (A) or the last word (B)?</p> <br> <div class=""container""> <div id=""a-box""> <p class=""title-text"">A</h3></p> </div> <div id=""x-box""> <p class=""title-text"">X<p> </div> <div id=""b-box""> <p class=""title-text"">B</p></div> <br> <div style='float: left;padding-left:30px;'><p>Press '1' for A</p></div><div style='float: right;padding-right:30px;'><p>Press '0' for B</p> </div> </div></div>","null","","","","","","","","","","","","","","","",""
"3280","","test","audio-keyboard-response","152","509137","0.0-9.0-1.61","5df4096aa98a7a2dce5bfb69","condF","","resources/audio/wordStim/S9_AI_23_bxa_Step-7.wav","48","","","","","","resources/audio/wordStim/S9_AI_23_bxa_Step-7.wav","S9","23","bxa","7","CN","BL","S9-BL","1","0","false"
"null","","fixation","html-keyboard-response","153","510153","0.0-9.0-0.62","5df4096aa98a7a2dce5bfb69","condF","","<div class=""vertical-center"" style='width:60%;'><p style='font-weight:bold;'>Does the middle word sound more like the first word (A) or the last word (B)?</p> <br> <div class=""container""> <div id=""a-box""> <p class=""title-text"">A</h3></p> </div> <div id=""x-box""> <p class=""title-text"">X<p> </div> <div id=""b-box""> <p class=""title-text"">B</p></div> <br> <div style='float: left;padding-left:30px;'><p>Press '1' for A</p></div><div style='float: right;padding-right:30px;'><p>Press '0' for B</p> </div> </div></div>","null","","","","","","","","","","","","","","","",""
"3739","","test","audio-keyboard-response","154","513902","0.0-9.0-1.62","5df4096aa98a7a2dce5bfb69","condF","","resources/audio/wordStim/S9_AU_11_axb_Step-5.wav","49","","","","","","resources/audio/wordStim/S9_AU_11_axb_Step-5.wav","S9","11","axb","5","CN","BL","S9-BL","0","1","false"
"8743.365000002086","","break","html-keyboard-response","155","523147","0.0-9.0-2.62-0.62","5df4096aa98a7a2dce5bfb69","condF","","<div class=""vertical-center""><p>Feel free to take a break!</p><i>When you're ready to continue, press SPACE to begin the next trial.</i></p></div>","32","","","","","","","","","","","","","","","",""
"null","","fixation","html-keyboard-response","156","523651","0.0-9.0-0.63","5df4096aa98a7a2dce5bfb69","condF","","<div class=""vertical-center"" style='width:60%;'><p style='font-weight:bold;'>Does the middle word sound more like the first word (A) or the last word (B)?</p> <br> <div class=""container""> <div id=""a-box""> <p class=""title-text"">A</h3></p> </div> <div id=""x-box""> <p class=""title-text"">X<p> </div> <div id=""b-box""> <p class=""title-text"">B</p></div> <br> <div style='float: left;padding-left:30px;'><p>Press '1' for A</p></div><div style='float: right;padding-right:30px;'><p>Press '0' for B</p> </div> </div></div>","null","","","","","","","","","","","","","","","",""
"2891","","test","audio-keyboard-response","157","526546","0.0-9.0-1.63","5df4096aa98a7a2dce5bfb69","condF","","resources/audio/wordStim/S9_AU_20_axb_Step-3.wav","49","","","","","","resources/audio/wordStim/S9_AU_20_axb_Step-3.wav","S9","20","axb","3","CN","BL","S9-BL","0","1","false"
"null","","fixation","html-keyboard-response","158","527548","0.0-9.0-0.64","5df4096aa98a7a2dce5bfb69","condF","","<div class=""vertical-center"" style='width:60%;'><p style='font-weight:bold;'>Does the middle word sound more like the first word (A) or the last word (B)?</p> <br> <div class=""container""> <div id=""a-box""> <p class=""title-text"">A</h3></p> </div> <div id=""x-box""> <p class=""title-text"">X<p> </div> <div id=""b-box""> <p class=""title-text"">B</p></div> <br> <div style='float: left;padding-left:30px;'><p>Press '1' for A</p></div><div style='float: right;padding-right:30px;'><p>Press '0' for B</p> </div> </div></div>","null","","","","","","","","","","","","","","","",""
"4331","","test","audio-keyboard-response","159","531881","0.0-9.0-1.64","5df4096aa98a7a2dce5bfb69","condF","","resources/audio/wordStim/S9_AU_11_axb_Step-6.wav","48","","","","","","resources/audio/wordStim/S9_AU_11_axb_Step-6.wav","S9","11","axb","6","CN","BL","S9-BL","0","0","true"
"null","","fixation","html-keyboard-response","160","532911","0.0-9.0-0.65","5df4096aa98a7a2dce5bfb69","condF","","<div class=""vertical-center"" style='width:60%;'><p style='font-weight:bold;'>Does the middle word sound more like the first word (A) or the last word (B)?</p> <br> <div class=""container""> <div id=""a-box""> <p class=""title-text"">A</h3></p> </div> <div id=""x-box""> <p class=""title-text"">X<p> </div> <div id=""b-box""> <p class=""title-text"">B</p></div> <br> <div style='float: left;padding-left:30px;'><p>Press '1' for A</p></div><div style='float: right;padding-right:30px;'><p>Press '0' for B</p> </div> </div></div>","null","","","","","","","","","","","","","","","",""
"3829","","test","audio-keyboard-response","161","536746","0.0-9.0-1.65","5df4096aa98a7a2dce5bfb69","condF","","resources/audio/wordStim/S9_AI_25_bxa_Step-2.wav","48","","","","","","resources/audio/wordStim/S9_AI_25_bxa_Step-2.wav","S9","25","bxa","2","CN","BL","S9-BL","1","0","false"
"null","","fixation","html-keyboard-response","162","537753","0.0-9.0-0.66","5df4096aa98a7a2dce5bfb69","condF","","<div class=""vertical-center"" style='width:60%;'><p style='font-weight:bold;'>Does the middle word sound more like the first word (A) or the last word (B)?</p> <br> <div class=""container""> <div id=""a-box""> <p class=""title-text"">A</h3></p> </div> <div id=""x-box""> <p class=""title-text"">X<p> </div> <div id=""b-box""> <p class=""title-text"">B</p></div> <br> <div style='float: left;padding-left:30px;'><p>Press '1' for A</p></div><div style='float: right;padding-right:30px;'><p>Press '0' for B</p> </div> </div></div>","null","","","","","","","","","","","","","","","",""
"4160","","test","audio-keyboard-response","163","541908","0.0-9.0-1.66","5df4096aa98a7a2dce5bfb69","condF","","resources/audio/wordStim/S9_AU_18_axb_Step-3.wav","48","","","","","","resources/audio/wordStim/S9_AU_18_axb_Step-3.wav","S9","18","axb","3","CN","BL","S9-BL","0","0","true"
"null","","fixation","html-keyboard-response","164","542914","0.0-9.0-0.67","5df4096aa98a7a2dce5bfb69","condF","","<div class=""vertical-center"" style='width:60%;'><p style='font-weight:bold;'>Does the middle word sound more like the first word (A) or the last word (B)?</p> <br> <div class=""container""> <div id=""a-box""> <p class=""title-text"">A</h3></p> </div> <div id=""x-box""> <p class=""title-text"">X<p> </div> <div id=""b-box""> <p class=""title-text"">B</p></div> <br> <div style='float: left;padding-left:30px;'><p>Press '1' for A</p></div><div style='float: right;padding-right:30px;'><p>Press '0' for B</p> </div> </div></div>","null","","","","","","","","","","","","","","","",""
"3589","","test","audio-keyboard-response","165","546509","0.0-9.0-1.67","5df4096aa98a7a2dce5bfb69","condF","","resources/audio/wordStim/S9_AU_20_bxa_Step-2.wav","49","","","","","","resources/audio/wordStim/S9_AU_20_bxa_Step-2.wav","S9","20","bxa","2","CN","BL","S9-BL","1","1","true"
"null","","fixation","html-keyboard-response","166","547514","0.0-9.0-0.68","5df4096aa98a7a2dce5bfb69","condF","","<div class=""vertical-center"" style='width:60%;'><p style='font-weight:bold;'>Does the middle word sound more like the first word (A) or the last word (B)?</p> <br> <div class=""container""> <div id=""a-box""> <p class=""title-text"">A</h3></p> </div> <div id=""x-box""> <p class=""title-text"">X<p> </div> <div id=""b-box""> <p class=""title-text"">B</p></div> <br> <div style='float: left;padding-left:30px;'><p>Press '1' for A</p></div><div style='float: right;padding-right:30px;'><p>Press '0' for B</p> </div> </div></div>","null","","","","","","","","","","","","","","","",""
"4048","","test","audio-keyboard-response","167","551574","0.0-9.0-1.68","5df4096aa98a7a2dce5bfb69","condF","","resources/audio/wordStim/S9_AI_29_bxa_Step-2.wav","49","","","","","","resources/audio/wordStim/S9_AI_29_bxa_Step-2.wav","S9","29","bxa","2","CN","BL","S9-BL","1","1","true"
"null","","fixation","html-keyboard-response","168","552579","0.0-9.0-0.69","5df4096aa98a7a2dce5bfb69","condF","","<div class=""vertical-center"" style='width:60%;'><p style='font-weight:bold;'>Does the middle word sound more like the first word (A) or the last word (B)?</p> <br> <div class=""container""> <div id=""a-box""> <p class=""title-text"">A</h3></p> </div> <div id=""x-box""> <p class=""title-text"">X<p> </div> <div id=""b-box""> <p class=""title-text"">B</p></div> <br> <div style='float: left;padding-left:30px;'><p>Press '1' for A</p></div><div style='float: right;padding-right:30px;'><p>Press '0' for B</p> </div> </div></div>","null","","","","","","","","","","","","","","","",""
"4000","","test","audio-keyboard-response","169","556578","0.0-9.0-1.69","5df4096aa98a7a2dce5bfb69","condF","","resources/audio/wordStim/S9_AU_18_axb_Step-5.wav","48","","","","","","resources/audio/wordStim/S9_AU_18_axb_Step-5.wav","S9","18","axb","5","CN","BL","S9-BL","0","0","true"
"null","","fixation","html-keyboard-response","170","557583","0.0-9.0-0.70","5df4096aa98a7a2dce5bfb69","condF","","<div class=""vertical-center"" style='width:60%;'><p style='font-weight:bold;'>Does the middle word sound more like the first word (A) or the last word (B)?</p> <br> <div class=""container""> <div id=""a-box""> <p class=""title-text"">A</h3></p> </div> <div id=""x-box""> <p class=""title-text"">X<p> </div> <div id=""b-box""> <p class=""title-text"">B</p></div> <br> <div style='float: left;padding-left:30px;'><p>Press '1' for A</p></div><div style='float: right;padding-right:30px;'><p>Press '0' for B</p> </div> </div></div>","null","","","","","","","","","","","","","","","",""
"3000","","test","audio-keyboard-response","171","560577","0.0-9.0-1.70","5df4096aa98a7a2dce5bfb69","condF","","resources/audio/wordStim/S9_AU_20_axb_Step-8.wav","48","","","","","","resources/audio/wordStim/S9_AU_20_axb_Step-8.wav","S9","20","axb","8","CN","BL","S9-BL","0","0","true"
"null","","fixation","html-keyboard-response","172","561581","0.0-9.0-0.71","5df4096aa98a7a2dce5bfb69","condF","","<div class=""vertical-center"" style='width:60%;'><p style='font-weight:bold;'>Does the middle word sound more like the first word (A) or the last word (B)?</p> <br> <div class=""container""> <div id=""a-box""> <p class=""title-text"">A</h3></p> </div> <div id=""x-box""> <p class=""title-text"">X<p> </div> <div id=""b-box""> <p class=""title-text"">B</p></div> <br> <div style='float: left;padding-left:30px;'><p>Press '1' for A</p></div><div style='float: right;padding-right:30px;'><p>Press '0' for B</p> </div> </div></div>","null","","","","","","","","","","","","","","","",""
"3280","","test","audio-keyboard-response","173","564861","0.0-9.0-1.71","5df4096aa98a7a2dce5bfb69","condF","","resources/audio/wordStim/S9_AI_23_axb_Step-6.wav","49","","","","","","resources/audio/wordStim/S9_AI_23_axb_Step-6.wav","S9","23","axb","6","CN","BL","S9-BL","0","1","false"
"null","","fixation","html-keyboard-response","174","565867","0.0-9.0-0.72","5df4096aa98a7a2dce5bfb69","condF","","<div class=""vertical-center"" style='width:60%;'><p style='font-weight:bold;'>Does the middle word sound more like the first word (A) or the last word (B)?</p> <br> <div class=""container""> <div id=""a-box""> <p class=""title-text"">A</h3></p> </div> <div id=""x-box""> <p class=""title-text"">X<p> </div> <div id=""b-box""> <p class=""title-text"">B</p></div> <br> <div style='float: left;padding-left:30px;'><p>Press '1' for A</p></div><div style='float: right;padding-right:30px;'><p>Press '0' for B</p> </div> </div></div>","null","","","","","","","","","","","","","","","",""
"3419","","test","audio-keyboard-response","175","569287","0.0-9.0-1.72","5df4096aa98a7a2dce5bfb69","condF","","resources/audio/wordStim/S9_AI_23_axb_Step-7.wav","49","","","","","","resources/audio/wordStim/S9_AI_23_axb_Step-7.wav","S9","23","axb","7","CN","BL","S9-BL","0","1","false"
"null","","fixation","html-keyboard-response","176","570297","0.0-9.0-0.73","5df4096aa98a7a2dce5bfb69","condF","","<div class=""vertical-center"" style='width:60%;'><p style='font-weight:bold;'>Does the middle word sound more like the first word (A) or the last word (B)?</p> <br> <div class=""container""> <div id=""a-box""> <p class=""title-text"">A</h3></p> </div> <div id=""x-box""> <p class=""title-text"">X<p> </div> <div id=""b-box""> <p class=""title-text"">B</p></div> <br> <div style='float: left;padding-left:30px;'><p>Press '1' for A</p></div><div style='float: right;padding-right:30px;'><p>Press '0' for B</p> </div> </div></div>","null","","","","","","","","","","","","","","","",""
"3091","","test","audio-keyboard-response","177","573388","0.0-9.0-1.73","5df4096aa98a7a2dce5bfb69","condF","","resources/audio/wordStim/S9_AI_25_axb_Step-8.wav","48","","","","","","resources/audio/wordStim/S9_AI_25_axb_Step-8.wav","S9","25","axb","8","CN","BL","S9-BL","0","0","true"
"null","","fixation","html-keyboard-response","178","574392","0.0-9.0-0.74","5df4096aa98a7a2dce5bfb69","condF","","<div class=""vertical-center"" style='width:60%;'><p style='font-weight:bold;'>Does the middle word sound more like the first word (A) or the last word (B)?</p> <br> <div class=""container""> <div id=""a-box""> <p class=""title-text"">A</h3></p> </div> <div id=""x-box""> <p class=""title-text"">X<p> </div> <div id=""b-box""> <p class=""title-text"">B</p></div> <br> <div style='float: left;padding-left:30px;'><p>Press '1' for A</p></div><div style='float: right;padding-right:30px;'><p>Press '0' for B</p> </div> </div></div>","null","","","","","","","","","","","","","","","",""
"3229","","test","audio-keyboard-response","179","577620","0.0-9.0-1.74","5df4096aa98a7a2dce5bfb69","condF","","resources/audio/wordStim/S9_AU_20_bxa_Step-3.wav","49","","","","","","resources/audio/wordStim/S9_AU_20_bxa_Step-3.wav","S9","20","bxa","3","CN","BL","S9-BL","1","1","true"
"null","","fixation","html-keyboard-response","180","578641","0.0-9.0-0.75","5df4096aa98a7a2dce5bfb69","condF","","<div class=""vertical-center"" style='width:60%;'><p style='font-weight:bold;'>Does the middle word sound more like the first word (A) or the last word (B)?</p> <br> <div class=""container""> <div id=""a-box""> <p class=""title-text"">A</h3></p> </div> <div id=""x-box""> <p class=""title-text"">X<p> </div> <div id=""b-box""> <p class=""title-text"">B</p></div> <br> <div style='float: left;padding-left:30px;'><p>Press '1' for A</p></div><div style='float: right;padding-right:30px;'><p>Press '0' for B</p> </div> </div></div>","null","","","","","","","","","","","","","","","",""
"3968","","test","audio-keyboard-response","181","582617","0.0-9.0-1.75","5df4096aa98a7a2dce5bfb69","condF","","resources/audio/wordStim/S9_AU_11_bxa_Step-8.wav","49","","","","","","resources/audio/wordStim/S9_AU_11_bxa_Step-8.wav","S9","11","bxa","8","CN","BL","S9-BL","1","1","true"
"null","","fixation","html-keyboard-response","182","583621","0.0-9.0-0.76","5df4096aa98a7a2dce5bfb69","condF","","<div class=""vertical-center"" style='width:60%;'><p style='font-weight:bold;'>Does the middle word sound more like the first word (A) or the last word (B)?</p> <br> <div class=""container""> <div id=""a-box""> <p class=""title-text"">A</h3></p> </div> <div id=""x-box""> <p class=""title-text"">X<p> </div> <div id=""b-box""> <p class=""title-text"">B</p></div> <br> <div style='float: left;padding-left:30px;'><p>Press '1' for A</p></div><div style='float: right;padding-right:30px;'><p>Press '0' for B</p> </div> </div></div>","null","","","","","","","","","","","","","","","",""
"4549","","test","audio-keyboard-response","183","588173","0.0-9.0-1.76","5df4096aa98a7a2dce5bfb69","condF","","resources/audio/wordStim/S9_AU_11_bxa_Step-6.wav","49","","","","","","resources/audio/wordStim/S9_AU_11_bxa_Step-6.wav","S9","11","bxa","6","CN","BL","S9-BL","1","1","true"
"null","","fixation","html-keyboard-response","184","589204","0.0-9.0-0.77","5df4096aa98a7a2dce5bfb69","condF","","<div class=""vertical-center"" style='width:60%;'><p style='font-weight:bold;'>Does the middle word sound more like the first word (A) or the last word (B)?</p> <br> <div class=""container""> <div id=""a-box""> <p class=""title-text"">A</h3></p> </div> <div id=""x-box""> <p class=""title-text"">X<p> </div> <div id=""b-box""> <p class=""title-text"">B</p></div> <br> <div style='float: left;padding-left:30px;'><p>Press '1' for A</p></div><div style='float: right;padding-right:30px;'><p>Press '0' for B</p> </div> </div></div>","null","","","","","","","","","","","","","","","",""
"3579","","test","audio-keyboard-response","185","592784","0.0-9.0-1.77","5df4096aa98a7a2dce5bfb69","condF","","resources/audio/wordStim/S9_AU_18_axb_Step-7.wav","48","","","","","","resources/audio/wordStim/S9_AU_18_axb_Step-7.wav","S9","18","axb","7","CN","BL","S9-BL","0","0","true"
"null","","fixation","html-keyboard-response","186","593788","0.0-9.0-0.78","5df4096aa98a7a2dce5bfb69","condF","","<div class=""vertical-center"" style='width:60%;'><p style='font-weight:bold;'>Does the middle word sound more like the first word (A) or the last word (B)?</p> <br> <div class=""container""> <div id=""a-box""> <p class=""title-text"">A</h3></p> </div> <div id=""x-box""> <p class=""title-text"">X<p> </div> <div id=""b-box""> <p class=""title-text"">B</p></div> <br> <div style='float: left;padding-left:30px;'><p>Press '1' for A</p></div><div style='float: right;padding-right:30px;'><p>Press '0' for B</p> </div> </div></div>","null","","","","","","","","","","","","","","","",""
"3611","","test","audio-keyboard-response","187","597399","0.0-9.0-1.78","5df4096aa98a7a2dce5bfb69","condF","","resources/audio/wordStim/S9_AI_29_bxa_Step-6.wav","49","","","","","","resources/audio/wordStim/S9_AI_29_bxa_Step-6.wav","S9","29","bxa","6","CN","BL","S9-BL","1","1","true"
"null","","fixation","html-keyboard-response","188","598403","0.0-9.0-0.79","5df4096aa98a7a2dce5bfb69","condF","","<div class=""vertical-center"" style='width:60%;'><p style='font-weight:bold;'>Does the middle word sound more like the first word (A) or the last word (B)?</p> <br> <div class=""container""> <div id=""a-box""> <p class=""title-text"">A</h3></p> </div> <div id=""x-box""> <p class=""title-text"">X<p> </div> <div id=""b-box""> <p class=""title-text"">B</p></div> <br> <div style='float: left;padding-left:30px;'><p>Press '1' for A</p></div><div style='float: right;padding-right:30px;'><p>Press '0' for B</p> </div> </div></div>","null","","","","","","","","","","","","","","","",""
"3099","","test","audio-keyboard-response","189","601502","0.0-9.0-1.79","5df4096aa98a7a2dce5bfb69","condF","","resources/audio/wordStim/S9_AU_20_bxa_Step-8.wav","49","","","","","","resources/audio/wordStim/S9_AU_20_bxa_Step-8.wav","S9","20","bxa","8","CN","BL","S9-BL","1","1","true"
"null","","fixation","html-keyboard-response","190","602514","0.0-9.0-0.80","5df4096aa98a7a2dce5bfb69","condF","","<div class=""vertical-center"" style='width:60%;'><p style='font-weight:bold;'>Does the middle word sound more like the first word (A) or the last word (B)?</p> <br> <div class=""container""> <div id=""a-box""> <p class=""title-text"">A</h3></p> </div> <div id=""x-box""> <p class=""title-text"">X<p> </div> <div id=""b-box""> <p class=""title-text"">B</p></div> <br> <div style='float: left;padding-left:30px;'><p>Press '1' for A</p></div><div style='float: right;padding-right:30px;'><p>Press '0' for B</p> </div> </div></div>","null","","","","","","","","","","","","","","","",""
"5021","","test","audio-keyboard-response","191","607551","0.0-9.0-1.80","5df4096aa98a7a2dce5bfb69","condF","","resources/audio/wordStim/S9_AI_29_bxa_Step-8.wav","49","","","","","","resources/audio/wordStim/S9_AI_29_bxa_Step-8.wav","S9","29","bxa","8","CN","BL","S9-BL","1","1","true"
"null","","fixation","html-keyboard-response","192","608561","0.0-9.0-0.81","5df4096aa98a7a2dce5bfb69","condF","","<div class=""vertical-center"" style='width:60%;'><p style='font-weight:bold;'>Does the middle word sound more like the first word (A) or the last word (B)?</p> <br> <div class=""container""> <div id=""a-box""> <p class=""title-text"">A</h3></p> </div> <div id=""x-box""> <p class=""title-text"">X<p> </div> <div id=""b-box""> <p class=""title-text"">B</p></div> <br> <div style='float: left;padding-left:30px;'><p>Press '1' for A</p></div><div style='float: right;padding-right:30px;'><p>Press '0' for B</p> </div> </div></div>","null","","","","","","","","","","","","","","","",""
"2939","","test","audio-keyboard-response","193","611506","0.0-9.0-1.81","5df4096aa98a7a2dce5bfb69","condF","","resources/audio/wordStim/S9_AI_25_bxa_Step-7.wav","48","","","","","","resources/audio/wordStim/S9_AI_25_bxa_Step-7.wav","S9","25","bxa","7","CN","BL","S9-BL","1","0","false"
"null","","fixation","html-keyboard-response","194","612510","0.0-9.0-0.82","5df4096aa98a7a2dce5bfb69","condF","","<div class=""vertical-center"" style='width:60%;'><p style='font-weight:bold;'>Does the middle word sound more like the first word (A) or the last word (B)?</p> <br> <div class=""container""> <div id=""a-box""> <p class=""title-text"">A</h3></p> </div> <div id=""x-box""> <p class=""title-text"">X<p> </div> <div id=""b-box""> <p class=""title-text"">B</p></div> <br> <div style='float: left;padding-left:30px;'><p>Press '1' for A</p></div><div style='float: right;padding-right:30px;'><p>Press '0' for B</p> </div> </div></div>","null","","","","","","","","","","","","","","","",""
"3139","","test","audio-keyboard-response","195","615652","0.0-9.0-1.82","5df4096aa98a7a2dce5bfb69","condF","","resources/audio/wordStim/S9_AI_25_bxa_Step-5.wav","49","","","","","","resources/audio/wordStim/S9_AI_25_bxa_Step-5.wav","S9","25","bxa","5","CN","BL","S9-BL","1","1","true"
"null","","fixation","html-keyboard-response","196","616657","0.0-9.0-0.83","5df4096aa98a7a2dce5bfb69","condF","","<div class=""vertical-center"" style='width:60%;'><p style='font-weight:bold;'>Does the middle word sound more like the first word (A) or the last word (B)?</p> <br> <div class=""container""> <div id=""a-box""> <p class=""title-text"">A</h3></p> </div> <div id=""x-box""> <p class=""title-text"">X<p> </div> <div id=""b-box""> <p class=""title-text"">B</p></div> <br> <div style='float: left;padding-left:30px;'><p>Press '1' for A</p></div><div style='float: right;padding-right:30px;'><p>Press '0' for B</p> </div> </div></div>","null","","","","","","","","","","","","","","","",""
"3520","","test","audio-keyboard-response","197","620177","0.0-9.0-1.83","5df4096aa98a7a2dce5bfb69","condF","","resources/audio/wordStim/S9_AI_29_bxa_Step-7.wav","49","","","","","","resources/audio/wordStim/S9_AI_29_bxa_Step-7.wav","S9","29","bxa","7","CN","BL","S9-BL","1","1","true"
"2242.4850000534207","","break","html-keyboard-response","198","622923","0.0-9.0-2.83-0.83","5df4096aa98a7a2dce5bfb69","condF","","<div class=""vertical-center""><p>Feel free to take a break!</p><i>When you're ready to continue, press SPACE to begin the next trial.</i></p></div>","32","","","","","","","","","","","","","","","",""
"2356.1699999845587","","","html-keyboard-response","199","625281","0.0-10.0","5df4096aa98a7a2dce5bfb69","condF","","<div class=""vertical-center""><img src=""resources/images/BL_face_a.png"" style=""width:450px;height:300px;""><p>This is the speaker you're about to hear.</p><p> <br> <i>Press SPACE to continue.</i></p></div>","32","","","","","","","","","","","","","","","",""
"null","","fixation","html-keyboard-response","200","625783","0.0-11.0-0.0","5df4096aa98a7a2dce5bfb69","condF","","<div class=""vertical-center"" style='width:60%;'><p style='font-weight:bold;'>Does the middle word sound more like the first word (A) or the last word (B)?</p> <br> <div class=""container""> <div id=""a-box""> <p class=""title-text"">A</h3></p> </div> <div id=""x-box""> <p class=""title-text"">X<p> </div> <div id=""b-box""> <p class=""title-text"">B</p></div> <br> <div style='float: left;padding-left:30px;'><p>Press '1' for A</p></div><div style='float: right;padding-right:30px;'><p>Press '0' for B</p> </div> </div></div>","null","","","","","","","","","","","","","","","",""
"4709","","test","audio-keyboard-response","201","630502","0.0-11.0-1.0","5df4096aa98a7a2dce5bfb69","condF","","resources/audio/wordStim/S3_AI_30_axb_Step-5.wav","49","","","","","","resources/audio/wordStim/S3_AI_30_axb_Step-5.wav","S3","30","axb","5","MI","BL","S3-BL","0","1","false"
"null","","fixation","html-keyboard-response","202","631506","0.0-11.0-0.1","5df4096aa98a7a2dce5bfb69","condF","","<div class=""vertical-center"" style='width:60%;'><p style='font-weight:bold;'>Does the middle word sound more like the first word (A) or the last word (B)?</p> <br> <div class=""container""> <div id=""a-box""> <p class=""title-text"">A</h3></p> </div> <div id=""x-box""> <p class=""title-text"">X<p> </div> <div id=""b-box""> <p class=""title-text"">B</p></div> <br> <div style='float: left;padding-left:30px;'><p>Press '1' for A</p></div><div style='float: right;padding-right:30px;'><p>Press '0' for B</p> </div> </div></div>","null","","","","","","","","","","","","","","","",""
"3619","","test","audio-keyboard-response","203","635131","0.0-11.0-1.1","5df4096aa98a7a2dce5bfb69","condF","","resources/audio/wordStim/S3_AU_20_axb_Step-6.wav","49","","","","","","resources/audio/wordStim/S3_AU_20_axb_Step-6.wav","S3","20","axb","6","MI","BL","S3-BL","0","1","false"
"null","","fixation","html-keyboard-response","204","636151","0.0-11.0-0.2","5df4096aa98a7a2dce5bfb69","condF","","<div class=""vertical-center"" style='width:60%;'><p style='font-weight:bold;'>Does the middle word sound more like the first word (A) or the last word (B)?</p> <br> <div class=""container""> <div id=""a-box""> <p class=""title-text"">A</h3></p> </div> <div id=""x-box""> <p class=""title-text"">X<p> </div> <div id=""b-box""> <p class=""title-text"">B</p></div> <br> <div style='float: left;padding-left:30px;'><p>Press '1' for A</p></div><div style='float: right;padding-right:30px;'><p>Press '0' for B</p> </div> </div></div>","null","","","","","","","","","","","","","","","",""
"4331","","test","audio-keyboard-response","205","640486","0.0-11.0-1.2","5df4096aa98a7a2dce5bfb69","condF","","resources/audio/wordStim/S3_AU_18_bxa_Step-8.wav","49","","","","","","resources/audio/wordStim/S3_AU_18_bxa_Step-8.wav","S3","18","bxa","8","MI","BL","S3-BL","1","1","true"
"null","","fixation","html-keyboard-response","206","641489","0.0-11.0-0.3","5df4096aa98a7a2dce5bfb69","condF","","<div class=""vertical-center"" style='width:60%;'><p style='font-weight:bold;'>Does the middle word sound more like the first word (A) or the last word (B)?</p> <br> <div class=""container""> <div id=""a-box""> <p class=""title-text"">A</h3></p> </div> <div id=""x-box""> <p class=""title-text"">X<p> </div> <div id=""b-box""> <p class=""title-text"">B</p></div> <br> <div style='float: left;padding-left:30px;'><p>Press '1' for A</p></div><div style='float: right;padding-right:30px;'><p>Press '0' for B</p> </div> </div></div>","null","","","","","","","","","","","","","","","",""
"3912","","test","audio-keyboard-response","207","645399","0.0-11.0-1.3","5df4096aa98a7a2dce5bfb69","condF","","resources/audio/wordStim/S3_AI_21_bxa_Step-8.wav","49","","","","","","resources/audio/wordStim/S3_AI_21_bxa_Step-8.wav","S3","21","bxa","8","MI","BL","S3-BL","1","1","true"
"null","","fixation","html-keyboard-response","208","646403","0.0-11.0-0.4","5df4096aa98a7a2dce5bfb69","condF","","<div class=""vertical-center"" style='width:60%;'><p style='font-weight:bold;'>Does the middle word sound more like the first word (A) or the last word (B)?</p> <br> <div class=""container""> <div id=""a-box""> <p class=""title-text"">A</h3></p> </div> <div id=""x-box""> <p class=""title-text"">X<p> </div> <div id=""b-box""> <p class=""title-text"">B</p></div> <br> <div style='float: left;padding-left:30px;'><p>Press '1' for A</p></div><div style='float: right;padding-right:30px;'><p>Press '0' for B</p> </div> </div></div>","null","","","","","","","","","","","","","","","",""
"4232","","test","audio-keyboard-response","209","650644","0.0-11.0-1.4","5df4096aa98a7a2dce5bfb69","condF","","resources/audio/wordStim/S3_AU_19_axb_Step-8.wav","49","","","","","","resources/audio/wordStim/S3_AU_19_axb_Step-8.wav","S3","19","axb","8","MI","BL","S3-BL","0","1","false"
"null","","fixation","html-keyboard-response","210","651648","0.0-11.0-0.5","5df4096aa98a7a2dce5bfb69","condF","","<div class=""vertical-center"" style='width:60%;'><p style='font-weight:bold;'>Does the middle word sound more like the first word (A) or the last word (B)?</p> <br> <div class=""container""> <div id=""a-box""> <p class=""title-text"">A</h3></p> </div> <div id=""x-box""> <p class=""title-text"">X<p> </div> <div id=""b-box""> <p class=""title-text"">B</p></div> <br> <div style='float: left;padding-left:30px;'><p>Press '1' for A</p></div><div style='float: right;padding-right:30px;'><p>Press '0' for B</p> </div> </div></div>","null","","","","","","","","","","","","","","","",""
"4251","","test","audio-keyboard-response","211","655898","0.0-11.0-1.5","5df4096aa98a7a2dce5bfb69","condF","","resources/audio/wordStim/S3_AI_22_axb_Step-8.wav","49","","","","","","resources/audio/wordStim/S3_AI_22_axb_Step-8.wav","S3","22","axb","8","MI","BL","S3-BL","0","1","false"
"null","","fixation","html-keyboard-response","212","656904","0.0-11.0-0.6","5df4096aa98a7a2dce5bfb69","condF","","<div class=""vertical-center"" style='width:60%;'><p style='font-weight:bold;'>Does the middle word sound more like the first word (A) or the last word (B)?</p> <br> <div class=""container""> <div id=""a-box""> <p class=""title-text"">A</h3></p> </div> <div id=""x-box""> <p class=""title-text"">X<p> </div> <div id=""b-box""> <p class=""title-text"">B</p></div> <br> <div style='float: left;padding-left:30px;'><p>Press '1' for A</p></div><div style='float: right;padding-right:30px;'><p>Press '0' for B</p> </div> </div></div>","null","","","","","","","","","","","","","","","",""
